File: ACS_Catal_2026/Figures_Na_K/main_figures/data/EC/20240126_2-102_Add_Na/20240125_2-102_009_K_elctrode3_C01.mpt
EC-Lab ASCII FILE
Nb header lines : 66

Cyclic Voltammetry Advanced

Run on channel : 1 (SN 66412)
User :
CE vs. WE compliance from -10 V to 10 V
Electrode connection : standard
Potential control : Ewe
Ewe ctrl range : min = -1.00 V, max = 1.00 V
Safety Limits :
	Do not start on E overload
Acquisition started on : 01/26/2024 17:13:31.025
Loaded Setting File :  C:\Users\NakamuraT\Documents\EC-Lab\Data\Yatsuzuka\20240126_2-102_Add_Na\20240125_2-102_003_K_elctrode1.mps
Saved on :
	File : 20240125_2-102_009_K_elctrode3_C01.mpr
	Directory : C:\Users\NakamuraT\Documents\EC-Lab\Data\Yatsuzuka\20240126_2-102_Add_Na\
	Host : 192.109.209.100
Device : SP-150e (SN .003411)
Address : 192.109.209.236
EC-Lab for windows v11.50 (software)
Internet server v11.50 (firmware)
Command interpretor v11.50 (firmware)
Electrode material :
Initial state :
Electrolyte :
Comments :
Electrode surface area : 0.001 cm2
Characteristic mass : 0.001 g
Equivalent Weight : 0.000 g/eq.
Density : 0.000 g/cm3
Volume (V) : 0.001 cm3
Cycle Definition : Charge/Discharge alternance
Ei (V)              0.450
vs.                 Ref
ti (h:m:s)          0:00:10.0000
dti (s)             0.0000
dE/dt               5.000
dE/dt unit          mV/s
E1 (V)              0.700
vs.                 Ref
t1 (h:m:s)          0:00:0.0000
dt1 (s)             0.1000
Step percent        50
N                   10
E range min (V)     -1.000
E range max (V)     1.000
I Range             10 mA
I Range min         Unset
I Range max         Unset
I Range init        Unset
Bandwidth           5
E2 (V)              0.450
vs.                 Ref
t2 (h:m:s)          0:00:0.0000
dt2 (s)             0.1000
nc cycles           14
nr                  1
Reverse Scan        0
Ef (V)              0.000
vs.                 Eoc
tf (h:m:s)          0:00:0.0000
dtf (s)             0.1000

mode	ox/red	error	control changes	Ns changes	counter inc.	time/s	control/V	Ewe/V	<I>/mA	cycle number	(Q-Qo)/C	I Range	Ns	step time/s	P/W
2	1	0	0	0	0	0.000000000000000E+000	0.44994	0.450333	0.0094777	1	0.0000000E+000	11	0	0.000000000000000E+000	4.26812e-06
2	1	0	0	0	0	2.4554	0.462217	0.462458	0.0901186	1	0.000197948	11	0	2.4004	4.16761e-05
2	1	0	0	0	0	4.9558	0.47472	0.475103	0.0935664	1	0.000426499	11	0	4.9008	4.44537e-05
2	1	0	0	0	0	7.4562	0.487222	0.487576	0.0995201	1	0.000669291	11	0	7.4012	4.85236e-05
2	1	0	0	0	0	9.9566	0.499724	0.500096	0.109767	1	0.000932998	11	0	9.9016	5.48939e-05
2	1	0	1	0	0	12.4572	0.512226	0.512562	0.125102	1	0.00122675	11	0	12.4022	6.41228e-05
2	1	0	1	0	0	14.9576	0.524729	0.524964	0.146705	1	0.00156364	11	0	14.9026	7.70148e-05
2	1	0	1	0	0	17.458	0.537231	0.537521	0.177627	1	0.00196386	11	0	17.403	9.54781e-05
2	1	0	1	0	0	19.9584	0.549733	0.549991	0.223368	1	0.00245965	11	0	19.9034	0.00012285
2	1	0	1	0	0	22.4589	0.562236	0.562549	0.295485	1	0.00310354	11	0	22.4039	0.000166225
2	1	0	0	0	0	24.9594	0.574737	0.575003	0.407952	1	0.00397692	11	0	24.9044	0.000234574
2	1	0	0	0	0	27.4598	0.58724	0.587507	0.576375	1	0.00519652	11	0	27.4048	0.000338624
2	1	0	0	0	0	29.9602	0.599742	0.600084	0.811233	1	0.00691577	11	0	29.9052	0.000486808
2	1	0	0	0	0	32.4606	0.612244	0.612528	1.12007	1	0.00931429	11	0	32.4056	0.000686073
2	1	0	1	0	0	34.9612	0.624746	0.625102	1.50295	1	0.0125814	11	0	34.9062	0.000939495
2	1	0	1	0	0	37.4616	0.637249	0.63756	1.95491	1	0.0168957	11	0	37.4066	0.00124638
2	1	0	1	0	0	39.962	0.649751	0.65007	2.4677	1	0.0224171	11	0	39.907	0.00160418
2	1	0	1	0	0	42.4624	0.662253	0.662546	3.02942	1	0.0292814	11	0	42.4074	0.00200713
2	1	0	1	0	0	44.9629	0.674755	0.675076	3.62645	1	0.0375962	11	0	44.9079	0.00244813
2	1	0	0	0	0	47.4634	0.687257	0.687537	4.25609	1	0.0474474	11	0	47.4084	0.00292622
2	1	0	0	0	0	49.9588	0.699735	0.699993	4.90913	1	0.0588828	11	0	49.9038	0.00343635
2	1	0	0	0	0	52.2722	0.688658	0.688945	4.23428	1	0.0694709	11	0	52.2172	0.00291718
2	1	0	0	0	0	54.7726	0.676155	0.676432	3.53466	1	0.0791724	11	0	54.7176	0.00239096
2	1	0	1	0	0	57.2731	0.663653	0.663888	2.88683	1	0.0871865	11	0	57.2181	0.00191653
2	1	0	1	0	0	59.7736	0.651151	0.651381	2.29709	1	0.0936513	11	0	59.7186	0.00149628
2	1	0	1	0	0	62.274	0.638649	0.638885	1.76091	1	0.0987069	11	0	62.219	0.00112502
2	1	0	1	0	0	64.7744	0.626147	0.626448	1.2904	1	0.102504	11	0	64.7194	0.000808368
2	1	0	1	0	0	67.2748	0.613644	0.613949	0.897404	1	0.105223	11	0	67.2198	0.000550961
2	1	0	0	0	0	69.7754	0.601142	0.601445	0.587215	1	0.107063	11	0	69.7204	0.000353177
2	1	0	0	0	0	72.2758	0.58864	0.588937	0.3577	1	0.108227	11	0	72.2208	0.000210663
2	1	0	0	0	0	74.7762	0.576138	0.576458	0.19712	1	0.108904	11	0	74.7212	0.000113632
2	1	0	0	0	0	77.2766	0.563635	0.563926	0.0922917	1	0.109254	11	0	77.2216	5.20457e-05
2	1	0	1	0	0	79.7771	0.551133	0.551438	0.0268368	1	0.109397	11	0	79.7221	1.47988e-05
2	0	0	1	0	0	82.2776	0.538631	0.538965	-0.0127312	1	0.109412	11	0	0.8002	-6.86165e-06
2	0	0	1	0	0	84.778	0.526129	0.526462	-0.0356017	1	0.109351	11	0	3.3006	-1.87429e-05
2	0	0	1	0	0	87.2784	0.513627	0.513913	-0.0485312	1	0.109243	11	0	5.801	-2.49408e-05
2	0	0	1	0	0	89.7788	0.501124	0.501384	-0.057349	1	0.109108	11	0	8.3014	-2.87539e-05
2	0	0	0	0	0	92.2794	0.488622	0.48896	-0.0644852	1	0.108953	11	0	10.802	-3.15307e-05
2	0	0	0	0	0	94.7798	0.47612	0.476412	-0.0702811	1	0.108784	11	0	13.3024	-3.34827e-05
2	0	0	0	0	0	97.2802	0.463618	0.463901	-0.0751448	1	0.108604	11	0	15.8028	-3.48598e-05
2	0	0	0	0	0	99.7806	0.451115	0.451419	-0.0782004	1	0.108415	11	0	18.3032	-3.53012e-05
2	1	0	1	0	1	102.154	0.460767	0.461027	0.0691783	2	0.108514	11	0	1.9002	3.18931e-05
2	1	0	0	0	1	104.655	0.473269	0.473564	0.0722211	2	0.108691	11	0	4.4008	3.42013e-05
2	1	0	0	0	1	107.155	0.485772	0.486064	0.0737732	2	0.108871	11	0	6.9012	3.58585e-05
2	1	0	0	0	1	109.656	0.498274	0.498626	0.0749146	2	0.109055	11	0	9.4016	3.73543e-05
2	1	0	0	0	1	112.156	0.510776	0.511097	0.0783702	2	0.109247	11	0	11.902	4.00548e-05
2	1	0	1	0	1	114.656	0.523278	0.523618	0.0868313	2	0.109456	11	0	14.4025	4.54664e-05
2	1	0	1	0	1	117.157	0.53578	0.536108	0.103664	2	0.109694	11	0	16.903	5.5575e-05
2	1	0	1	0	1	119.657	0.548283	0.548651	0.134452	2	0.109989	11	0	19.4034	7.37673e-05
2	1	0	1	0	1	122.158	0.560785	0.561076	0.185776	2	0.110382	11	0	21.9038	0.000104235
2	1	0	1	0	1	124.658	0.573287	0.573591	0.270701	2	0.110943	11	0	24.4042	0.000155271
2	1	0	0	0	1	127.159	0.585789	0.586069	0.406342	2	0.11178	11	0	26.9048	0.000238145
2	1	0	0	0	1	129.659	0.598292	0.598607	0.609323	2	0.113038	11	0	29.4052	0.000364745
2	1	0	0	0	1	132.16	0.610794	0.61104	0.891373	2	0.1149	11	0	31.9056	0.000544665
2	1	0	0	0	1	134.66	0.623296	0.623585	1.25334	2	0.117566	11	0	34.406	0.000781561
2	1	0	1	0	1	137.161	0.635798	0.63608	1.68754	2	0.121228	11	0	36.9066	0.00107341
2	1	0	1	0	1	139.661	0.648301	0.648558	2.18514	2	0.126059	11	0	39.407	0.00141719
2	1	0	1	0	1	142.161	0.660803	0.661131	2.73677	2	0.132207	11	0	41.9074	0.00180936
2	1	0	1	0	1	144.662	0.673305	0.673634	3.33163	2	0.139791	11	0	44.4078	0.0022443
2	1	0	1	0	1	147.162	0.685808	0.68614	3.9595	2	0.148903	11	0	46.9083	0.00271677
2	1	0	0	0	1	149.663	0.698309	0.698617	4.61019	2	0.159614	11	0	49.4088	0.00322076
2	1	0	0	0	1	151.961	0.690158	0.690446	4.11396	2	0.169807	11	0	51.7072	0.00284047
2	1	0	0	0	1	154.462	0.677656	0.678008	3.43294	2	0.179229	11	0	54.2076	0.00232756
2	1	0	0	0	1	156.962	0.665153	0.665467	2.80625	2	0.187017	11	0	56.708	0.00186747
2	1	0	0	0	1	159.462	0.652651	0.652947	2.2297	2	0.1933	11	0	59.2084	0.00145588
2	1	0	1	0	1	161.963	0.640149	0.640375	1.7068	2	0.198204	11	0	61.709	0.00109299
2	1	0	1	0	1	164.463	0.627647	0.62792	1.24933	2	0.201883	11	0	64.2094	0.000784482
2	1	0	1	0	1	166.964	0.615145	0.61538	0.866899	2	0.204513	11	0	66.7098	0.000533472
2	1	0	1	0	1	169.464	0.602642	0.602999	0.565627	2	0.206287	11	0	69.2102	0.000341072
2	1	0	0	0	1	171.965	0.59014	0.59043	0.342792	2	0.207405	11	0	71.7108	0.000202394
2	1	0	0	0	1	174.465	0.577638	0.577984	0.187998	2	0.208052	11	0	74.2112	0.00010866
2	1	0	0	0	1	176.966	0.565136	0.565462	0.0856737	2	0.208382	11	0	76.7116	4.84452e-05
2	1	0	0	0	1	179.466	0.552633	0.552875	0.0221678	2	0.208511	11	0	79.212	1.2256e-05
2	0	0	0	0	1	181.966	0.540131	0.540401	-0.0148184	2	0.208518	11	0	1	-8.00789e-06
2	0	0	1	0	1	184.467	0.527629	0.527881	-0.036069	2	0.208452	11	0	3.5006	-1.90401e-05
2	0	0	1	0	1	186.967	0.515127	0.515422	-0.0491271	2	0.208342	11	0	6.001	-2.53212e-05
2	0	0	1	0	1	189.468	0.502625	0.502893	-0.0586696	2	0.208204	11	0	8.5014	-2.95045e-05
2	0	0	1	0	1	191.968	0.490122	0.490458	-0.0658498	2	0.208048	11	0	11.0018	-3.22966e-05
2	0	0	0	0	1	194.469	0.47762	0.477955	-0.0704297	2	0.20788	11	0	13.5024	-3.36622e-05
2	0	0	0	0	1	196.969	0.465118	0.465421	-0.0731484	2	0.207701	11	0	16.0028	-3.40448e-05
2	0	0	0	0	1	199.47	0.452616	0.452892	-0.0760735	2	0.207513	11	0	18.5032	-3.44531e-05
2	1	0	1	0	0	201.843	0.459267	0.459541	0.0676908	3	0.207565	11	0	1.6002	3.11067e-05
2	1	0	1	0	0	204.344	0.471769	0.472075	0.0686486	3	0.207735	11	0	4.1006	3.24073e-05
2	1	0	0	0	0	206.844	0.484271	0.484562	0.0680226	3	0.207908	11	0	6.6012	3.29611e-05
2	1	0	0	0	0	209.345	0.496774	0.497088	0.0701021	3	0.208083	11	0	9.1016	3.48469e-05
2	1	0	0	0	0	211.845	0.509276	0.509587	0.0751856	3	0.208265	11	0	11.602	3.83136e-05
2	1	0	0	0	0	214.345	0.521778	0.522106	0.082933	3	0.20846	11	0	14.1024	4.32998e-05
2	1	0	1	0	0	216.846	0.53428	0.534578	0.0953675	3	0.208679	11	0	16.6029	5.09814e-05
2	1	0	1	0	0	219.346	0.546782	0.547138	0.118815	3	0.208946	11	0	19.1034	6.50082e-05
2	1	0	1	0	0	221.847	0.559285	0.559595	0.162886	3	0.209296	11	0	21.6038	9.11502e-05
2	1	0	1	0	0	224.347	0.571787	0.572049	0.238334	3	0.20979	11	0	24.1042	0.000136339
2	1	0	1	0	0	226.848	0.584289	0.584615	0.359642	3	0.210525	11	0	26.6046	0.000210252
2	1	0	0	0	0	229.348	0.596791	0.597103	0.542315	3	0.211637	11	0	29.1052	0.000323818
2	1	0	0	0	0	231.849	0.609294	0.609649	0.800417	3	0.213301	11	0	31.6056	0.000487973
2	1	0	0	0	0	234.349	0.621796	0.622131	1.14107	3	0.215715	11	0	34.106	0.000709894
2	1	0	0	0	0	236.849	0.634298	0.634611	1.55937	3	0.21908	11	0	36.6064	0.000989591
2	1	0	1	0	0	239.35	0.6468	0.647079	2.0452	3	0.223575	11	0	39.1069	0.00132341
2	1	0	1	0	0	241.85	0.659302	0.659577	2.58637	3	0.229355	11	0	41.6074	0.00170591
2	1	0	1	0	0	244.351	0.671805	0.672124	3.17167	3	0.236548	11	0	44.1078	0.00213176
2	1	0	1	0	0	246.851	0.684307	0.684579	3.79445	3	0.245254	11	0	46.6082	0.0025976
2	1	0	1	0	0	249.352	0.696809	0.697102	4.44389	3	0.255556	11	0	49.1086	0.00309785
2	1	0	1	0	0	251.65	0.691658	0.691893	4.1197	3	0.265683	11	0	51.4071	0.00285039
2	1	0	0	0	0	254.151	0.679156	0.679473	3.43616	3	0.275114	11	0	53.9076	0.00233478
2	1	0	0	0	0	256.651	0.666654	0.666953	2.80323	3	0.282898	11	0	56.408	0.00186962
2	1	0	0	0	0	259.151	0.654152	0.654439	2.22352	3	0.289166	11	0	58.9084	0.00145516
2	1	0	0	0	0	261.652	0.641649	0.641959	1.70078	3	0.294058	11	0	61.4088	0.00109183
2	1	0	1	0	0	264.152	0.629147	0.629496	1.2452	3	0.297726	11	0	63.9094	0.000783847
2	1	0	1	0	0	266.653	0.616645	0.616901	0.865635	3	0.300348	11	0	66.4098	0.000534011
2	1	0	1	0	0	269.153	0.604143	0.604439	0.565338	3	0.302117	11	0	68.9102	0.000341712
2	1	0	1	0	0	271.654	0.59164	0.59194	0.34105	3	0.303231	11	0	71.4106	0.000201881
2	1	0	1	0	0	274.154	0.579138	0.579458	0.186276	3	0.303876	11	0	73.9111	0.000107939
2	1	0	0	0	0	276.655	0.566636	0.566949	0.084831	3	0.304206	11	0	76.4116	4.80949e-05
2	1	0	0	0	0	279.155	0.554134	0.554416	0.0226792	3	0.304335	11	0	78.912	1.25737e-05
2	0	0	0	0	0	281.655	0.541632	0.541947	-0.0136919	3	0.304342	11	0	1.0002	-7.42028e-06
2	0	0	0	0	0	284.156	0.529129	0.52942	-0.0356635	3	0.304275	11	0	3.5006	-1.8881e-05
2	0	0	1	0	0	286.656	0.516627	0.516928	-0.0498614	3	0.304165	11	0	6.0012	-2.57748e-05
2	0	0	1	0	0	289.157	0.504125	0.504405	-0.059625	3	0.304028	11	0	8.5016	-3.00751e-05
2	0	0	1	0	0	291.657	0.491623	0.491916	-0.0656453	3	0.303873	11	0	11.002	-3.2292e-05
2	0	0	1	0	0	294.158	0.47912	0.479389	-0.0691202	3	0.303706	11	0	13.5024	-3.31355e-05
2	0	0	1	0	0	296.658	0.466618	0.466931	-0.07186	3	0.303529	11	0	16.0029	-3.35536e-05
2	0	0	0	0	0	299.159	0.454116	0.454408	-0.075558	3	0.303342	11	0	18.5034	-3.43342e-05
2	1	0	1	0	1	301.532	0.457767	0.458072	0.0659113	4	0.30335	11	0	1.3002	3.01921e-05
2	1	0	1	0	1	304.033	0.470269	0.470576	0.0674839	4	0.303516	11	0	3.8006	3.17563e-05
2	1	0	1	0	1	306.533	0.482771	0.483067	0.0669455	4	0.303686	11	0	6.301	3.23391e-05
2	1	0	0	0	1	309.034	0.495273	0.495565	0.0681689	4	0.303857	11	0	8.8016	3.37821e-05
2	1	0	0	0	1	311.534	0.507776	0.508133	0.0719951	4	0.304033	11	0	11.302	3.65831e-05
2	1	0	0	0	1	314.034	0.520278	0.520536	0.0790324	4	0.30422	11	0	13.8024	4.11392e-05
2	1	0	0	0	1	316.535	0.53278	0.533044	0.0907177	4	0.304428	11	0	16.3028	4.83565e-05
2	1	0	1	0	1	319.035	0.545282	0.545599	0.111114	4	0.304677	11	0	18.8033	6.06239e-05
2	1	0	1	0	1	321.536	0.557784	0.558078	0.148388	4	0.304999	11	0	21.3038	8.28122e-05
2	1	0	1	0	1	324.036	0.570287	0.570617	0.214517	4	0.305448	11	0	23.8042	0.000122407
2	1	0	1	0	1	326.537	0.582789	0.583097	0.323966	4	0.306111	11	0	26.3046	0.000188904
2	1	0	1	0	1	329.037	0.595291	0.59558	0.492358	4	0.307117	11	0	28.805	0.000293239
2	1	0	0	0	1	331.538	0.607793	0.608067	0.733104	4	0.308632	11	0	31.3056	0.000445777
2	1	0	0	0	1	334.038	0.620296	0.620608	1.05487	4	0.310853	11	0	33.806	0.000654664
2	1	0	0	0	1	336.538	0.632798	0.633083	1.45702	4	0.313983	11	0	36.3064	0.000922416
2	1	0	0	0	1	339.039	0.6453	0.645555	1.92961	4	0.318206	11	0	38.8068	0.00124567
2	1	0	0	0	1	341.539	0.657802	0.658124	2.46126	4	0.323685	11	0	41.3072	0.00161982
2	1	0	1	0	1	344.04	0.670304	0.670618	3.0384	4	0.330554	11	0	43.8078	0.0020376
2	1	0	1	0	1	346.54	0.682807	0.683104	3.65155	4	0.338916	11	0	46.3082	0.00249439
2	1	0	1	0	1	349.041	0.695309	0.695643	4.29704	4	0.348853	11	0	48.8086	0.0029892
2	1	0	1	0	1	351.339	0.693158	0.693459	4.14089	4	0.358899	11	0	51.107	0.00287154
2	1	0	1	0	1	353.839	0.680656	0.68101	3.45627	4	0.36838	11	0	53.6074	0.00235375
2	1	0	0	0	1	356.34	0.668154	0.668487	2.81809	4	0.37621	11	0	56.108	0.00188386
2	1	0	0	0	1	358.84	0.655652	0.656007	2.23202	4	0.382511	11	0	58.6084	0.00146422
2	1	0	0	0	1	361.341	0.64315	0.643426	1.70739	4	0.387421	11	0	61.1088	0.00109858
2	1	0	0	0	1	363.841	0.630647	0.630944	1.25291	4	0.391104	11	0	63.6092	0.000790514
2	1	0	1	0	1	366.342	0.618145	0.618469	0.872495	4	0.393741	11	0	66.1098	0.000539611
2	1	0	1	0	1	368.842	0.605643	0.605973	0.568917	4	0.395524	11	0	68.6102	0.000344748
2	1	0	1	0	1	371.343	0.593141	0.593471	0.344125	4	0.39665	11	0	71.1106	0.000204228
2	1	0	1	0	1	373.843	0.580638	0.580959	0.189727	4	0.397306	11	0	73.611	0.000110224
2	1	0	1	0	1	376.343	0.568136	0.568423	0.0893003	4	0.397644	11	0	76.1115	5.07604e-05
2	1	0	0	0	1	378.844	0.555634	0.555978	0.0259087	4	0.397778	11	0	78.612	1.44047e-05
2	0	0	0	0	1	381.344	0.543132	0.543394	-0.013627	4	0.397789	11	0	0.9002	-7.40482e-06
2	0	0	0	0	1	383.845	0.53063	0.530936	-0.0367843	4	0.397726	11	0	3.4006	-1.95301e-05
2	0	0	0	0	1	386.345	0.518127	0.518436	-0.049351	4	0.397618	11	0	5.901	-2.55853e-05
2	0	0	1	0	1	388.846	0.505625	0.505935	-0.0568885	4	0.397483	11	0	8.4016	-2.87819e-05
2	0	0	1	0	1	391.346	0.493123	0.493379	-0.0635196	4	0.39733	11	0	10.902	-3.13392e-05
2	0	0	1	0	1	393.847	0.480621	0.480994	-0.0693722	4	0.397165	11	0	13.4024	-3.33676e-05
2	0	0	1	0	1	396.347	0.468119	0.468452	-0.0729202	4	0.396989	11	0	15.9028	-3.41596e-05
2	0	0	1	0	1	398.847	0.455616	0.455911	-0.0753173	4	0.396804	11	0	18.4033	-3.4338e-05
2	1	0	1	0	0	401.221	0.456266	0.456612	0.0639267	5	0.396769	11	0	1.0002	2.91897e-05
2	1	0	1	0	0	403.722	0.468769	0.469057	0.0674178	5	0.396933	11	0	3.5006	3.16228e-05
2	1	0	1	0	0	406.222	0.481271	0.481639	0.0668269	5	0.3971	11	0	6.001	3.21864e-05
2	1	0	1	0	0	408.722	0.493773	0.494148	0.0670087	5	0.397269	11	0	8.5014	3.31122e-05
2	1	0	1	0	0	411.223	0.506275	0.506567	0.0699342	5	0.397442	11	0	11.0019	3.54263e-05
2	1	0	0	0	0	413.723	0.518777	0.519068	0.0763973	5	0.397624	11	0	13.5024	3.96554e-05
2	1	0	0	0	0	416.224	0.53128	0.531629	0.0871587	5	0.397825	11	0	16.0028	4.6336e-05
2	1	0	0	0	0	418.724	0.543782	0.544105	0.105117	5	0.398061	11	0	18.5032	5.71948e-05
2	1	0	0	0	0	421.225	0.556284	0.556626	0.138357	5	0.398363	11	0	21.0036	7.70131e-05
2	1	0	1	0	0	423.725	0.568786	0.569096	0.198422	5	0.398781	11	0	23.5042	0.000112921
2	1	0	1	0	0	426.226	0.581289	0.581569	0.299218	5	0.399394	11	0	26.0046	0.000174016
2	1	0	1	0	0	428.726	0.593791	0.5941	0.455332	5	0.400322	11	0	28.505	0.000270512
2	1	0	1	0	0	431.226	0.606293	0.606623	0.68223	5	0.401729	11	0	31.0054	0.000413857
2	1	0	1	0	0	433.727	0.618795	0.619105	0.989881	5	0.403806	11	0	33.5059	0.00061284
2	1	0	0	0	0	436.227	0.631297	0.631623	1.37935	5	0.406757	11	0	36.0064	0.000871228
2	1	0	0	0	0	438.728	0.6438	0.644109	1.8412	5	0.410772	11	0	38.5068	0.00118594
2	1	0	0	0	0	441.228	0.656302	0.656641	2.36351	5	0.416017	11	0	41.0072	0.00155198
2	1	0	1	0	0	443.729	0.668805	0.669072	2.93471	5	0.422633	11	0	43.5077	0.00196353
2	1	0	1	0	0	446.229	0.681306	0.681583	3.54464	5	0.430732	11	0	46.0082	0.00241597
2	1	0	1	0	0	448.73	0.693809	0.69409	4.18483	5	0.440395	11	0	48.5086	0.00290464
2	1	0	1	0	0	451.028	0.694659	0.694981	4.19058	5	0.450384	11	0	50.807	0.00291238
2	1	0	1	0	0	453.528	0.682157	0.682479	3.49784	5	0.459979	11	0	53.3074	0.0023872
2	1	0	1	0	0	456.029	0.669654	0.669934	2.8571	5	0.467908	11	0	55.8078	0.00191407
2	1	0	0	0	0	458.529	0.657152	0.657449	2.27235	5	0.474309	11	0	58.3084	0.00149396
2	1	0	0	0	0	461.03	0.64465	0.644922	1.74692	5	0.47932	11	0	60.8088	0.00112663
2	1	0	0	0	0	463.53	0.632148	0.632486	1.29078	5	0.483099	11	0	63.3092	0.000816402
2	1	0	0	0	0	466.031	0.619645	0.61997	0.90247	5	0.485822	11	0	65.8096	0.000559504
2	1	0	1	0	0	468.531	0.607143	0.607494	0.59257	5	0.487674	11	0	68.3102	0.000359983
2	1	0	1	0	0	471.032	0.594641	0.595003	0.36178	5	0.488852	11	0	70.8106	0.00021526
2	1	0	1	0	0	473.532	0.582139	0.582433	0.201382	5	0.489541	11	0	73.311	0.000117291
2	1	0	1	0	0	476.032	0.569637	0.569925	0.0952275	5	0.489899	11	0	75.8114	5.42725e-05
2	1	0	1	0	0	478.533	0.557134	0.557422	0.0278582	5	0.490047	11	0	78.3118	1.55288e-05
2	0	0	0	0	0	481.033	0.544632	0.544939	-0.0113446	5	0.490066	11	0	0.8002	-6.18212e-06
2	0	0	0	0	0	483.534	0.53213	0.532451	-0.0331602	5	0.490007	11	0	3.3006	-1.76562e-05
2	0	0	0	0	0	486.034	0.519628	0.519894	-0.0474368	5	0.489903	11	0	5.801	-2.46621e-05
2	0	0	0	0	0	488.535	0.507125	0.507406	-0.0575824	5	0.48977	11	0	8.3014	-2.92176e-05
2	0	0	1	0	0	491.035	0.494624	0.494955	-0.0641406	5	0.489619	11	0	10.8019	-3.17467e-05
2	0	0	1	0	0	493.536	0.482121	0.482451	-0.0672912	5	0.489456	11	0	13.3024	-3.24647e-05
2	0	0	1	0	0	496.036	0.469619	0.469928	-0.0700229	5	0.489282	11	0	15.8028	-3.29057e-05
2	0	0	1	0	0	498.536	0.457117	0.457411	-0.0749452	5	0.489099	11	0	18.3032	-3.42808e-05
2	1	0	0	0	1	500.91	0.454766	0.455065	0.0598707	6	0.489023	11	0	0.7	2.72451e-05
2	1	0	1	0	1	503.411	0.467268	0.467594	0.0647562	6	0.489184	11	0	3.2006	3.02796e-05
2	1	0	1	0	1	505.911	0.479771	0.480114	0.0666199	6	0.489349	11	0	5.701	3.19851e-05
2	1	0	1	0	1	508.411	0.492273	0.492579	0.0679474	6	0.489516	11	0	8.2014	3.34695e-05
2	1	0	1	0	1	510.912	0.504775	0.505082	0.0687665	6	0.489686	11	0	10.7018	3.47327e-05
2	1	0	1	0	1	513.412	0.517278	0.517588	0.0725593	6	0.489864	11	0	13.2023	3.75558e-05
2	1	0	0	0	1	515.913	0.529779	0.530076	0.0830358	6	0.490059	11	0	15.7028	4.40153e-05
2	1	0	0	0	1	518.413	0.542282	0.542616	0.101478	6	0.490286	11	0	18.2032	5.50637e-05
2	1	0	0	0	1	520.914	0.554784	0.55509	0.131499	6	0.490573	11	0	20.7036	7.29937e-05
2	1	0	0	0	1	523.414	0.567286	0.567571	0.184745	6	0.490964	11	0	23.204	0.000104856
2	1	0	1	0	1	525.915	0.579788	0.580084	0.27678	6	0.491535	11	0	25.7046	0.000160555
2	1	0	1	0	1	528.415	0.592291	0.592607	0.423509	6	0.492398	11	0	28.205	0.000250975
2	1	0	1	0	1	530.915	0.604793	0.605175	0.638195	6	0.493708	11	0	30.7054	0.00038622
2	1	0	1	0	1	533.416	0.617295	0.617577	0.931858	6	0.495655	11	0	33.2058	0.000575494
2	1	0	1	0	1	535.916	0.629797	0.630039	1.30739	6	0.498442	11	0	35.7063	0.000823709
2	1	0	0	0	1	538.417	0.642299	0.642574	1.7587	6	0.502264	11	0	38.2068	0.0011301
2	1	0	0	0	1	540.917	0.654802	0.655135	2.27152	6	0.507292	11	0	40.7072	0.00148815
2	1	0	0	0	1	543.418	0.667304	0.667632	2.83326	6	0.513665	11	0	43.2076	0.00189158
2	1	0	0	0	1	545.918	0.679806	0.680112	3.43516	6	0.521498	11	0	45.708	0.00233629
2	1	0	1	0	1	548.419	0.692308	0.692619	4.07311	6	0.530884	11	0	48.2086	0.00282111
2	1	0	1	0	1	550.717	0.696159	0.696467	4.24871	6	0.540774	11	0	50.507	0.00295909
2	1	0	1	0	1	553.217	0.683657	0.683932	3.55986	6	0.55052	11	0	53.0074	0.00243471
2	1	0	1	0	1	555.718	0.671155	0.671465	2.91769	6	0.558604	11	0	55.5078	0.00195913
2	1	0	1	0	1	558.218	0.658652	0.658964	2.32698	6	0.565149	11	0	58.0082	0.0015334
2	1	0	0	0	1	560.719	0.64615	0.646421	1.79351	6	0.570288	11	0	60.5088	0.00115936
2	1	0	0	0	1	563.219	0.633648	0.634013	1.3271	6	0.574172	11	0	63.0092	0.0008414
2	1	0	0	0	1	565.72	0.621146	0.621404	0.931418	6	0.576975	11	0	65.5096	0.000578787
2	1	0	0	0	1	568.22	0.608643	0.608922	0.613304	6	0.578888	11	0	68.01	0.000373454
2	1	0	1	0	1	570.72	0.596141	0.596519	0.375476	6	0.580109	11	0	70.5105	0.000223979
2	1	0	1	0	1	573.221	0.583639	0.584075	0.209751	6	0.580828	11	0	73.011	0.00012251
2	1	0	1	0	1	575.721	0.571137	0.571466	0.102988	6	0.581207	11	0	75.5114	5.88542e-05
2	1	0	1	0	1	578.222	0.558635	0.558975	0.0343838	6	0.581369	11	0	78.0118	1.92197e-05
2	0	0	1	0	1	580.722	0.546132	0.546463	-0.00815937	6	0.581396	11	0	0.4	-4.45879e-06
2	0	0	0	0	1	583.223	0.53363	0.533919	-0.0331995	6	0.581344	11	0	2.9006	-1.77259e-05
2	0	0	0	0	1	585.723	0.521128	0.52143	-0.0470691	6	0.581243	11	0	5.401	-2.45433e-05
2	0	0	0	0	1	588.224	0.508626	0.508961	-0.0548683	6	0.581113	11	0	7.9014	-2.79258e-05
2	0	0	0	0	1	590.724	0.496123	0.496428	-0.0611591	6	0.580965	11	0	10.4018	-3.03611e-05
2	0	0	1	0	1	593.224	0.483621	0.483959	-0.0671589	6	0.580803	11	0	12.9023	-3.25022e-05
2	0	0	1	0	1	595.725	0.471119	0.47145	-0.0715111	6	0.580631	11	0	15.4028	-3.37139e-05
2	0	0	1	0	1	598.225	0.458617	0.458935	-0.0739899	6	0.58045	11	0	17.9032	-3.39566e-05
2	1	0	0	0	0	600.599	0.453266	0.453551	0.0561253	7	0.580335	11	0	0.4	2.54557e-05
2	1	0	0	0	0	603.099	0.465768	0.466131	0.0662377	7	0.580493	11	0	2.9004	3.08754e-05
2	1	0	1	0	0	605.6	0.47827	0.478554	0.0654848	7	0.580657	11	0	5.401	3.1338e-05
2	1	0	1	0	0	608.1	0.490773	0.49106	0.0650289	7	0.580823	11	0	7.9014	3.19331e-05
2	1	0	1	0	0	610.601	0.503275	0.503576	0.0673117	7	0.580991	11	0	10.4018	3.38966e-05
2	1	0	1	0	0	613.101	0.515777	0.516134	0.0731086	7	0.581166	11	0	12.9022	3.77338e-05
2	1	0	1	0	0	615.602	0.528279	0.528629	0.0817231	7	0.581357	11	0	15.4026	4.32012e-05
2	1	0	0	0	0	618.102	0.540781	0.541099	0.0964996	7	0.581576	11	0	17.9032	5.22159e-05
2	1	0	0	0	0	620.603	0.553284	0.553609	0.123658	7	0.581849	11	0	20.4036	6.84579e-05
2	1	0	0	0	0	623.103	0.565786	0.566119	0.173784	7	0.582218	11	0	22.904	9.83823e-05
2	1	0	0	0	0	625.603	0.578288	0.578647	0.259224	7	0.582752	11	0	25.4044	0.000149999
2	1	0	1	0	0	628.104	0.59079	0.591115	0.395041	7	0.583556	11	0	27.905	0.000233515
2	1	0	1	0	0	630.604	0.603293	0.603617	0.597141	7	0.58478	11	0	30.4054	0.000360444
2	1	0	1	0	0	633.105	0.615795	0.616123	0.877915	7	0.586609	11	0	32.9058	0.000540904
2	1	0	1	0	0	635.605	0.628297	0.628624	1.24053	7	0.589245	11	0	35.4062	0.000779829
2	1	0	1	0	0	638.106	0.640799	0.641097	1.67945	7	0.592885	11	0	37.9066	0.00107669
2	1	0	0	0	0	640.606	0.653301	0.653607	2.1837	7	0.597705	11	0	40.4072	0.00142728
2	1	0	0	0	0	643.107	0.665804	0.666112	2.74068	7	0.603852	11	0	42.9076	0.0018256
2	1	0	0	0	0	645.607	0.678306	0.678641	3.33916	7	0.611448	11	0	45.408	0.00226609
2	1	0	0	0	0	648.107	0.690808	0.691096	3.9691	7	0.620583	11	0	47.9084	0.00274303
2	1	0	0	0	0	650.406	0.697659	0.697998	4.30478	7	0.630334	11	0	50.2068	0.00300473
2	1	0	1	0	0	652.906	0.685157	0.685466	3.60843	7	0.640215	11	0	52.7074	0.00247345
2	1	0	1	0	0	655.407	0.672655	0.672944	2.96581	7	0.648418	11	0	55.2078	0.00199583
2	1	0	1	0	0	657.907	0.660153	0.660492	2.37936	7	0.655085	11	0	57.7082	0.00157155
2	1	0	1	0	0	660.408	0.64765	0.647938	1.84056	7	0.660345	11	0	60.2086	0.00119257
2	1	0	0	0	0	662.908	0.635148	0.635453	1.36436	7	0.664337	11	0	62.7092	0.000866987
2	1	0	0	0	0	665.409	0.622646	0.622973	0.961656	7	0.667228	11	0	65.2096	0.000599086
2	1	0	0	0	0	667.909	0.610144	0.610454	0.641133	7	0.669215	11	0	67.71	0.000391383
2	1	0	0	0	0	670.409	0.597642	0.598013	0.398841	7	0.670496	11	0	70.2104	0.000238512
2	1	0	0	0	0	672.91	0.585139	0.585432	0.225415	7	0.671259	11	0	72.7108	0.000131965
2	1	0	0	0	0	675.41	0.572637	0.572941	0.109747	7	0.671667	11	0	75.2114	6.28786e-05
2	1	0	0	0	0	677.911	0.560135	0.560472	0.0377826	7	0.671845	11	0	77.7118	2.11761e-05
2	1	0	0	0	0	680.411	0.547633	0.547946	-0.00417382	7	0.671883	11	0	0.2	-2.28703e-06
2	0	0	0	0	0	682.912	0.53513	0.535404	-0.0289155	7	0.671836	11	0	2.7004	-1.54815e-05
2	0	0	1	0	0	685.412	0.522628	0.522959	-0.0454865	7	0.67174	11	0	5.201	-2.37876e-05
2	0	0	1	0	0	687.913	0.510126	0.510454	-0.056356	7	0.671613	11	0	7.7014	-2.87671e-05
2	0	0	1	0	0	690.413	0.497624	0.497909	-0.0616679	7	0.671466	11	0	10.2018	-3.0705e-05
2	0	0	1	0	0	692.913	0.485122	0.485436	-0.064851	7	0.671306	11	0	12.7022	-3.1481e-05
2	0	0	1	0	0	695.414	0.472619	0.472946	-0.0697642	7	0.671136	11	0	15.2026	-3.29947e-05
2	0	0	0	0	0	697.914	0.460117	0.460414	-0.0747978	7	0.670957	11	0	17.7032	-3.4438e-05
2	1	0	1	0	1	700.288	0.451766	0.452048	0.0367137	8	0.670805	11	0	0.1	1.65963e-05
2	1	0	1	0	1	702.788	0.464268	0.464543	0.0651062	8	0.670957	11	0	2.6004	3.02447e-05
2	1	0	1	0	1	705.289	0.47677	0.477087	0.066424	8	0.67112	11	0	5.1008	3.169e-05
2	1	0	1	0	1	707.789	0.489272	0.489554	0.0653993	8	0.671284	11	0	7.6013	3.20165e-05
2	1	0	0	0	1	710.29	0.501774	0.502062	0.0663501	8	0.67145	11	0	10.1018	3.33119e-05
2	1	0	0	0	1	712.79	0.514277	0.514583	0.0714785	8	0.671623	11	0	12.6022	3.67816e-05
2	1	0	0	0	1	715.291	0.526779	0.527115	0.0798556	8	0.67181	11	0	15.1026	4.20931e-05
2	1	0	0	0	1	717.791	0.539281	0.539566	0.0928526	8	0.672023	11	0	17.603	5.01001e-05
2	1	0	1	0	1	720.292	0.551783	0.552085	0.117885	8	0.672285	11	0	20.1036	6.50825e-05
2	1	0	1	0	1	722.792	0.564286	0.564655	0.165431	8	0.672635	11	0	22.604	9.34114e-05
2	1	0	1	0	1	725.292	0.576788	0.577136	0.244478	8	0.673137	11	0	25.1044	0.000141097
2	1	0	1	0	1	727.793	0.58929	0.589579	0.369574	8	0.673893	11	0	27.6048	0.000217893
2	1	0	1	0	1	730.293	0.601792	0.602087	0.56088	8	0.675043	11	0	30.1053	0.000337699
2	1	0	0	0	1	732.794	0.614294	0.614639	0.832479	8	0.676771	11	0	32.6058	0.000511674
2	1	0	0	0	1	735.294	0.626797	0.6271	1.18441	8	0.679276	11	0	35.1062	0.000742743
2	1	0	0	0	1	737.795	0.639299	0.639651	1.61112	8	0.682758	11	0	37.6066	0.00103055
2	1	0	0	0	1	740.295	0.651801	0.652073	2.10438	8	0.687395	11	0	40.107	0.00137221
2	1	0	1	0	1	742.796	0.664303	0.664569	2.65483	8	0.693338	11	0	42.6076	0.00176432
2	1	0	1	0	1	745.296	0.676806	0.677046	3.24856	8	0.700712	11	0	45.108	0.00219943
2	1	0	1	0	1	747.796	0.689308	0.68965	3.8744	8	0.709614	11	0	47.6084	0.00267198
2	1	0	1	0	1	750.095	0.69916	0.699451	4.38033	8	0.719204	11	0	49.9068	0.00306383
2	1	0	1	0	1	752.595	0.686657	0.686955	3.6791	8	0.729266	11	0	52.4072	0.00252737
2	1	0	0	0	1	755.096	0.674155	0.674448	3.02607	8	0.737631	11	0	54.9078	0.00204092
2	1	0	0	0	1	757.596	0.661653	0.661966	2.43341	8	0.744443	11	0	57.4082	0.00161084
2	1	0	0	0	1	760.097	0.649151	0.649397	1.89246	8	0.749838	11	0	59.9086	0.00122896
2	1	0	0	0	1	762.597	0.636648	0.636992	1.41713	8	0.753958	11	0	62.409	0.000902699
2	1	0	1	0	1	765.097	0.624146	0.624426	1.00617	8	0.756969	11	0	64.9095	0.000628279
2	1	0	1	0	1	767.598	0.611644	0.611965	0.672557	8	0.759051	11	0	67.41	0.000411582
2	1	0	1	0	1	770.098	0.599142	0.59945	0.420754	8	0.760401	11	0	69.9104	0.000252221
2	1	0	1	0	1	772.599	0.58664	0.58692	0.241244	8	0.761212	11	0	72.4108	0.000141591
2	1	0	1	0	1	775.099	0.574137	0.574511	0.119788	8	0.761651	11	0	74.9112	6.88194e-05
2	1	0	0	0	1	777.6	0.561635	0.561931	0.0437554	8	0.761849	11	0	77.4118	2.45875e-05
2	1	0	0	0	1	780.1	0.549133	0.549437	-0.000380586	8	0.761898	11	0	0.000000000000000E+000	-2.09108e-07
2	0	0	0	0	1	782.601	0.536631	0.536939	-0.0268231	8	0.761859	11	0	2.4004	-1.44024e-05
2	0	0	0	0	1	785.101	0.524128	0.524443	-0.0445441	8	0.761768	11	0	4.9008	-2.33609e-05
2	0	0	1	0	1	787.601	0.511626	0.511949	-0.054991	8	0.761644	11	0	7.4013	-2.81526e-05
2	0	0	1	0	1	790.102	0.499124	0.499481	-0.059829	8	0.761501	11	0	9.9018	-2.98834e-05
2	0	0	1	0	1	792.602	0.486622	0.486927	-0.0643363	8	0.761343	11	0	12.4022	-3.13271e-05
2	0	0	1	0	1	795.103	0.47412	0.47444	-0.0701808	8	0.761175	11	0	14.9026	-3.32965e-05
2	0	0	1	0	1	797.603	0.461617	0.461954	-0.0735505	8	0.760997	11	0	17.403	-3.3977e-05
2	0	0	1	0	0	799.977	0.450265	0.450541	-0.0433801	9	0.760822	11	0	19.7768	-1.95445e-05
2	1	0	1	0	0	802.477	0.462768	0.463091	0.0652842	9	0.760957	11	0	2.3004	3.02325e-05
2	1	0	1	0	0	804.978	0.47527	0.475629	0.0647978	9	0.761118	11	0	4.8008	3.08197e-05
2	1	0	1	0	0	807.478	0.487772	0.488065	0.0647041	9	0.761282	11	0	7.3012	3.15798e-05
2	1	0	1	0	0	809.979	0.500274	0.500599	0.0676453	9	0.761447	11	0	9.8017	3.38632e-05
2	1	0	0	0	0	812.479	0.512776	0.513092	0.0713215	9	0.761618	11	0	12.3022	3.65944e-05
2	1	0	0	0	0	814.98	0.525279	0.5256	0.0760292	9	0.761801	11	0	14.8026	3.99609e-05
2	1	0	0	0	0	817.48	0.537781	0.538114	0.0897726	9	0.762009	11	0	17.303	4.83079e-05
2	1	0	0	0	0	819.98	0.550283	0.550591	0.11523	9	0.762262	11	0	19.8034	6.34449e-05
2	1	0	1	0	0	822.481	0.562785	0.563126	0.155858	9	0.762595	11	0	22.304	8.77675e-05
2	1	0	1	0	0	824.981	0.575287	0.575585	0.228234	9	0.76307	11	0	24.8044	0.000131368
2	1	0	1	0	0	827.482	0.58779	0.588081	0.34869	9	0.763781	11	0	27.3048	0.000205058
2	1	0	1	0	0	829.982	0.600292	0.600622	0.529265	9	0.764863	11	0	29.8052	0.000317888
2	1	0	1	0	0	832.483	0.612794	0.613048	0.787	9	0.766495	11	0	32.3056	0.000482468
2	1	0	0	0	0	834.983	0.625296	0.625575	1.12875	9	0.768875	11	0	34.8062	0.000706116
2	1	0	0	0	0	837.484	0.637799	0.638111	1.54618	9	0.772205	11	0	37.3066	0.000986632
2	1	0	0	0	0	839.984	0.650301	0.650647	2.0311	9	0.776668	11	0	39.807	0.00132153
2	1	0	0	0	0	842.484	0.662803	0.663094	2.57483	9	0.782419	11	0	42.3074	0.00170736
2	1	0	1	0	0	844.985	0.675305	0.67562	3.16766	9	0.789592	11	0	44.808	0.00214014
2	1	0	1	0	0	847.485	0.687808	0.688127	3.79053	9	0.798287	11	0	47.3084	0.00260837
2	1	0	1	0	0	849.919	0.699985	0.700294	4.43484	9	0.808285	11	0	49.7418	0.00310569
2	1	0	1	0	0	852.284	0.688158	0.688441	3.75513	9	0.817942	11	0	52.1072	0.00258518
2	1	0	1	0	0	854.785	0.675655	0.675982	3.09736	9	0.826494	11	0	54.6076	0.00209376
2	1	0	0	0	0	857.285	0.663153	0.663449	2.48929	9	0.833461	11	0	57.1082	0.00165152
2	1	0	0	0	0	859.786	0.650651	0.650955	1.94102	9	0.838988	11	0	59.6086	0.00126351
2	1	0	0	0	0	862.286	0.638149	0.638463	1.45721	9	0.843221	11	0	62.109	0.000930376
2	1	0	0	0	0	864.786	0.625646	0.625911	1.03888	9	0.846322	11	0	64.6094	0.000650246
2	1	0	1	0	0	867.287	0.613144	0.61346	0.696339	9	0.848474	11	0	67.1099	0.000427176
2	1	0	1	0	0	869.787	0.600642	0.600921	0.437351	9	0.849875	11	0	69.6104	0.000262814
2	1	0	1	0	0	872.288	0.58814	0.588426	0.252945	9	0.850722	11	0	72.1108	0.00014884
2	1	0	1	0	0	874.788	0.575638	0.575922	0.127268	9	0.851184	11	0	74.6112	7.32963e-05
2	1	0	1	0	0	877.289	0.563135	0.563432	0.0487995	9	0.851399	11	0	77.1116	2.74952e-05
2	1	0	0	0	0	879.789	0.550633	0.550957	0.0032498	9	0.851458	11	0	79.6122	1.7905e-06
2	0	0	0	0	0	882.29	0.538131	0.538402	-0.0254978	9	0.851426	11	0	2.2004	-1.37281e-05
2	0	0	0	0	0	884.79	0.525629	0.525951	-0.0438851	9	0.851338	11	0	4.7008	-2.30814e-05
2	0	0	0	0	0	887.29	0.513127	0.513442	-0.0526994	9	0.851217	11	0	7.2012	-2.70581e-05
2	0	0	1	0	0	889.791	0.500624	0.500934	-0.0586902	9	0.851075	11	0	9.7017	-2.93999e-05
2	0	0	1	0	0	892.291	0.488122	0.488425	-0.065231	9	0.85092	11	0	12.2022	-3.18604e-05
2	0	0	1	0	0	894.792	0.47562	0.475942	-0.0691699	9	0.850753	11	0	14.7026	-3.29208e-05
2	0	0	1	0	0	897.292	0.463118	0.46339	-0.0710391	9	0.850577	11	0	17.203	-3.29188e-05
2	0	0	1	0	0	899.793	0.450615	0.450901	-0.0756784	9	0.850392	11	0	19.7034	-3.41234e-05
2	1	0	1	0	1	902.166	0.461267	0.461565	0.062538	10	0.850495	11	0	2.0003	2.88654e-05
2	1	0	1	0	1	904.667	0.47377	0.474071	0.0642106	10	0.850656	11	0	4.5008	3.04404e-05
2	1	0	1	0	1	907.167	0.486272	0.48655	0.0663373	10	0.850819	11	0	7.0012	3.22764e-05
2	1	0	1	0	1	909.668	0.498774	0.49905	0.0658402	10	0.850983	11	0	9.5016	3.28576e-05
2	1	0	1	0	1	912.168	0.511276	0.511593	0.0681774	10	0.851152	11	0	12.002	3.48791e-05
2	1	0	0	0	1	914.669	0.523778	0.524072	0.0764057	10	0.851332	11	0	14.5026	4.00421e-05
2	1	0	0	0	1	917.169	0.536281	0.536591	0.0871545	10	0.851534	11	0	17.003	4.67663e-05
2	1	0	0	0	1	919.669	0.548783	0.549085	0.108033	10	0.851777	11	0	19.5034	5.93191e-05
2	1	0	0	0	1	922.17	0.561285	0.561573	0.148909	10	0.852095	11	0	22.0038	8.36232e-05
2	1	0	1	0	1	924.67	0.573787	0.574133	0.215678	10	0.852543	11	0	24.5043	0.000123828
2	1	0	1	0	1	927.171	0.586289	0.586649	0.325188	10	0.853211	11	0	27.0048	0.000190771
2	1	0	1	0	1	929.671	0.598792	0.599113	0.498533	10	0.854228	11	0	29.5052	0.000298678
2	1	0	1	0	1	932.172	0.611294	0.611601	0.745019	10	0.855765	11	0	32.0056	0.000455655
2	1	0	1	0	1	934.672	0.623796	0.624117	1.0714	10	0.858022	11	0	34.506	0.000668681
2	1	0	0	0	1	937.173	0.636298	0.636629	1.47959	10	0.861198	11	0	37.0066	0.000941948
2	1	0	0	0	1	939.673	0.648801	0.649086	1.95594	10	0.865481	11	0	39.507	0.00126957
2	1	0	0	0	1	942.173	0.661303	0.661609	2.48838	10	0.871029	11	0	42.0074	0.00164634
2	1	0	0	0	1	944.674	0.673805	0.674083	3.0702	10	0.877974	11	0	44.5078	0.00206957
2	1	0	1	0	1	947.174	0.686307	0.686615	3.68817	10	0.886418	11	0	47.0084	0.00253235
2	1	0	1	0	1	949.675	0.698809	0.699117	4.33443	10	0.896444	11	0	49.5088	0.00303027
2	1	0	1	0	1	951.973	0.689658	0.689953	3.80362	10	0.905914	11	0	51.8072	0.00262432
2	1	0	1	0	1	954.474	0.677156	0.677432	3.14468	10	0.914587	11	0	54.3076	0.0021303
2	1	0	1	0	1	956.974	0.664653	0.664902	2.53435	10	0.921672	11	0	56.808	0.0016851
2	1	0	0	0	1	959.475	0.652151	0.652447	1.97784	10	0.927301	11	0	59.3086	0.00129044
2	1	0	0	0	1	961.975	0.639649	0.639936	1.48582	10	0.931615	11	0	61.809	0.000950829
2	1	0	0	0	1	964.475	0.627147	0.627458	1.06397	10	0.934784	11	0	64.3094	0.000667598
2	1	0	0	0	1	966.976	0.614645	0.614938	0.717652	10	0.936993	11	0	66.8098	0.000441312
2	1	0	0	0	1	969.476	0.602142	0.602486	0.453926	10	0.938442	11	0	69.3102	0.000273484
2	1	0	1	0	1	971.977	0.58964	0.589971	0.26431	10	0.939323	11	0	71.8108	0.000155935
2	1	0	1	0	1	974.477	0.577138	0.577475	0.134453	10	0.93981	11	0	74.3112	7.7643e-05
2	1	0	1	0	1	976.978	0.564636	0.564972	0.0549416	10	0.940039	11	0	76.8116	3.10405e-05
2	1	0	1	0	1	979.478	0.552133	0.552416	0.00638515	10	0.940109	11	0	79.312	3.52726e-06
2	0	0	1	0	1	981.978	0.539631	0.539912	-0.0248745	10	0.940082	11	0	2.1003	-1.34301e-05
2	0	0	0	0	1	984.479	0.527129	0.527472	-0.0409652	10	0.939999	11	0	4.6008	-2.1608e-05
2	0	0	0	0	1	986.979	0.514627	0.514958	-0.0510771	10	0.939881	11	0	7.1012	-2.63026e-05
2	0	0	0	0	1	989.48	0.502125	0.502479	-0.0600797	10	0.939742	11	0	9.6016	-3.01888e-05
2	0	0	0	0	1	991.98	0.489622	0.489932	-0.063431	10	0.939588	11	0	12.102	-3.10769e-05
2	0	0	1	0	1	994.481	0.47712	0.477423	-0.066764	10	0.939423	11	0	14.6026	-3.18747e-05
2	0	0	1	0	1	996.981	0.464618	0.464895	-0.0724531	10	0.939248	11	0	17.103	-3.3683e-05
2	0	0	1	0	1	999.482	0.452116	0.452393	-0.0747608	10	0.939065	11	0	19.6034	-3.38212e-05
2	1	0	0	0	0	1001.86	0.459767	0.460011	0.0640638	11	0.939127	11	0	1.7002	2.947e-05
2	1	0	1	0	0	1004.36	0.472269	0.472503	0.0641012	11	0.939288	11	0	4.2007	3.0288e-05
2	1	0	1	0	0	1006.86	0.484771	0.485046	0.0638988	11	0.93945	11	0	6.7012	3.09938e-05
2	1	0	1	0	0	1009.36	0.497274	0.497565	0.0666246	11	0.939613	11	0	9.2016	3.315e-05
2	1	0	1	0	0	1011.86	0.509776	0.510079	0.0684524	11	0.939781	11	0	11.702	3.49162e-05
2	1	0	1	0	0	1014.36	0.522278	0.522524	0.0725592	11	0.939958	11	0	14.2024	3.79139e-05
2	1	0	0	0	0	1016.86	0.53478	0.535048	0.0847857	11	0.940155	11	0	16.703	4.53644e-05
2	1	0	0	0	0	1019.36	0.547283	0.547597	0.105846	11	0.940389	11	0	19.2034	5.79609e-05
2	1	0	0	0	0	1021.86	0.559785	0.560072	0.139899	11	0.940692	11	0	21.7038	7.83536e-05
2	1	0	0	0	0	1024.36	0.572287	0.57256	0.202198	11	0.941115	11	0	24.2042	0.000115771
2	1	0	1	0	0	1026.86	0.584789	0.585108	0.30738	11	0.941742	11	0	26.7047	0.000179851
2	1	0	1	0	0	1029.36	0.597291	0.597618	0.467062	11	0.942696	11	0	29.2052	0.000279125
2	1	0	1	0	0	1031.86	0.609794	0.610087	0.70117	11	0.944142	11	0	31.7056	0.000427775
2	1	0	1	0	0	1034.36	0.622296	0.622593	1.01883	11	0.946277	11	0	34.206	0.000634318
2	1	0	1	0	0	1036.86	0.634798	0.635104	1.41347	11	0.949302	11	0	36.7064	0.000897698
2	1	0	0	0	0	1039.36	0.6473	0.647604	1.88002	11	0.95341	11	0	39.207	0.00121751
2	1	0	0	0	0	1041.86	0.659802	0.660083	2.40921	11	0.958764	11	0	41.7074	0.00159028
2	1	0	0	0	0	1044.36	0.672305	0.67262	2.98389	11	0.965499	11	0	44.2078	0.00200702
2	1	0	0	0	0	1046.86	0.684807	0.685053	3.59744	11	0.973725	11	0	46.7082	0.00246443
2	1	0	1	0	0	1049.36	0.697309	0.697681	4.24447	11	0.983527	11	0	49.2087	0.00296129
2	1	0	1	0	0	1051.66	0.691158	0.691425	3.87498	11	0.993104	11	0	51.5072	0.00267926
2	1	0	1	0	0	1054.16	0.678656	0.679012	3.20718	11	1.00195	11	0	54.0076	0.00217771
2	1	0	1	0	0	1056.66	0.666154	0.666458	2.59528	11	1.00919	11	0	56.508	0.00172965
2	1	0	1	0	0	1059.16	0.653651	0.653892	2.03791	11	1.01496	11	0	59.0084	0.00133257
2	1	0	1	0	0	1061.66	0.641149	0.641418	1.53708	11	1.01942	11	0	61.5089	0.000985909
2	1	0	0	0	0	1064.16	0.628647	0.628949	1.10815	11	1.02271	11	0	64.0094	0.000696973
2	1	0	0	0	0	1066.66	0.616145	0.616428	0.753017	11	1.02501	11	0	66.5098	0.000464181
2	1	0	0	0	0	1069.17	0.603643	0.603991	0.477002	11	1.02653	11	0	69.0102	0.000288105
2	1	0	0	0	0	1071.67	0.59114	0.591428	0.28131	11	1.02747	11	0	71.5106	0.000166375
2	1	0	1	0	0	1074.17	0.578638	0.578946	0.147904	11	1.02799	11	0	74.0112	8.56285e-05
2	1	0	1	0	0	1076.67	0.566136	0.56647	0.0608244	11	1.02824	11	0	76.5116	3.44552e-05
2	1	0	1	0	0	1079.17	0.553634	0.553925	0.0101491	11	1.02833	11	0	79.012	5.62182e-06
2	0	0	1	0	0	1081.67	0.541131	0.541421	-0.0196529	11	1.02831	11	0	1.7002	-1.06405e-05
2	0	0	1	0	0	1084.17	0.52863	0.52891	-0.0398353	11	1.02823	11	0	4.2007	-2.10693e-05
2	0	0	0	0	0	1086.67	0.516127	0.516418	-0.0517017	11	1.02812	11	0	6.7012	-2.66997e-05
2	0	0	0	0	0	1089.17	0.503625	0.503968	-0.0571988	11	1.02798	11	0	9.2016	-2.88264e-05
2	0	0	0	0	0	1091.67	0.491123	0.491392	-0.062598	11	1.02783	11	0	11.702	-3.07601e-05
2	0	0	0	0	0	1094.17	0.47862	0.478945	-0.0682362	11	1.02766	11	0	14.2024	-3.26814e-05
2	0	0	1	0	0	1096.67	0.466118	0.466383	-0.0706964	11	1.02749	11	0	16.703	-3.29716e-05
2	0	0	1	0	0	1099.17	0.453616	0.453896	-0.0731858	11	1.02731	11	0	19.2034	-3.32187e-05
2	1	0	0	0	1	1101.54	0.458267	0.458571	0.0625021	12	1.02733	11	0	1.4002	2.86616e-05
2	1	0	0	0	1	1104.04	0.470769	0.471109	0.0630131	12	1.02749	11	0	3.9006	2.9686e-05
2	1	0	0	0	1	1106.54	0.483271	0.483562	0.0646912	12	1.02765	11	0	6.401	3.12822e-05
2	1	0	1	0	1	1109.05	0.495773	0.496057	0.0666161	12	1.02781	11	0	8.9016	3.30454e-05
2	1	0	1	0	1	1111.55	0.508276	0.508564	0.067212	12	1.02798	11	0	11.402	3.41816e-05
2	1	0	1	0	1	1114.05	0.520778	0.521099	0.0719062	12	1.02816	11	0	13.9024	3.74702e-05
2	1	0	1	0	1	1116.55	0.53328	0.533605	0.0835583	12	1.02835	11	0	16.4028	4.45871e-05
2	1	0	0	0	1	1119.05	0.545782	0.546104	0.101401	12	1.02858	11	0	18.9034	5.53756e-05
2	1	0	0	0	1	1121.55	0.558285	0.558588	0.132959	12	1.02887	11	0	21.4038	7.42691e-05
2	1	0	0	0	1	1124.05	0.570787	0.571122	0.191755	12	1.02927	11	0	23.9042	0.000109516
2	1	0	0	0	1	1126.55	0.583289	0.583627	0.288891	12	1.02986	11	0	26.4046	0.000168604
2	1	0	0	0	1	1129.05	0.595791	0.5961	0.438609	12	1.03075	11	0	28.905	0.000261455
2	1	0	1	0	1	1131.55	0.608293	0.608658	0.662386	12	1.03212	11	0	31.4056	0.000403166
2	1	0	1	0	1	1134.05	0.620796	0.621076	0.967792	12	1.03414	11	0	33.906	0.000601073
2	1	0	1	0	1	1136.55	0.633298	0.63361	1.35055	12	1.03702	11	0	36.4064	0.00085572
2	1	0	1	0	1	1139.05	0.6458	0.646033	1.80581	12	1.04096	11	0	38.9068	0.00116662
2	1	0	0	0	1	1141.55	0.658302	0.658572	2.32861	12	1.04612	11	0	41.4074	0.00153355
2	1	0	0	0	1	1144.05	0.670804	0.671076	2.90167	12	1.05265	11	0	43.9078	0.00194724
2	1	0	0	0	1	1146.55	0.683307	0.683591	3.50937	12	1.06066	11	0	46.4082	0.00239897
2	1	0	0	0	1	1149.05	0.695809	0.696033	4.14846	12	1.07023	11	0	48.9086	0.00288747
2	1	0	0	0	1	1151.35	0.692658	0.693001	3.94317	12	1.07986	11	0	51.207	0.00273262
2	1	0	1	0	1	1153.85	0.680156	0.680459	3.27479	12	1.08887	11	0	53.7076	0.00222836
2	1	0	1	0	1	1156.35	0.667654	0.667928	2.65536	12	1.09627	11	0	56.208	0.00177359
2	1	0	1	0	1	1158.85	0.655152	0.655536	2.08761	12	1.10219	11	0	58.7084	0.00136851
2	1	0	1	0	1	1161.35	0.642649	0.642891	1.5797	12	1.10675	11	0	61.2088	0.00101557
2	1	0	1	0	1	1163.85	0.630147	0.630405	1.14114	12	1.11014	11	0	63.7092	0.000719378
2	1	0	0	0	1	1166.35	0.617645	0.617977	0.784631	12	1.11253	11	0	66.2098	0.000484884
2	1	0	0	0	1	1168.85	0.605143	0.60544	0.504657	12	1.11412	11	0	68.7102	0.00030554
2	1	0	0	0	1	1171.35	0.592641	0.59298	0.29716	12	1.11511	11	0	71.2106	0.00017621
2	1	0	0	0	1	1173.85	0.580138	0.580474	0.15834	12	1.11566	11	0	73.711	9.19124e-05
2	1	0	1	0	1	1176.36	0.567636	0.567937	0.0699579	12	1.11594	11	0	76.2116	3.97317e-05
2	1	0	1	0	1	1178.86	0.555134	0.555433	0.0137161	12	1.11604	11	0	78.712	7.6184e-06
2	0	0	1	0	1	1181.36	0.542632	0.542908	-0.0193015	12	1.11603	11	0	1.4002	-1.04789e-05
2	0	0	1	0	1	1183.86	0.530129	0.530427	-0.037073	12	1.11595	11	0	3.9006	-1.96645e-05
2	0	0	1	0	1	1186.36	0.517627	0.517926	-0.0494336	12	1.11584	11	0	6.4011	-2.5603e-05
2	0	0	0	0	1	1188.86	0.505125	0.505443	-0.0583757	12	1.11571	11	0	8.9016	-2.95056e-05
2	0	0	0	0	1	1191.36	0.492623	0.492905	-0.0622894	12	1.11556	11	0	11.402	-3.07027e-05
2	0	0	0	0	1	1193.86	0.480121	0.480454	-0.0653492	12	1.1154	11	0	13.9024	-3.13973e-05
2	0	0	0	0	1	1196.36	0.467618	0.467942	-0.0709661	12	1.11523	11	0	16.4028	-3.3208e-05
2	0	0	1	0	1	1198.86	0.455116	0.455402	-0.0743509	12	1.11505	11	0	18.9034	-3.38595e-05
2	1	0	0	0	0	1201.23	0.456766	0.457081	0.0615022	13	1.11503	11	0	1.1002	2.81115e-05
2	1	0	0	0	0	1203.73	0.469269	0.46952	0.0645245	13	1.11518	11	0	3.6006	3.02955e-05
2	1	0	0	0	0	1206.23	0.481771	0.482045	0.0631763	13	1.11534	11	0	6.101	3.04538e-05
2	1	0	0	0	0	1208.73	0.494273	0.494576	0.0649298	13	1.11551	11	0	8.6014	3.21127e-05
2	1	0	1	0	0	1211.23	0.506775	0.507113	0.0682053	13	1.11567	11	0	11.102	3.45878e-05
2	1	0	1	0	0	1213.74	0.519278	0.519563	0.0710358	13	1.11584	11	0	13.6024	3.69076e-05
2	1	0	1	0	0	1216.24	0.53178	0.532079	0.0799747	13	1.11603	11	0	16.1028	4.25528e-05
2	1	0	1	0	0	1218.74	0.544282	0.544616	0.0985471	13	1.11625	11	0	18.6032	5.36703e-05
2	1	0	1	0	0	1221.24	0.556784	0.557123	0.127343	13	1.11653	11	0	21.1037	7.09457e-05
2	1	0	0	0	0	1223.74	0.569286	0.569558	0.179772	13	1.11691	11	0	23.6042	0.000102391
2	1	0	0	0	0	1226.24	0.581789	0.582111	0.271038	13	1.11746	11	0	26.1046	0.000157774
2	1	0	0	0	0	1228.74	0.594291	0.594569	0.412312	13	1.11831	11	0	28.605	0.000245148
2	1	0	0	0	0	1231.24	0.606793	0.607077	0.623526	13	1.11959	11	0	31.1054	0.000378529
2	1	0	1	0	0	1233.74	0.619295	0.619578	0.917679	13	1.1215	11	0	33.606	0.000568574
2	1	0	1	0	0	1236.24	0.631798	0.632106	1.28979	13	1.12424	11	0	36.1064	0.000815285
2	1	0	1	0	0	1238.74	0.6443	0.644592	1.73613	13	1.12802	11	0	38.6068	0.00111909
2	1	0	1	0	0	1241.24	0.656802	0.657085	2.24861	13	1.13299	11	0	41.1072	0.00147753
2	1	0	0	0	0	1243.74	0.669304	0.669566	2.81104	13	1.13931	11	0	43.6078	0.00188218
2	1	0	0	0	0	1246.24	0.681806	0.68212	3.41268	13	1.14708	11	0	46.1082	0.00232786
2	1	0	0	0	0	1248.74	0.694309	0.694651	4.04895	13	1.15641	11	0	48.6086	0.00281261
2	1	0	0	0	0	1251.04	0.694159	0.694482	4.00628	13	1.16602	11	0	50.907	0.00278229
2	1	0	0	0	0	1253.54	0.681656	0.681896	3.33512	13	1.17519	11	0	53.4074	0.00227421
2	1	0	1	0	0	1256.04	0.669154	0.669432	2.71307	13	1.18274	11	0	55.9079	0.00181621
2	1	0	1	0	0	1258.54	0.656652	0.65696	2.14044	13	1.18879	11	0	58.4084	0.00140618
2	1	0	1	0	0	1261.04	0.64415	0.644414	1.62654	13	1.19348	11	0	60.9088	0.00104817
2	1	0	1	0	0	1263.54	0.631647	0.631936	1.18508	13	1.19698	11	0	63.4092	0.000748894
2	1	0	1	0	0	1266.04	0.619145	0.619416	0.817263	13	1.19947	11	0	65.9096	0.000506225
2	1	0	0	0	0	1268.54	0.606643	0.606983	0.526655	13	1.20113	11	0	68.4102	0.00031967
2	1	0	0	0	0	1271.04	0.594141	0.594395	0.315107	13	1.20217	11	0	70.9106	0.000187298
2	1	0	0	0	0	1273.54	0.581639	0.581906	0.168354	13	1.20276	11	0	73.411	9.79661e-05
2	1	0	0	0	0	1276.04	0.569136	0.569378	0.0737627	13	1.20305	11	0	75.9114	4.19988e-05
2	1	0	1	0	0	1278.54	0.556634	0.556886	0.0185316	13	1.20316	11	0	78.4119	1.032e-05
2	0	0	1	0	0	1281.05	0.544132	0.544482	-0.0154977	13	1.20316	11	0	1.2002	-8.43819e-06
2	0	0	1	0	0	1283.55	0.53163	0.531913	-0.0376095	13	1.20309	11	0	3.7006	-2.0005e-05
2	0	0	1	0	0	1286.05	0.519127	0.51946	-0.048083	13	1.20298	11	0	6.201	-2.49772e-05
2	0	0	1	0	0	1288.55	0.506625	0.506928	-0.0556585	13	1.20285	11	0	8.7014	-2.82149e-05
2	0	0	0	0	0	1291.05	0.494123	0.494413	-0.0628975	13	1.2027	11	0	11.202	-3.10973e-05
2	0	0	0	0	0	1293.55	0.481621	0.481897	-0.0658776	13	1.20254	11	0	13.7024	-3.17462e-05
2	0	0	0	0	0	1296.05	0.469119	0.469407	-0.0684428	13	1.20237	11	0	16.2028	-3.21275e-05
2	0	0	0	0	0	1298.55	0.456616	0.456885	-0.0741157	13	1.20219	11	0	18.7032	-3.38624e-05
2	1	0	1	0	1	1300.92	0.455267	0.455532	0.0587836	14	1.20213	11	0	0.8001	2.67779e-05
2	1	0	0	0	1	1303.42	0.467768	0.468035	0.0645754	14	1.20229	11	0	3.3006	3.02236e-05
2	1	0	0	0	1	1305.92	0.480271	0.480579	0.0638603	14	1.20245	11	0	5.801	3.06899e-05
2	1	0	0	0	1	1308.42	0.492773	0.49311	0.0635919	14	1.20261	11	0	8.3014	3.13578e-05
2	1	0	0	0	1	1310.92	0.505275	0.505593	0.0672996	14	1.20277	11	0	10.8018	3.40263e-05
2	1	0	1	0	1	1313.42	0.517777	0.5181	0.0699725	14	1.20294	11	0	13.3024	3.62527e-05
2	1	0	1	0	1	1315.92	0.53028	0.530529	0.0773313	14	1.20313	11	0	15.8028	4.10265e-05
2	1	0	1	0	1	1318.43	0.542782	0.543081	0.0946132	14	1.20334	11	0	18.3032	5.13827e-05
2	1	0	1	0	1	1320.93	0.555284	0.55562	0.120753	14	1.20361	11	0	20.8036	6.70927e-05
2	1	0	1	0	1	1323.43	0.567786	0.568062	0.169383	14	1.20397	11	0	23.304	9.622e-05
2	1	0	0	0	1	1325.93	0.580288	0.580554	0.253748	14	1.20449	11	0	25.8046	0.000147314
2	1	0	0	0	1	1328.43	0.592791	0.59306	0.385301	14	1.20527	11	0	28.305	0.000228506
2	1	0	0	0	1	1330.93	0.605293	0.605632	0.586202	14	1.20648	11	0	30.8054	0.000355023
2	1	0	0	0	1	1333.43	0.617795	0.618076	0.867461	14	1.20828	11	0	33.3058	0.000536157
2	1	0	1	0	1	1335.93	0.630297	0.630583	1.22632	14	1.21088	11	0	35.8064	0.000773299
2	1	0	1	0	1	1338.43	0.642799	0.643105	1.66277	14	1.21448	11	0	38.3068	0.00106934
2	1	0	1	0	1	1340.93	0.655302	0.655583	2.16559	14	1.21925	11	0	40.8072	0.00141973
2	1	0	1	0	1	1343.43	0.667804	0.668123	2.71878	14	1.22535	11	0	43.3076	0.00181648
2	1	0	1	0	1	1345.93	0.680306	0.680578	3.31569	14	1.23289	11	0	45.8081	0.00225659
2	1	0	0	0	1	1348.43	0.692808	0.693092	3.94744	14	1.24197	11	0	48.3086	0.00273594
2	1	0	0	0	1	1350.73	0.695659	0.695971	4.05975	14	1.25151	11	0	50.607	0.00282547
2	1	0	0	0	1	1353.23	0.683157	0.683472	3.37419	14	1.2608	11	0	53.1074	0.00230616
2	1	0	0	0	1	1355.73	0.670654	0.67096	2.74182	14	1.26843	11	0	55.6078	0.00183966
2	1	0	1	0	1	1358.23	0.658152	0.658421	2.16254	14	1.27454	11	0	58.1083	0.00142386
2	1	0	1	0	1	1360.73	0.64565	0.645925	1.65086	14	1.2793	11	0	60.6088	0.00106633
2	1	0	1	0	1	1363.23	0.633148	0.633408	1.2089	14	1.28285	11	0	63.1092	0.000765727
2	1	0	1	0	1	1365.73	0.620646	0.620959	0.835558	14	1.28539	11	0	65.6096	0.000518847
2	1	0	1	0	1	1368.23	0.608143	0.60839	0.542945	14	1.2871	11	0	68.11	0.000330322
2	1	0	0	0	1	1370.73	0.595641	0.596009	0.327233	14	1.28817	11	0	70.6106	0.000195033
2	1	0	0	0	1	1373.23	0.583139	0.583472	0.176779	14	1.28879	11	0	73.111	0.000103146
2	1	0	0	0	1	1375.73	0.570637	0.570957	0.0824296	14	1.2891	11	0	75.6114	4.70637e-05
2	1	0	0	0	1	1378.23	0.558134	0.558441	0.0216278	14	1.28922	11	0	78.1118	1.20778e-05
2	0	0	1	0	1	1380.73	0.545632	0.545925	-0.0146039	14	1.28923	11	0	1.0001	-7.97263e-06
2	0	0	1	0	1	1383.23	0.53313	0.533444	-0.0336377	14	1.28917	11	0	3.5006	-1.79438e-05
2	0	0	1	0	1	1385.74	0.520628	0.520943	-0.0481121	14	1.28906	11	0	6.001	-2.50637e-05
2	0	0	1	0	1	1388.24	0.508126	0.50844	-0.0559728	14	1.28893	11	0	8.5014	-2.84588e-05
2	0	0	1	0	1	1390.74	0.495623	0.49594	-0.059986	14	1.28878	11	0	11.0018	-2.97495e-05
2	0	0	0	0	1	1393.24	0.483121	0.483452	-0.0660163	14	1.28863	11	0	13.5024	-3.19157e-05
2	0	0	0	0	1	1395.74	0.470619	0.470916	-0.0689312	14	1.28846	11	0	16.0028	-3.24608e-05
2	0	0	0	0	1	1398.24	0.458117	0.458416	-0.0711568	14	1.28828	11	0	18.5032	-3.26194e-05
2	1	0	1	0	0	1400.61	0.453766	0.454056	0.0562359	15	1.28818	11	0	0.5	2.55343e-05
2	1	0	1	0	0	1403.11	0.466268	0.466613	0.0622708	15	1.28834	11	0	3.0004	2.90564e-05
2	1	0	0	0	0	1405.61	0.47877	0.479056	0.0648978	15	1.2885	11	0	5.501	3.10897e-05
2	1	0	0	0	0	1408.11	0.491273	0.491578	0.0640678	15	1.28866	11	0	8.0014	3.14944e-05
2	1	0	0	0	0	1410.61	0.503775	0.504098	0.064961	15	1.28882	11	0	10.5018	3.27467e-05
2	1	0	0	0	0	1413.11	0.516277	0.516574	0.0704405	15	1.28899	11	0	13.0022	3.63877e-05
2	1	0	1	0	0	1415.61	0.528779	0.529116	0.076084	15	1.28917	11	0	15.5027	4.02573e-05
2	1	0	1	0	0	1418.11	0.541281	0.541596	0.0900156	15	1.28938	11	0	18.0032	4.87521e-05
2	1	0	1	0	0	1420.61	0.553784	0.5541	0.117218	15	1.28963	11	0	20.5036	6.49507e-05
2	1	0	1	0	0	1423.11	0.566286	0.566569	0.160442	15	1.28997	11	0	23.004	9.09017e-05
2	1	0	1	0	0	1425.62	0.578788	0.579087	0.2381	15	1.29047	11	0	25.5044	0.00013788
2	1	0	0	0	0	1428.12	0.59129	0.591577	0.364075	15	1.29121	11	0	28.005	0.000215378
2	1	0	0	0	0	1430.62	0.603793	0.604088	0.55197	15	1.29234	11	0	30.5054	0.000333439
2	1	0	0	0	0	1433.12	0.616295	0.616614	0.821205	15	1.29404	11	0	33.0058	0.000506366
2	1	0	0	0	0	1435.62	0.628797	0.629073	1.17163	15	1.29652	11	0	35.5062	0.000737042
2	1	0	1	0	0	1438.12	0.641299	0.641559	1.596	15	1.29996	11	0	38.0068	0.00102393
2	1	0	1	0	0	1440.62	0.653802	0.654075	2.09017	15	1.30456	11	0	40.5072	0.00136713
2	1	0	1	0	0	1443.12	0.666304	0.666602	2.64026	15	1.31047	11	0	43.0076	0.00176
2	1	0	1	0	0	1445.62	0.678806	0.679053	3.23124	15	1.3178	11	0	45.508	0.00219418
2	1	0	1	0	0	1448.12	0.691308	0.691589	3.86131	15	1.32667	11	0	48.0084	0.00267044
2	1	0	0	0	0	1450.42	0.697159	0.697395	4.14758	15	1.33614	11	0	50.307	0.0028925
2	1	0	0	0	0	1452.92	0.684657	0.684954	3.45976	15	1.34564	11	0	52.8074	0.00236978
2	1	0	0	0	0	1455.42	0.672155	0.67246	2.823	15	1.35348	11	0	55.3078	0.00189836
2	1	0	0	0	0	1457.92	0.659653	0.659954	2.24107	15	1.3598	11	0	57.8082	0.001479
2	1	0	0	0	0	1460.42	0.64715	0.647419	1.71317	15	1.36473	11	0	60.3086	0.00110914
2	1	0	1	0	0	1462.92	0.634648	0.63491	1.25632	15	1.36842	11	0	62.8092	0.000797653
2	1	0	1	0	0	1465.42	0.622146	0.622428	0.8753	15	1.37107	11	0	65.3096	0.000544811
2	1	0	1	0	0	1467.92	0.609644	0.609926	0.570066	15	1.37286	11	0	67.81	0.000347698
2	1	0	1	0	0	1470.42	0.597141	0.597472	0.343127	15	1.37398	11	0	70.3104	0.000205009
2	1	0	1	0	0	1472.92	0.584639	0.584972	0.189137	15	1.37464	11	0	72.8109	0.00011064
2	1	0	0	0	0	1475.42	0.572137	0.572456	0.0879644	15	1.37497	11	0	75.3114	5.03557e-05
2	1	0	0	0	0	1477.92	0.559635	0.559932	0.0241998	15	1.3751	11	0	77.8118	1.35502e-05
2	0	0	0	0	0	1480.42	0.547132	0.547446	-0.010969	15	1.37512	11	0	0.8001	-6.00492e-06
2	0	0	0	0	0	1482.92	0.53463	0.534927	-0.0327079	15	1.37506	11	0	3.3005	-1.74963e-05
2	0	0	1	0	0	1485.42	0.522128	0.522431	-0.0476958	15	1.37496	11	0	5.8011	-2.49178e-05
2	0	0	1	0	0	1487.92	0.509626	0.509942	-0.0548525	15	1.37483	11	0	8.3015	-2.79716e-05
2	0	0	1	0	0	1490.42	0.497124	0.497455	-0.0599468	15	1.37468	11	0	10.8019	-2.98208e-05
2	0	0	1	0	0	1492.93	0.484621	0.484925	-0.0660663	15	1.37452	11	0	13.3023	-3.20372e-05
2	0	0	1	0	0	1495.43	0.47212	0.472449	-0.0680249	15	1.37436	11	0	15.8028	-3.21383e-05
2	0	0	0	0	0	1497.93	0.459617	0.459917	-0.0716159	15	1.37418	11	0	18.3033	-3.29374e-05
2	0	0	1	0	0	1499.84	0.44999	0.450295	-0.0814315	15	1.37404	11	0	20.2217	-3.66682e-05