File: ACS_Catal_2026/Figures_Na_K/main_figures/data/EC/20240126_2-102_Add_Na/20240125_2-102_001_preconditioning_elctrode1_01_CVA_C01.mpt
EC-Lab ASCII FILE
Nb header lines : 66

Cyclic Voltammetry Advanced

Run on channel : 1 (SN 66412)
User :
CE vs. WE compliance from -10 V to 10 V
Electrode connection : standard
Potential control : Ewe
Ewe ctrl range : min = -1.00 V, max = 1.00 V
Safety Limits :
	Do not start on E overload
Acquisition started on : 01/26/2024 15:44:18.212
Loaded Setting File :  C:\Users\NakamuraT\Documents\EC-Lab\Data\Yatsuzuka\20240125_2-101_K_new_condition\20240125_2-101_001_preconditioning_EIS_elctrode1.mps
Saved on :
	File : 20240125_2-102_001_preconditioning_elctrode1_01_CVA_C01.mpr
	Directory : C:\Users\NakamuraT\Documents\EC-Lab\Data\Yatsuzuka\20240126_2-102_Add_Na\
	Host : 192.109.209.100
Device : SP-150e (SN .003411)
Address : 192.109.209.236
EC-Lab for windows v11.50 (software)
Internet server v11.50 (firmware)
Command interpretor v11.50 (firmware)
Electrode material :
Initial state :
Electrolyte :
Comments :
Electrode surface area : 0.001 cm2
Characteristic mass : 0.001 g
Equivalent Weight : 0.000 g/eq.
Density : 0.000 g/cm3
Volume (V) : 0.001 cm3
Cycle Definition : Charge/Discharge alternance
Ei (V)              0.350
vs.                 Ref
ti (h:m:s)          0:00:10.0000
dti (s)             1.0000
dE/dt               10.000
dE/dt unit          mV/s
E1 (V)              0.450
vs.                 Ref
t1 (h:m:s)          0:00:0.0000
dt1 (s)             0.1000
Step percent        50
N                   10
E range min (V)     -1.000
E range max (V)     1.000
I Range             Auto
I Range min         Unset
I Range max         Unset
I Range init        Unset
Bandwidth           5
E2 (V)              0.350
vs.                 Ref
t2 (h:m:s)          0:00:0.0000
dt2 (s)             0.1000
nc cycles           9
nr                  1
Reverse Scan        0
Ef (V)              0.000
vs.                 Eoc
tf (h:m:s)          0:00:0.0000
dtf (s)             0.1000

mode	ox/red	error	control changes	Ns changes	counter inc.	time/s	control/V	Ewe/V	<I>/mA	cycle number	(Q-Qo)/C	I Range	Ns	step time/s	P/W
2	1	0	0	0	0	0.000000000000000E+000	0.350023	0.350415	13.6085	1	0.0000000E+000	10	0	0.000000000000000E+000	0.00476864
2	1	0	0	0	0	7	0.350023	0.350339	0.215874	1	0.0138041	12	0	6	7.5629e-05
2	1	0	1	0	0	10.1825	0.351798	0.352095	0.253095	1	0.0143078	12	0	9.1825	8.91136e-05
2	1	0	1	0	0	10.5325	0.355298	0.355566	0.387014	1	0.0144229	12	0	9.5325	0.000137609
2	1	0	1	0	0	10.8825	0.358799	0.359104	0.440544	1	0.0145685	12	0	9.8825	0.000158201
2	1	0	1	0	0	11.2327	0.3623	0.362585	0.462762	1	0.014728	12	0	10.2327	0.000167791
2	1	0	1	0	0	11.5827	0.3658	0.366088	0.476693	1	0.0148933	12	0	10.5827	0.000174511
2	1	0	1	0	0	11.9327	0.369301	0.369568	0.484344	1	0.0150613	12	0	10.9327	0.000178998
2	1	0	1	0	0	12.2829	0.372802	0.373126	0.485173	1	0.0152304	12	0	11.2829	0.000181031
2	1	0	1	0	0	12.6329	0.376302	0.376542	0.482311	1	0.0154001	12	0	11.6329	0.00018161
2	1	0	1	0	0	12.9829	0.379803	0.380072	0.484245	1	0.01557	12	0	11.9829	0.000184048
2	1	0	1	0	0	13.3329	0.383303	0.383598	0.48719	1	0.0157396	12	0	12.3329	0.000186885
2	1	0	1	0	0	13.6831	0.386804	0.387145	0.485296	1	0.0159092	12	0	12.6831	0.00018788
2	1	0	1	0	0	14.0331	0.390305	0.390571	0.480761	1	0.0160785	12	0	13.0331	0.000187771
2	1	0	1	0	0	14.3831	0.393805	0.394099	0.480349	1	0.0162475	12	0	13.3831	0.000189305
2	1	0	1	0	0	14.7333	0.397306	0.3976	0.482993	1	0.0164159	12	0	13.7333	0.000192038
2	1	0	1	0	0	15.0833	0.400807	0.401071	0.480786	1	0.0165839	12	0	14.0833	0.000192829
2	1	0	1	0	0	15.4333	0.404307	0.404594	0.475648	1	0.0167514	12	0	14.4333	0.000192444
2	1	0	1	0	0	15.7835	0.407808	0.408073	0.473246	1	0.0169183	12	0	14.7835	0.000193119
2	1	0	1	0	0	16.1335	0.411308	0.411632	0.477051	1	0.0170845	12	0	15.1335	0.000196369
2	1	0	1	0	0	16.4835	0.414809	0.415123	0.473842	1	0.0172502	12	0	15.4835	0.000196702
2	1	0	1	0	0	16.8337	0.41831	0.418621	0.468194	1	0.0174151	12	0	15.8337	0.000195996
2	1	0	1	0	0	17.1837	0.42181	0.422057	0.464685	1	0.0175791	12	0	16.1837	0.000196123
2	1	0	1	0	0	17.5337	0.425311	0.425602	0.466476	1	0.0177423	12	0	16.5337	0.000198533
2	1	0	1	0	0	17.8838	0.428811	0.429138	0.464906	1	0.0179045	12	0	16.8838	0.000199509
2	1	0	1	0	0	18.2339	0.432312	0.432599	0.45958	1	0.0180662	12	0	17.2339	0.000198814
2	1	0	1	0	0	18.5839	0.435813	0.43617	0.455617	1	0.018227	12	0	17.5839	0.000198727
2	1	0	1	0	0	18.9339	0.439313	0.439582	0.456837	1	0.018387	12	0	17.9339	0.000200817
2	1	0	1	0	0	19.2841	0.442814	0.443052	0.457099	1	0.0185464	12	0	18.2841	0.000202519
2	1	0	1	0	0	19.6341	0.446315	0.446615	0.452047	1	0.018705	12	0	18.6341	0.000201891
2	1	0	1	0	0	19.9791	0.449765	0.450078	0.44743	1	0.0188609	12	0	18.9791	0.000201378
2	1	0	1	0	0	20.2779	0.447215	0.447512	0.139653	1	0.0189441	12	0	19.2779	6.24964e-05
2	0	0	1	0	0	20.6579	0.443414	0.443696	-0.0162833	1	0.0189623	13	0	0.000000000000000E+000	-7.22484e-06
2	0	0	1	0	0	21.008	0.439913	0.440169	-0.0704857	1	0.0189461	13	0	0.3501	-3.10256e-05
2	0	0	1	0	0	21.3731	0.436263	0.436536	-0.101815	1	0.0189134	13	0	0.7152	-4.44459e-05
2	0	0	1	0	0	21.7381	0.432612	0.432892	-0.127892	1	0.0188708	12	0	1.0802	-5.53634e-05
2	0	0	1	0	0	22.0881	0.429112	0.429386	-0.143575	1	0.0188226	12	0	1.4302	-6.16492e-05
2	0	0	1	0	0	22.4383	0.425611	0.425886	-0.160744	1	0.0187687	12	0	1.7804	-6.84586e-05
2	0	0	1	0	0	22.7883	0.42211	0.422424	-0.177118	1	0.01871	12	0	2.1304	-7.48188e-05
2	0	0	1	0	0	23.1383	0.41861	0.418926	-0.186196	1	0.018647	12	0	2.4804	-7.80025e-05
2	0	0	1	0	0	23.4885	0.415109	0.415443	-0.194135	1	0.0185799	12	0	2.8306	-8.0652e-05
2	0	0	1	0	0	23.8385	0.411608	0.411923	-0.205693	1	0.0185093	12	0	3.1806	-8.47296e-05
2	0	0	1	0	0	24.1885	0.408108	0.408405	-0.219631	1	0.018435	12	0	3.5306	-8.96984e-05
2	0	0	1	0	0	24.5387	0.404607	0.404861	-0.225896	1	0.0183577	12	0	3.8808	-9.14563e-05
2	0	0	1	0	0	24.8887	0.401107	0.401352	-0.231143	1	0.0182774	12	0	4.2308	-9.27698e-05
2	0	0	1	0	0	25.2387	0.397606	0.397908	-0.239917	1	0.0181943	12	0	4.5808	-9.54649e-05
2	0	0	1	0	0	25.5889	0.394105	0.394367	-0.251223	1	0.0181083	12	0	4.931	-9.90742e-05
2	0	0	1	0	0	25.9389	0.390605	0.390861	-0.258804	1	0.0180198	12	0	5.281	-0.000101156
2	0	0	1	0	0	26.2889	0.387104	0.387416	-0.262231	1	0.0179285	12	0	5.631	-0.000101593
2	0	0	1	0	0	26.639	0.383604	0.383927	-0.269716	1	0.0178346	12	0	5.9811	-0.000103551
2	0	0	1	0	0	26.9891	0.380103	0.380391	-0.280722	1	0.0177383	12	0	6.3312	-0.000106784
2	0	0	1	0	0	27.3391	0.376602	0.376846	-0.288789	1	0.0176393	12	0	6.6812	-0.000108829
2	0	0	1	0	0	27.6891	0.373102	0.373379	-0.291953	1	0.0175378	12	0	7.0312	-0.000109009
2	0	0	1	0	0	28.0393	0.369601	0.369871	-0.298146	1	0.0174338	12	0	7.3814	-0.000110276
2	0	0	1	0	0	28.3893	0.3661	0.366371	-0.308536	1	0.0173274	12	0	7.7314	-0.000113039
2	0	0	1	0	0	28.7393	0.3626	0.362866	-0.317157	1	0.0172186	12	0	8.0814	-0.000115086
2	0	0	1	0	0	29.0895	0.359099	0.359368	-0.320462	1	0.0171073	12	0	8.4316	-0.000115164
2	0	0	1	0	0	29.4395	0.355599	0.355868	-0.325244	1	0.0169935	12	0	8.7816	-0.000115744
2	0	0	1	0	0	29.7895	0.352098	0.352374	-0.33552	1	0.0168774	12	0	9.1316	-0.000118229
2	0	0	1	0	1	30.0747	0.350798	0.351077	-0.216401	2	0.0167869	12	0	9.4168	-7.59735e-05
2	1	0	1	0	1	30.4247	0.354298	0.354617	0.115905	2	0.016779	12	0	0.1	4.1102e-05
2	1	0	1	0	1	30.7747	0.357799	0.358061	0.254619	2	0.0168468	12	0	0.45	9.11692e-05
2	1	0	1	0	1	31.1248	0.361299	0.361611	0.311488	2	0.016947	12	0	0.8001	0.000112637
2	1	0	1	0	1	31.4749	0.3648	0.365092	0.334842	2	0.0170613	12	0	1.1502	0.000122248
2	1	0	1	0	1	31.8249	0.368301	0.368605	0.348719	2	0.0171818	12	0	1.5002	0.00012854
2	1	0	1	0	1	32.1749	0.371801	0.372076	0.356316	2	0.0173048	12	0	1.8502	0.000132576
2	1	0	1	0	1	32.5251	0.375302	0.375593	0.354578	2	0.0174287	12	0	2.2004	0.000133177
2	1	0	1	0	1	32.8751	0.378803	0.379047	0.351481	2	0.0175527	12	0	2.5504	0.000133228
2	1	0	1	0	1	33.2251	0.382303	0.382585	0.351612	2	0.0176765	12	0	2.9004	0.000134522
2	1	0	1	0	1	33.5753	0.385804	0.386055	0.353433	2	0.0177996	12	0	3.2506	0.000136444
2	1	0	1	0	1	33.9253	0.389305	0.389564	0.349889	2	0.0179219	12	0	3.6006	0.000136304
2	1	0	1	0	1	34.2753	0.392805	0.393105	0.344522	2	0.0180437	12	0	3.9506	0.000135434
2	1	0	1	0	1	34.6255	0.396306	0.396579	0.343016	2	0.0181648	12	0	4.3008	0.000136033
2	1	0	1	0	1	34.9755	0.399806	0.400057	0.345209	2	0.0182851	12	0	4.6508	0.000138103
2	1	0	1	0	1	35.3255	0.403307	0.403582	0.342422	2	0.0184046	12	0	5.0008	0.000138195
2	1	0	1	0	1	35.6757	0.406808	0.407095	0.33692	2	0.0185237	12	0	5.351	0.000137159
2	1	0	1	0	1	36.0257	0.410308	0.410629	0.336816	2	0.0186421	12	0	5.701	0.000138307
2	1	0	1	0	1	36.3757	0.413809	0.414071	0.337899	2	0.0187603	12	0	6.051	0.000139914
2	1	0	1	0	1	36.7258	0.417309	0.417612	0.336816	2	0.0188776	12	0	6.4011	0.000140659
2	1	0	1	0	1	37.0759	0.42081	0.421094	0.331601	2	0.0189945	12	0	6.7512	0.000139635
2	1	0	1	0	1	37.4259	0.424311	0.424614	0.330277	2	0.0191111	12	0	7.1012	0.00014024
2	1	0	1	0	1	37.7759	0.427811	0.428115	0.333125	2	0.0192274	12	0	7.4512	0.000142616
2	1	0	1	0	1	38.1261	0.431312	0.431602	0.334247	2	0.0193435	12	0	7.8014	0.000144261
2	1	0	1	0	1	38.4761	0.434813	0.43512	0.330449	2	0.0194596	12	0	8.1514	0.000143785
2	1	0	1	0	1	38.8261	0.438313	0.438601	0.329461	2	0.0195758	12	0	8.5014	0.000144502
2	1	0	1	0	1	39.1763	0.441814	0.442111	0.333474	2	0.0196921	12	0	8.8516	0.000147433
2	1	0	1	0	1	39.5263	0.445314	0.445648	0.336607	2	0.0198088	12	0	9.2016	0.000150008
2	1	0	1	0	1	39.8763	0.448815	0.449132	0.335049	2	0.0199259	12	0	9.5516	0.000150481
2	1	0	1	0	1	40.1701	0.448215	0.448463	0.105158	2	0.0200012	12	0	9.8454	4.71594e-05
2	0	0	1	0	1	40.5201	0.444714	0.444999	-0.0713137	2	0.0200004	12	0	0.15	-3.17345e-05
2	0	0	1	0	1	40.8701	0.441214	0.441497	-0.133384	2	0.0199621	12	0	0.5	-5.88884e-05
2	0	0	1	0	1	41.2203	0.437713	0.437976	-0.163647	2	0.0199097	12	0	0.8502	-7.16736e-05
2	0	0	1	0	1	41.5703	0.434212	0.434519	-0.179913	2	0.0198501	12	0	1.2002	-7.81757e-05
2	0	0	1	0	1	41.9203	0.430712	0.431017	-0.187758	2	0.0197856	12	0	1.5502	-8.09268e-05
2	0	0	1	0	1	42.2705	0.427211	0.427522	-0.19792	2	0.0197172	12	0	1.9004	-8.46153e-05
2	0	0	1	0	1	42.6205	0.423711	0.424001	-0.210451	2	0.0196456	12	0	2.2504	-8.92315e-05
2	0	0	1	0	1	42.9705	0.42021	0.420484	-0.219277	2	0.0195711	12	0	2.6004	-9.22025e-05
2	0	0	1	0	1	43.3207	0.416709	0.416982	-0.222556	2	0.0194939	12	0	2.9506	-9.28018e-05
2	0	0	1	0	1	43.6707	0.413209	0.413522	-0.228563	2	0.0194141	12	0	3.3006	-9.45157e-05
2	0	0	1	0	1	44.0207	0.409708	0.409977	-0.240965	2	0.0193319	12	0	3.6506	-9.87899e-05
2	0	0	1	0	1	44.3708	0.406207	0.406481	-0.247662	2	0.0192471	12	0	4.0007	-0.00010067
2	0	0	1	0	1	44.7209	0.402707	0.403008	-0.250517	2	0.0191603	12	0	4.3508	-0.00010096
2	0	0	1	0	1	45.0709	0.399206	0.39952	-0.254255	2	0.0190713	12	0	4.7008	-0.00010158
2	0	0	1	0	1	45.4209	0.395706	0.395996	-0.263566	2	0.0189802	12	0	5.0508	-0.000104371
2	0	0	1	0	1	45.7711	0.392205	0.392471	-0.271992	2	0.018887	12	0	5.401	-0.000106749
2	0	0	1	0	1	46.1211	0.388704	0.389004	-0.275746	2	0.0187917	12	0	5.751	-0.000107266
2	0	0	1	0	1	46.4711	0.385204	0.385527	-0.278714	2	0.0186942	12	0	6.101	-0.000107452
2	0	0	1	0	1	46.8213	0.381703	0.381951	-0.286876	2	0.0185946	12	0	6.4512	-0.000109573
2	0	0	1	0	1	47.1713	0.378203	0.378525	-0.296421	2	0.0184929	12	0	6.8012	-0.000112203
2	0	0	1	0	1	47.5213	0.374702	0.374988	-0.300419	2	0.018389	12	0	7.1512	-0.000112654
2	0	0	1	0	1	47.8715	0.371201	0.371515	-0.303522	2	0.018283	12	0	7.5014	-0.000112763
2	0	0	1	0	1	48.2215	0.367701	0.368009	-0.310729	2	0.0181748	12	0	7.8514	-0.000114351
2	0	0	1	0	1	48.5715	0.3642	0.364517	-0.321079	2	0.0180644	12	0	8.2014	-0.000117039
2	0	0	1	0	1	48.9217	0.360699	0.360971	-0.325861	2	0.0179518	12	0	8.5516	-0.000117627
2	0	0	1	0	1	49.2717	0.357199	0.357504	-0.329035	2	0.017837	12	0	8.9016	-0.000117631
2	0	0	1	0	1	49.6217	0.353698	0.353932	-0.335861	2	0.0177199	12	0	9.2516	-0.000118872
2	0	0	1	0	1	49.9667	0.350248	0.350598	-0.345269	2	0.0176023	12	0	9.5966	-0.00012105
2	0	0	1	0	0	50.2669	0.352798	0.353041	0.00323346	3	0.0175543	12	0	9.8968	1.14154e-06
2	1	0	1	0	0	50.6169	0.356299	0.356597	0.19866	3	0.0175943	12	0	0.3	7.08416e-05
2	1	0	1	0	0	50.9669	0.359799	0.360065	0.278381	3	0.0176794	12	0	0.65	0.000100235
2	1	0	1	0	0	51.3171	0.3633	0.363588	0.310448	3	0.0177841	12	0	1.0002	0.000112875
2	1	0	1	0	0	51.6671	0.366801	0.367096	0.328402	3	0.0178968	12	0	1.3502	0.000120555
2	1	0	1	0	0	52.0171	0.370301	0.370576	0.336769	3	0.0180128	12	0	1.7002	0.000124799
2	1	0	1	0	0	52.3673	0.373802	0.374118	0.336161	3	0.0181302	12	0	2.0504	0.000125764
2	1	0	1	0	0	52.7173	0.377302	0.377534	0.332609	3	0.0182477	12	0	2.4004	0.000125571
2	1	0	1	0	0	53.0673	0.380803	0.381085	0.333546	3	0.018365	12	0	2.7504	0.000127109
2	1	0	1	0	0	53.4175	0.384304	0.384601	0.334508	3	0.0184815	12	0	3.1006	0.000128652
2	1	0	1	0	0	53.7675	0.387804	0.388086	0.330493	3	0.0185973	12	0	3.4506	0.00012826
2	1	0	1	0	0	54.1175	0.391305	0.39159	0.32487	3	0.0187122	12	0	3.8006	0.000127216
2	1	0	1	0	0	54.4676	0.394806	0.395068	0.323078	3	0.0188264	12	0	4.1507	0.000127638
2	1	0	1	0	0	54.8177	0.398306	0.398573	0.324964	3	0.0189396	12	0	4.5008	0.000129522
2	1	0	1	0	0	55.1677	0.401807	0.402086	0.321291	3	0.0190519	12	0	4.8508	0.000129187
2	1	0	1	0	0	55.5177	0.405307	0.4056	0.315545	3	0.0191635	12	0	5.2008	0.000127985
2	1	0	1	0	0	55.8679	0.408808	0.4091	0.313261	3	0.0192743	12	0	5.551	0.000128155
2	1	0	1	0	0	56.2179	0.412309	0.412651	0.316308	3	0.0193846	12	0	5.901	0.000130525
2	1	0	1	0	0	56.5679	0.415809	0.416113	0.313515	3	0.019494	12	0	6.251	0.000130458
2	1	0	1	0	0	56.9181	0.41931	0.419567	0.30798	3	0.0196028	12	0	6.6012	0.000129218
2	1	0	1	0	0	57.2681	0.42281	0.423102	0.305587	3	0.0197108	12	0	6.9512	0.000129294
2	1	0	1	0	0	57.6181	0.426311	0.426595	0.308112	3	0.0198185	12	0	7.3012	0.000131439
2	1	0	1	0	0	57.9683	0.429812	0.430135	0.307982	3	0.0199256	12	0	7.6514	0.000132474
2	1	0	1	0	0	58.3183	0.433312	0.433581	0.303406	3	0.0200325	12	0	8.0014	0.000131551
2	1	0	1	0	0	58.6683	0.436813	0.437089	0.302004	3	0.0201391	12	0	8.3514	0.000132003
2	1	0	1	0	0	59.0185	0.440314	0.440575	0.305073	3	0.0202457	12	0	8.7016	0.000134407
2	1	0	1	0	0	59.3685	0.443814	0.444093	0.307172	3	0.0203521	12	0	9.0516	0.000136413
2	1	0	1	0	0	59.7185	0.447315	0.447614	0.304165	3	0.0204587	12	0	9.4016	0.000136149
2	1	0	1	0	0	60.0123	0.449715	0.449991	0.259561	3	0.0205474	12	0	9.6954	0.0001168
2	0	0	1	0	0	60.3623	0.446215	0.446423	-0.0455986	3	0.0205723	12	0	0.05	-2.03563e-05
2	0	0	1	0	0	60.7123	0.442714	0.443028	-0.13655	3	0.0205368	12	0	0.4	-6.04955e-05
2	0	0	1	0	0	61.0625	0.439213	0.439473	-0.173432	3	0.0204819	12	0	0.7502	-7.62188e-05
2	0	0	1	0	0	61.4125	0.435713	0.436083	-0.189315	3	0.0204189	12	0	1.1002	-8.25573e-05
2	0	0	1	0	0	61.7625	0.432212	0.432461	-0.196704	3	0.0203509	12	0	1.4502	-8.50667e-05
2	0	0	1	0	0	62.1126	0.428711	0.429039	-0.206963	3	0.0202794	12	0	1.8003	-8.87953e-05
2	0	0	1	0	0	62.4627	0.425211	0.425489	-0.218264	3	0.0202051	12	0	2.1504	-9.28691e-05
2	0	0	1	0	0	62.8127	0.42171	0.42199	-0.225589	3	0.0201282	12	0	2.5004	-9.51961e-05
2	0	0	1	0	0	63.1627	0.41821	0.418529	-0.22776	3	0.0200488	12	0	2.8504	-9.53243e-05
2	0	0	1	0	0	63.5129	0.414709	0.415006	-0.234228	3	0.0199671	12	0	3.2006	-9.72058e-05
2	0	0	1	0	0	63.8629	0.411208	0.411474	-0.243567	3	0.0198834	12	0	3.5506	-0.000100222
2	0	0	1	0	0	64.2129	0.407708	0.407991	-0.251419	3	0.0197973	12	0	3.9006	-0.000102577
2	0	0	1	0	0	64.5631	0.404207	0.404457	-0.252215	3	0.0197093	12	0	4.2508	-0.00010201
2	0	0	1	0	0	64.9131	0.400707	0.401002	-0.257047	3	0.0196194	12	0	4.6008	-0.000103076
2	0	0	1	0	0	65.2631	0.397206	0.397427	-0.266332	3	0.0195277	12	0	4.9508	-0.000105848
2	0	0	1	0	0	65.6133	0.393705	0.393999	-0.272711	3	0.0194339	12	0	5.301	-0.000107448
2	0	0	1	0	0	65.9633	0.390205	0.390472	-0.275116	3	0.0193383	12	0	5.651	-0.000107425
2	0	0	1	0	0	66.3133	0.386704	0.386996	-0.278997	3	0.0192406	12	0	6.001	-0.000107971
2	0	0	1	0	0	66.6635	0.383203	0.383484	-0.287893	3	0.019141	12	0	6.3512	-0.000110402
2	0	0	1	0	0	67.0135	0.379703	0.380002	-0.295477	3	0.0190396	12	0	6.7012	-0.000112282
2	0	0	1	0	0	67.3635	0.376202	0.376503	-0.298452	3	0.018936	12	0	7.0512	-0.000112368
2	0	0	1	0	0	67.7136	0.372701	0.372987	-0.301672	3	0.0188303	12	0	7.4013	-0.00011252
2	0	0	1	0	0	68.0637	0.369201	0.369465	-0.30993	3	0.0187226	12	0	7.7514	-0.000114508
2	0	0	1	0	0	68.4137	0.3657	0.366018	-0.318769	3	0.0186129	12	0	8.1014	-0.000116675
2	0	0	1	0	0	68.7637	0.3622	0.362482	-0.324315	3	0.0185011	12	0	8.4514	-0.000117558
2	0	0	1	0	0	69.1139	0.358699	0.359016	-0.32765	3	0.0183871	12	0	8.8016	-0.000117632
2	0	0	1	0	0	69.4639	0.355198	0.355487	-0.332162	3	0.0182708	12	0	9.1516	-0.000118079
2	0	0	1	0	0	69.8139	0.351698	0.351985	-0.342253	3	0.0181525	12	0	9.5016	-0.000120468
2	0	0	1	0	1	70.1091	0.351298	0.351584	-0.153103	4	0.0180649	12	0	9.7968	-5.38288e-05
2	1	0	1	0	1	70.4591	0.354798	0.355075	0.133378	4	0.0180692	12	0	0.15	4.73592e-05
2	1	0	1	0	1	70.8091	0.358299	0.358554	0.248238	4	0.0181383	12	0	0.5	8.90068e-05
2	1	0	1	0	1	71.1593	0.3618	0.362083	0.293651	4	0.0182346	12	0	0.8502	0.000106326
2	1	0	1	0	1	71.5093	0.3653	0.36559	0.314098	4	0.0183423	12	0	1.2002	0.000114831
2	1	0	1	0	1	71.8593	0.368801	0.369116	0.325754	4	0.0184547	12	0	1.5502	0.000120241
2	1	0	1	0	1	72.2094	0.372302	0.372541	0.329934	4	0.0185689	12	0	1.9003	0.000122914
2	1	0	1	0	1	72.5595	0.375802	0.376096	0.326033	4	0.0186835	12	0	2.2504	0.00012262
2	1	0	1	0	1	72.9095	0.379303	0.379608	0.323508	4	0.0187979	12	0	2.6004	0.000122806
2	1	0	1	0	1	73.2595	0.382803	0.383087	0.323685	4	0.0189116	12	0	2.9504	0.000124
2	1	0	1	0	1	73.6097	0.386304	0.386616	0.324242	4	0.0190245	12	0	3.3006	0.000125357
2	1	0	1	0	1	73.9597	0.389805	0.390121	0.318997	4	0.0191364	12	0	3.6506	0.000124447
2	1	0	1	0	1	74.3097	0.393305	0.393601	0.313578	4	0.0192475	12	0	4.0006	0.000123425
2	1	0	1	0	1	74.6599	0.396806	0.397098	0.312169	4	0.0193577	12	0	4.3508	0.000123962
2	1	0	1	0	1	75.0099	0.400306	0.400598	0.313233	4	0.019467	12	0	4.7008	0.000125481
2	1	0	1	0	1	75.3599	0.403807	0.404106	0.309748	4	0.0195751	12	0	5.0508	0.000125171
2	1	0	1	0	1	75.7101	0.407308	0.40764	0.303067	4	0.0196826	12	0	5.401	0.000123543
2	1	0	1	0	1	76.0601	0.410808	0.411104	0.302695	4	0.0197892	12	0	5.751	0.000124439
2	1	0	1	0	1	76.4101	0.414309	0.414632	0.302892	4	0.0198952	12	0	6.101	0.000125588
2	1	0	1	0	1	76.7603	0.41781	0.418105	0.301506	4	0.0200002	12	0	6.4512	0.000126061
2	1	0	1	0	1	77.1103	0.42131	0.421608	0.295783	4	0.0201044	12	0	6.8012	0.000124704
2	1	0	1	0	1	77.4603	0.424811	0.42513	0.292657	4	0.0202081	12	0	7.1512	0.000124418
2	1	0	1	0	1	77.8103	0.428311	0.428669	0.293717	4	0.0203111	12	0	7.5012	0.000125907
2	1	0	1	0	1	78.1605	0.431812	0.43215	0.295242	4	0.0204137	12	0	7.8514	0.000127589
2	1	0	1	0	1	78.5105	0.435313	0.435607	0.291663	4	0.0205158	12	0	8.2014	0.00012705
2	1	0	1	0	1	78.8605	0.438813	0.439088	0.287926	4	0.0206177	12	0	8.5514	0.000126425
2	1	0	1	0	1	79.2107	0.442314	0.442593	0.289552	4	0.0207193	12	0	8.9016	0.000128154
2	1	0	1	0	1	79.5607	0.445815	0.446107	0.292502	4	0.0208209	12	0	9.2516	0.000130487
2	1	0	1	0	1	79.9107	0.449315	0.449595	0.292204	4	0.0209225	12	0	9.6016	0.000131374
2	1	0	1	0	1	80.2045	0.447715	0.447959	0.0206158	4	0.0209723	12	0	9.8954	9.23503e-06
2	0	0	1	0	1	80.5545	0.444214	0.444512	-0.120855	4	0.0209498	12	0	0.25	-5.37216e-05
2	0	0	1	0	1	80.9045	0.440714	0.440984	-0.166483	4	0.0208974	12	0	0.6	-7.34163e-05
2	0	0	1	0	1	81.2547	0.437213	0.43749	-0.189803	4	0.0208341	12	0	0.9502	-8.30368e-05
2	0	0	1	0	1	81.6047	0.433712	0.433979	-0.204348	4	0.0207656	12	0	1.3002	-8.86828e-05
2	0	0	1	0	1	81.9547	0.430212	0.430546	-0.2106	4	0.0206934	12	0	1.6502	-9.06729e-05
2	0	0	1	0	1	82.3049	0.426711	0.427011	-0.215427	4	0.0206183	12	0	2.0004	-9.19895e-05
2	0	0	1	0	1	82.6549	0.423211	0.423519	-0.224021	4	0.0205408	12	0	2.3504	-9.48771e-05
2	0	0	1	0	1	83.0049	0.41971	0.42002	-0.233513	4	0.0204609	12	0	2.7004	-9.80804e-05
2	0	0	1	0	1	83.3551	0.416209	0.416498	-0.237979	4	0.0203791	12	0	3.0506	-9.91176e-05
2	0	0	1	0	1	83.7051	0.412709	0.412984	-0.239676	4	0.0202952	12	0	3.4006	-9.89822e-05
2	0	0	1	0	1	84.0551	0.409208	0.409447	-0.248272	4	0.0202091	12	0	3.7506	-0.000101654
2	0	0	1	0	1	84.4053	0.405707	0.405979	-0.255747	4	0.0201211	12	0	4.1008	-0.000103828
2	0	0	1	0	1	84.7553	0.402207	0.402469	-0.260804	4	0.0200314	12	0	4.4508	-0.000104966
2	0	0	1	0	1	85.1053	0.398706	0.398972	-0.261821	4	0.0199399	12	0	4.8008	-0.000104459
2	0	0	1	0	1	85.4554	0.395205	0.395431	-0.267313	4	0.0198464	12	0	5.1509	-0.000105704
2	0	0	1	0	1	85.8055	0.391705	0.391978	-0.276438	4	0.0197512	12	0	5.501	-0.000108358
2	0	0	1	0	1	86.1555	0.388204	0.388462	-0.282335	4	0.0196541	12	0	5.851	-0.000109677
2	0	0	1	0	1	86.5055	0.384704	0.385007	-0.284139	4	0.0195552	12	0	6.201	-0.000109395
2	0	0	1	0	1	86.8557	0.381203	0.38152	-0.287937	4	0.0194542	12	0	6.5512	-0.000109854
2	0	0	1	0	1	87.2057	0.377702	0.377931	-0.297614	4	0.0193515	12	0	6.9012	-0.000112477
2	0	0	1	0	1	87.5557	0.374202	0.374451	-0.304648	4	0.0192467	12	0	7.2512	-0.000114076
2	0	0	1	0	1	87.9059	0.370701	0.37093	-0.307907	4	0.0191398	12	0	7.6014	-0.000114212
2	0	0	1	0	1	88.2559	0.367201	0.367486	-0.310671	4	0.019031	12	0	7.9514	-0.000114167
2	0	0	1	0	1	88.6059	0.3637	0.363961	-0.319688	4	0.0189202	12	0	8.3014	-0.000116354
2	0	0	1	0	1	88.9561	0.360199	0.360482	-0.328105	4	0.0188072	12	0	8.6516	-0.000118276
2	0	0	1	0	1	89.3061	0.356699	0.356975	-0.332702	4	0.018692	12	0	9.0016	-0.000118766
2	0	0	1	0	1	89.6561	0.353198	0.353479	-0.335251	4	0.0185748	12	0	9.3516	-0.000118504
2	0	0	0	0	0	89.974	0.350023	0.350205	-0.342486	4	0.0184663	12	0	9.6695	-0.00011994
2	1	0	1	0	0	90.3013	0.353298	0.353555	0.0374017	5	0.0184273	12	0	0.000000000000000E+000	1.32236e-05
2	1	0	1	0	0	90.6513	0.356799	0.357087	0.207894	5	0.0184749	12	0	0.35	7.42364e-05
2	1	0	1	0	0	91.0013	0.360299	0.360586	0.279264	5	0.0185613	12	0	0.7	0.000100699
2	1	0	1	0	0	91.3515	0.3638	0.364108	0.304179	5	0.018664	12	0	1.0502	0.000110754
2	1	0	1	0	0	91.7015	0.367301	0.367561	0.315097	5	0.0187735	12	0	1.4002	0.000115817
2	1	0	1	0	0	92.0515	0.370801	0.371117	0.322087	5	0.0188854	12	0	1.7502	0.000119532
2	1	0	1	0	0	92.4017	0.374302	0.374569	0.324981	5	0.0189982	12	0	2.1004	0.000121728
2	1	0	1	0	0	92.7517	0.377803	0.3781	0.320817	5	0.0191107	12	0	2.4504	0.000121301
2	1	0	1	0	0	93.1017	0.381303	0.381594	0.316566	5	0.0192229	12	0	2.8004	0.0001208
2	1	0	1	0	0	93.4519	0.384804	0.385068	0.316107	5	0.0193342	12	0	3.1506	0.000121723
2	1	0	1	0	0	93.8019	0.388304	0.3886	0.316355	5	0.0194445	12	0	3.5006	0.000122936
2	1	0	1	0	0	94.1519	0.391805	0.392112	0.312392	5	0.0195538	12	0	3.8506	0.000122493
2	1	0	1	0	0	94.5021	0.395306	0.395598	0.305584	5	0.0196624	12	0	4.2008	0.000120888
2	1	0	1	0	0	94.8521	0.398806	0.399134	0.3042	5	0.0197698	12	0	4.5508	0.000121417
2	1	0	1	0	0	95.2021	0.402307	0.40258	0.304939	5	0.0198762	12	0	4.9008	0.000122762
2	1	0	1	0	0	95.5521	0.405807	0.406081	0.301896	5	0.0199817	12	0	5.2508	0.000122594
2	1	0	1	0	0	95.9023	0.409308	0.40958	0.295409	5	0.0200863	12	0	5.601	0.000120993
2	1	0	1	0	0	96.2523	0.412809	0.413112	0.293921	5	0.0201904	12	0	5.951	0.000121422
2	1	0	1	0	0	96.6023	0.416309	0.416637	0.294286	5	0.0202933	12	0	6.301	0.00012261
2	1	0	1	0	0	96.9525	0.41981	0.420105	0.292823	5	0.0203955	12	0	6.6512	0.000123017
2	1	0	1	0	0	97.3025	0.423311	0.423599	0.287637	5	0.0204968	12	0	7.0012	0.000121843
2	1	0	1	0	0	97.6525	0.426811	0.427136	0.28377	5	0.0205975	12	0	7.3512	0.000121208
2	1	0	1	0	0	98.0027	0.430312	0.430587	0.286345	5	0.0206977	12	0	7.7014	0.000123296
2	1	0	1	0	0	98.3527	0.433812	0.434095	0.286559	5	0.0207972	12	0	8.0514	0.000124394
2	1	0	1	0	0	98.7027	0.437313	0.43758	0.282538	5	0.0208964	12	0	8.4014	0.000123633
2	1	0	1	0	0	99.0529	0.440814	0.441082	0.279134	5	0.0209953	12	0	8.7516	0.000123121
2	1	0	1	0	0	99.4029	0.444314	0.44458	0.281671	5	0.021094	12	0	9.1016	0.000125225
2	1	0	1	0	0	99.7529	0.447815	0.448082	0.284288	5	0.0211925	12	0	9.4516	0.000127384
2	1	0	1	0	0	100.047	0.449215	0.449496	0.161105	5	0.0212698	12	0	9.7454	7.24161e-05
2	0	0	1	0	0	100.427	0.445414	0.445723	-0.0939047	5	0.0212709	13	0	0.18	-4.18555e-05
2	0	0	1	0	0	100.807	0.441614	0.441834	-0.16684	5	0.0212184	12	0	0.56	-7.37154e-05
2	0	0	1	0	0	101.157	0.438113	0.438419	-0.186921	5	0.0211554	12	0	0.9102	-8.19498e-05
2	0	0	1	0	0	101.507	0.434613	0.434879	-0.201801	5	0.0210865	12	0	1.2602	-8.77591e-05
2	0	0	1	0	0	101.857	0.431112	0.431384	-0.213875	5	0.021014	12	0	1.6102	-9.22623e-05
2	0	0	1	0	0	102.207	0.427611	0.427906	-0.220889	5	0.0209385	12	0	1.9604	-9.45198e-05
2	0	0	1	0	0	102.557	0.424111	0.424392	-0.223393	5	0.0208608	12	0	2.3104	-9.48063e-05
2	0	0	1	0	0	102.907	0.42061	0.420907	-0.22944	5	0.0207807	12	0	2.6604	-9.6573e-05
2	0	0	1	0	0	103.257	0.41711	0.41741	-0.238127	5	0.0206986	12	0	3.0105	-9.93964e-05
2	0	0	1	0	0	103.607	0.413609	0.413869	-0.245174	5	0.0206147	12	0	3.3606	-0.00010147
2	0	0	1	0	0	103.957	0.410108	0.410368	-0.248507	5	0.0205289	12	0	3.7106	-0.000101979
2	0	0	1	0	0	104.307	0.406608	0.406862	-0.250545	5	0.0204409	12	0	4.0606	-0.000101937
2	0	0	1	0	0	104.657	0.403107	0.403379	-0.258647	5	0.0203513	12	0	4.4108	-0.000104333
2	0	0	1	0	0	105.007	0.399606	0.399863	-0.266117	5	0.02026	12	0	4.7608	-0.00010641
2	0	0	1	0	0	105.357	0.396106	0.39642	-0.268855	5	0.020167	12	0	5.1108	-0.000106579
2	0	0	1	0	0	105.708	0.392605	0.392863	-0.270689	5	0.0200721	12	0	5.461	-0.000106344
2	0	0	1	0	0	106.058	0.389105	0.389395	-0.27799	5	0.0199754	12	0	5.811	-0.000108248
2	0	0	1	0	0	106.408	0.385604	0.385893	-0.286314	5	0.0198769	12	0	6.161	-0.000110486
2	0	0	1	0	0	106.758	0.382103	0.38238	-0.290705	5	0.0197766	12	0	6.5112	-0.00011116
2	0	0	1	0	0	107.108	0.378603	0.378866	-0.292667	5	0.0196744	12	0	6.8612	-0.000110882
2	0	0	1	0	0	107.458	0.375102	0.375338	-0.29846	5	0.0195701	12	0	7.2112	-0.000112023
2	0	0	1	0	0	107.808	0.371601	0.371856	-0.307782	5	0.019464	12	0	7.5614	-0.000114451
2	0	0	1	0	0	108.158	0.368101	0.368349	-0.313725	5	0.019356	12	0	7.9114	-0.00011556
2	0	0	1	0	0	108.508	0.3646	0.364876	-0.31658	5	0.0192459	12	0	8.2614	-0.000115512
2	0	0	1	0	0	108.858	0.3611	0.361354	-0.320563	5	0.0191337	12	0	8.6115	-0.000115837
2	0	0	1	0	0	109.208	0.357599	0.357899	-0.330374	5	0.0190194	12	0	8.9616	-0.00011824
2	0	0	1	0	0	109.558	0.354098	0.354382	-0.338183	5	0.018903	12	0	9.3116	-0.000119846
2	0	0	1	0	0	109.908	0.350598	0.35089	-0.341861	5	0.0187845	12	0	9.6616	-0.000119956
2	0	0	1	0	1	110.193	0.352298	0.352565	-0.0404741	6	0.0187254	12	0	9.9468	-1.42697e-05
2	1	0	1	0	1	110.543	0.355799	0.35604	0.172097	6	0.018754	12	0	0.25	6.12732e-05
2	1	0	1	0	1	110.893	0.359299	0.359547	0.2581	6	0.018832	12	0	0.6	9.27992e-05
2	1	0	1	0	1	111.244	0.3628	0.363063	0.296037	6	0.0189308	12	0	0.9502	0.00010748
2	1	0	1	0	1	111.594	0.3663	0.366589	0.314793	6	0.0190378	12	0	1.3002	0.0001154
2	1	0	1	0	1	111.944	0.369801	0.370042	0.318739	6	0.0191481	12	0	1.6502	0.000117947
2	1	0	1	0	1	112.294	0.373302	0.37357	0.316341	6	0.0192596	12	0	2.0004	0.000118176
2	1	0	1	0	1	112.644	0.376802	0.377077	0.315589	6	0.019371	12	0	2.3504	0.000119001
2	1	0	1	0	1	112.994	0.380303	0.380572	0.317718	6	0.0194819	12	0	2.7004	0.000120914
2	1	0	1	0	1	113.344	0.383803	0.384111	0.315702	6	0.019592	12	0	3.0505	0.000121265
2	1	0	1	0	1	113.694	0.387304	0.387573	0.309677	6	0.0197013	12	0	3.4006	0.000120023
2	1	0	1	0	1	114.044	0.390805	0.391108	0.305292	6	0.0198095	12	0	3.7506	0.000119402
2	1	0	1	0	1	114.394	0.394305	0.394596	0.30526	6	0.0199168	12	0	4.1006	0.000120454
2	1	0	1	0	1	114.744	0.397806	0.398074	0.305084	6	0.020023	12	0	4.4508	0.000121446
2	1	0	1	0	1	115.094	0.401307	0.401562	0.299313	6	0.0201283	12	0	4.8008	0.000120193
2	1	0	1	0	1	115.444	0.404807	0.405136	0.294129	6	0.0202325	12	0	5.1508	0.000119162
2	1	0	1	0	1	115.794	0.408308	0.408543	0.292373	6	0.0203359	12	0	5.501	0.000119447
2	1	0	1	0	1	116.144	0.411809	0.412069	0.294842	6	0.0204384	12	0	5.851	0.000121495
2	1	0	1	0	1	116.494	0.415309	0.415563	0.290445	6	0.0205401	12	0	6.201	0.000120698
2	1	0	1	0	1	116.845	0.41881	0.419095	0.284499	6	0.0206408	12	0	6.5512	0.000119232
2	1	0	1	0	1	117.195	0.42231	0.422613	0.282349	6	0.0207408	12	0	6.9012	0.000119324
2	1	0	1	0	1	117.545	0.425811	0.426117	0.28396	6	0.02084	12	0	7.2512	0.000121
2	1	0	1	0	1	117.895	0.429312	0.429615	0.282874	6	0.0209384	12	0	7.6014	0.000121527
2	1	0	1	0	1	118.245	0.432812	0.433101	0.278043	6	0.0210363	12	0	7.9514	0.000120421
2	1	0	1	0	1	118.595	0.436313	0.436611	0.274892	6	0.0211337	12	0	8.3014	0.000120021
2	1	0	1	0	1	118.945	0.439813	0.440063	0.27633	6	0.0212307	12	0	8.6515	0.000121603
2	1	0	1	0	1	119.295	0.443314	0.443575	0.278836	6	0.0213273	12	0	9.0016	0.000123685
2	1	0	1	0	1	119.645	0.446815	0.447087	0.276075	6	0.0214238	12	0	9.3516	0.00012343
2	1	0	1	0	1	119.961	0.44999	0.450224	0.282232	6	0.0215109	12	0	9.6679	0.000127067
2	0	0	1	0	1	120.289	0.446715	0.447	-0.0492766	6	0.0215357	12	0	0.05	-2.20266e-05
2	0	0	1	0	1	120.639	0.443214	0.443495	-0.147911	6	0.0214969	12	0	0.4	-6.55977e-05
2	0	0	1	0	1	120.989	0.439714	0.439998	-0.185274	6	0.0214372	12	0	0.7501	-8.15203e-05
2	0	0	1	0	1	121.339	0.436213	0.43648	-0.202883	6	0.0213697	12	0	1.1002	-8.85545e-05
2	0	0	1	0	1	121.689	0.432712	0.432968	-0.209818	6	0.0212978	12	0	1.4502	-9.08443e-05
2	0	0	1	0	1	122.039	0.429212	0.429505	-0.214849	6	0.021223	12	0	1.8002	-9.22786e-05
2	0	0	1	0	1	122.389	0.425711	0.425999	-0.222989	6	0.0211456	12	0	2.1504	-9.49932e-05
2	0	0	1	0	1	122.739	0.42221	0.422477	-0.232746	6	0.0210662	12	0	2.5004	-9.83299e-05
2	0	0	1	0	1	123.089	0.41871	0.418984	-0.236844	6	0.0209847	12	0	2.8504	-9.92337e-05
2	0	0	1	0	1	123.439	0.415209	0.415497	-0.238539	6	0.0209013	12	0	3.2006	-9.91122e-05
2	0	0	1	0	1	123.789	0.411708	0.411968	-0.244014	6	0.020816	12	0	3.5506	-0.000100526
2	0	0	1	0	1	124.139	0.408208	0.408463	-0.253975	6	0.0207288	12	0	3.9006	-0.000103739
2	0	0	1	0	1	124.49	0.404707	0.404959	-0.258379	6	0.0206399	12	0	4.2508	-0.000104633
2	0	0	1	0	1	124.84	0.401207	0.401448	-0.259749	6	0.0205493	12	0	4.6008	-0.000104276
2	0	0	1	0	1	125.19	0.397706	0.397963	-0.26335	6	0.020457	12	0	4.9508	-0.000104803
2	0	0	1	0	1	125.54	0.394205	0.394519	-0.271556	6	0.020363	12	0	5.301	-0.000107134
2	0	0	1	0	1	125.89	0.390705	0.39101	-0.278984	6	0.0202673	12	0	5.651	-0.000109086
2	0	0	1	0	1	126.24	0.387204	0.387453	-0.280664	6	0.0201698	12	0	6.001	-0.000108744
2	0	0	1	0	1	126.59	0.383703	0.383985	-0.28363	6	0.0200704	12	0	6.3511	-0.000108909
2	0	0	1	0	1	126.94	0.380203	0.380477	-0.291059	6	0.0199693	12	0	6.7012	-0.000110741
2	0	0	1	0	1	127.29	0.376702	0.377001	-0.299958	6	0.0198663	12	0	7.0512	-0.000113084
2	0	0	1	0	1	127.64	0.373202	0.37349	-0.303496	6	0.0197614	12	0	7.4012	-0.000113353
2	0	0	1	0	1	127.99	0.369701	0.370032	-0.305642	6	0.0196544	12	0	7.7514	-0.000113097
2	0	0	1	0	1	128.34	0.3662	0.366493	-0.312268	6	0.0195455	12	0	8.1014	-0.000114444
2	0	0	1	0	1	128.69	0.3627	0.362979	-0.321926	6	0.0194346	12	0	8.4514	-0.000116852
2	0	0	1	0	1	129.04	0.359199	0.359501	-0.327457	6	0.0193217	12	0	8.8016	-0.000117721
2	0	0	1	0	1	129.39	0.355699	0.356011	-0.329694	6	0.0192066	12	0	9.1516	-0.000117375
2	0	0	1	0	1	129.74	0.352198	0.352475	-0.335357	6	0.0190895	12	0	9.5016	-0.000118205
2	0	0	1	0	0	130.036	0.350798	0.35113	-0.219804	7	0.0189948	12	0	9.7968	-7.71799e-05
2	1	0	1	0	0	130.386	0.354298	0.354573	0.102852	7	0.0189842	12	0	0.1	3.64686e-05
2	1	0	1	0	0	130.736	0.357799	0.358047	0.23328	7	0.0190461	12	0	0.45	8.35254e-05
2	1	0	1	0	0	131.086	0.361299	0.361576	0.284477	7	0.0191375	12	0	0.8001	0.00010286
2	1	0	1	0	0	131.436	0.3648	0.36507	0.302701	7	0.0192412	12	0	1.1502	0.000110507
2	1	0	1	0	0	131.786	0.368301	0.368627	0.312143	7	0.0193498	12	0	1.5002	0.000115064
2	1	0	1	0	0	132.136	0.371801	0.37211	0.318259	7	0.01946	12	0	1.8502	0.000118427
2	1	0	1	0	0	132.486	0.375302	0.375555	0.317138	7	0.0195706	12	0	2.2004	0.000119103
2	1	0	1	0	0	132.836	0.378803	0.379096	0.311895	7	0.0196807	12	0	2.5504	0.000118238
2	1	0	1	0	0	133.186	0.382303	0.382582	0.309083	7	0.0197902	12	0	2.9004	0.00011825
2	1	0	1	0	0	133.536	0.385804	0.386061	0.310088	7	0.0198988	12	0	3.2506	0.000119713
2	1	0	1	0	0	133.886	0.389305	0.389601	0.308326	7	0.0200063	12	0	3.6006	0.000120124
2	1	0	1	0	0	134.236	0.392805	0.393109	0.302436	7	0.0201128	12	0	3.9506	0.00011889
2	1	0	1	0	0	134.586	0.396306	0.396575	0.296843	7	0.0202184	12	0	4.3008	0.00011772
2	1	0	1	0	0	134.936	0.399806	0.400075	0.297355	7	0.0203229	12	0	4.6508	0.000118964
2	1	0	1	0	0	135.286	0.403307	0.403575	0.296801	7	0.0204262	12	0	5.0008	0.000119781
2	1	0	1	0	0	135.637	0.406808	0.407079	0.291273	7	0.0205288	12	0	5.351	0.000118571
2	1	0	1	0	0	135.987	0.410308	0.410625	0.287392	7	0.0206302	12	0	5.701	0.00011801
2	1	0	1	0	0	136.337	0.413809	0.41412	0.28547	7	0.0207312	12	0	6.051	0.000118219
2	1	0	1	0	0	136.687	0.417309	0.417622	0.286458	7	0.0208309	12	0	6.4011	0.000119631
2	1	0	1	0	0	137.037	0.42081	0.421088	0.282252	7	0.0209297	12	0	6.7512	0.000118853
2	1	0	1	0	0	137.387	0.424311	0.424584	0.27709	7	0.0210278	12	0	7.1012	0.000117648
2	1	0	1	0	0	137.737	0.427811	0.428077	0.275325	7	0.0211252	12	0	7.4512	0.00011786
2	1	0	1	0	0	138.087	0.431312	0.431589	0.277465	7	0.021222	12	0	7.8014	0.000119751
2	1	0	1	0	0	138.437	0.434813	0.435089	0.275959	7	0.021318	12	0	8.1514	0.000120067
2	1	0	1	0	0	138.787	0.438313	0.438627	0.271581	7	0.0214137	12	0	8.5014	0.000119123
2	1	0	1	0	0	139.137	0.441814	0.442066	0.269037	7	0.021509	12	0	8.8516	0.000118932
2	1	0	1	0	0	139.487	0.445314	0.44557	0.2719	7	0.021604	12	0	9.2016	0.000121151
2	1	0	1	0	0	139.837	0.448815	0.449087	0.27366	7	0.0216987	12	0	9.5516	0.000122897
2	1	0	1	0	0	140.131	0.448215	0.448499	0.0423998	7	0.0217551	12	0	9.8454	1.90163e-05
2	0	0	1	0	0	140.481	0.444714	0.444999	-0.126164	7	0.0217347	12	0	0.25	-5.61429e-05
2	0	0	1	0	0	140.831	0.441214	0.441436	-0.174267	7	0.0216805	12	0	0.6	-7.69278e-05
2	0	0	1	0	0	141.181	0.437713	0.437958	-0.193759	7	0.0216149	12	0	0.9502	-8.48582e-05
2	0	0	1	0	0	141.531	0.434212	0.434491	-0.208832	7	0.0215441	12	0	1.3002	-9.07356e-05
2	0	0	1	0	0	141.881	0.430712	0.430954	-0.218141	7	0.0214701	12	0	1.6502	-9.4009e-05
2	0	0	1	0	0	142.231	0.427211	0.42752	-0.221617	7	0.0213933	12	0	2.0004	-9.47458e-05
2	0	0	1	0	0	142.581	0.423711	0.423992	-0.225219	7	0.0213145	12	0	2.3504	-9.54912e-05
2	0	0	1	0	0	142.931	0.42021	0.420474	-0.233868	7	0.0212336	12	0	2.7004	-9.83353e-05
2	0	0	1	0	0	143.282	0.416709	0.41699	-0.241805	7	0.021151	12	0	3.0506	-0.000100831
2	0	0	1	0	0	143.632	0.413209	0.413485	-0.244143	7	0.0210664	12	0	3.4006	-0.000100949
2	0	0	1	0	0	143.982	0.409708	0.409983	-0.248062	7	0.0209801	12	0	3.7506	-0.000101701
2	0	0	1	0	0	144.332	0.406207	0.406471	-0.252851	7	0.0208917	12	0	4.1007	-0.000102777
2	0	0	1	0	0	144.682	0.402707	0.402947	-0.261534	7	0.020802	12	0	4.4508	-0.000105384
2	0	0	1	0	0	145.032	0.399206	0.399478	-0.265228	7	0.0207106	12	0	4.8008	-0.000105953
2	0	0	1	0	0	145.382	0.395706	0.395978	-0.266637	7	0.0206174	12	0	5.1508	-0.000105582
2	0	0	1	0	0	145.732	0.392205	0.392478	-0.270906	7	0.0205225	12	0	5.501	-0.000106325
2	0	0	1	0	0	146.082	0.388704	0.388991	-0.279927	7	0.0204259	12	0	5.851	-0.000108889
2	0	0	1	0	0	146.432	0.385204	0.385489	-0.286252	7	0.0203276	12	0	6.201	-0.000110347
2	0	0	1	0	0	146.782	0.381703	0.381946	-0.287896	7	0.0202274	12	0	6.5512	-0.000109961
2	0	0	1	0	0	147.132	0.378203	0.37847	-0.291662	7	0.0201254	12	0	6.9012	-0.000110385
2	0	0	1	0	0	147.482	0.374702	0.374959	-0.299294	7	0.0200214	12	0	7.2512	-0.000112223
2	0	0	1	0	0	147.832	0.371201	0.37152	-0.307865	7	0.0199157	12	0	7.6014	-0.000114378
2	0	0	1	0	0	148.182	0.367701	0.367961	-0.310703	7	0.019808	12	0	7.9514	-0.000114327
2	0	0	1	0	0	148.532	0.3642	0.364468	-0.313832	7	0.0196983	12	0	8.3014	-0.000114382
2	0	0	1	0	0	148.883	0.360699	0.360974	-0.320707	7	0.0195866	12	0	8.6516	-0.000115767
2	0	0	1	0	0	149.233	0.357199	0.357477	-0.331075	7	0.0194728	12	0	9.0016	-0.000118352
2	0	0	1	0	0	149.583	0.353698	0.353989	-0.335169	7	0.019357	12	0	9.3516	-0.000118646
2	0	0	1	0	0	149.928	0.350248	0.350497	-0.338402	7	0.0192406	12	0	9.6966	-0.000118609
2	0	0	1	0	1	150.228	0.352798	0.353068	0.00141202	8	0.0191932	12	0	9.9968	4.98538e-07
2	1	0	1	0	1	150.578	0.356299	0.356631	0.185994	8	0.019232	12	0	0.3	6.63311e-05
2	1	0	1	0	1	150.928	0.359799	0.360114	0.266149	8	0.0193136	12	0	0.65	9.58439e-05
2	1	0	1	0	1	151.278	0.3633	0.363609	0.299178	8	0.0194128	12	0	1.0002	0.000108784
2	1	0	1	0	1	151.628	0.366801	0.367126	0.30889	8	0.0195191	12	0	1.3502	0.000113402
2	1	0	1	0	1	151.978	0.370301	0.370574	0.310182	8	0.0196281	12	0	1.7002	0.000114945
2	1	0	1	0	1	152.328	0.373802	0.374105	0.313141	8	0.019738	12	0	2.0504	0.000117147
2	1	0	1	0	1	152.678	0.377302	0.377596	0.314762	8	0.0198475	12	0	2.4004	0.000118853
2	1	0	1	0	1	153.028	0.380803	0.381095	0.311398	8	0.0199564	12	0	2.7504	0.000118672
2	1	0	1	0	1	153.378	0.384304	0.38458	0.304907	8	0.0200646	12	0	3.1006	0.000117261
2	1	0	1	0	1	153.728	0.387804	0.3881	0.302798	8	0.0201717	12	0	3.4506	0.000117516
2	1	0	1	0	1	154.078	0.391305	0.391568	0.30415	8	0.0202777	12	0	3.8006	0.000119096
2	1	0	1	0	1	154.429	0.394806	0.395091	0.300044	8	0.0203828	12	0	4.1507	0.000118545
2	1	0	1	0	1	154.779	0.398306	0.398558	0.294071	8	0.0204868	12	0	4.5008	0.000117205
2	1	0	1	0	1	155.129	0.401807	0.402081	0.290305	8	0.0205898	12	0	4.8508	0.000116726
2	1	0	1	0	1	155.479	0.405307	0.405607	0.291367	8	0.0206917	12	0	5.2008	0.000118181
2	1	0	1	0	1	155.829	0.408808	0.409081	0.289246	8	0.0207926	12	0	5.551	0.000118325
2	1	0	1	0	1	156.179	0.412309	0.412581	0.284493	8	0.0208929	12	0	5.901	0.000117376
2	1	0	1	0	1	156.529	0.415809	0.416107	0.279205	8	0.0209921	12	0	6.251	0.000116179
2	1	0	1	0	1	156.879	0.41931	0.419625	0.280071	8	0.0210905	12	0	6.6012	0.000117525
2	1	0	1	0	1	157.229	0.42281	0.42312	0.279618	8	0.0211877	12	0	6.9512	0.000118312
2	1	0	1	0	1	157.579	0.426311	0.426621	0.274985	8	0.0212844	12	0	7.3012	0.000117314
2	1	0	1	0	1	157.929	0.429812	0.43012	0.27029	8	0.0213803	12	0	7.6514	0.000116257
2	1	0	1	0	1	158.279	0.433312	0.433625	0.270809	8	0.0214757	12	0	8.0014	0.000117429
2	1	0	1	0	1	158.629	0.436813	0.437086	0.272619	8	0.0215703	12	0	8.3514	0.000119158
2	1	0	1	0	1	158.979	0.440314	0.440594	0.269453	8	0.0216646	12	0	8.7016	0.000118719
2	1	0	1	0	1	159.329	0.443814	0.444088	0.265271	8	0.0217585	12	0	9.0516	0.000117804
2	1	0	1	0	1	159.679	0.447315	0.447622	0.265812	8	0.0218521	12	0	9.4016	0.000118983
2	1	0	1	0	1	159.973	0.449715	0.450013	0.224063	8	0.0219294	12	0	9.6954	0.000100831
2	0	0	1	0	1	160.323	0.446215	0.4465	-0.0806993	8	0.0219418	12	0	0.1	-3.60323e-05
2	0	0	1	0	1	160.673	0.442714	0.442999	-0.164934	8	0.0218966	12	0	0.45	-7.30658e-05
2	0	0	1	0	1	161.023	0.439213	0.439504	-0.190528	8	0.021834	12	0	0.8002	-8.37377e-05
2	0	0	1	0	1	161.373	0.435713	0.435952	-0.201529	8	0.0217646	12	0	1.1502	-8.78568e-05
2	0	0	1	0	1	161.723	0.432212	0.432447	-0.212537	8	0.0216914	12	0	1.5002	-9.1911e-05
2	0	0	1	0	1	162.074	0.428711	0.428999	-0.222949	8	0.0216156	12	0	1.8503	-9.56447e-05
2	0	0	1	0	1	162.424	0.425211	0.425483	-0.226667	8	0.0215375	12	0	2.2004	-9.64428e-05
2	0	0	1	0	1	162.774	0.42171	0.422	-0.229128	8	0.0214574	12	0	2.5504	-9.66922e-05
2	0	0	1	0	1	163.124	0.41821	0.418508	-0.235664	8	0.0213753	12	0	2.9004	-9.86272e-05
2	0	0	1	0	1	163.474	0.414709	0.414993	-0.244064	8	0.0212915	12	0	3.2506	-0.000101285
2	0	0	1	0	1	163.824	0.411208	0.41147	-0.248164	8	0.0212061	12	0	3.6006	-0.000102112
2	0	0	1	0	1	164.174	0.407708	0.407966	-0.250337	8	0.0211185	12	0	3.9506	-0.000102129
2	0	0	1	0	1	164.524	0.404207	0.404482	-0.25459	8	0.0210294	12	0	4.3008	-0.000102977
2	0	0	1	0	1	164.874	0.400707	0.400955	-0.262969	8	0.0209388	12	0	4.6508	-0.000105439
2	0	0	1	0	1	165.224	0.397206	0.397449	-0.2687	8	0.0208466	12	0	5.0008	-0.000106794
2	0	0	1	0	1	165.574	0.393705	0.393974	-0.268956	8	0.0207525	12	0	5.351	-0.000105962
2	0	0	1	0	1	165.924	0.390205	0.390489	-0.273668	8	0.0206567	12	0	5.701	-0.000106864
2	0	0	1	0	1	166.274	0.386704	0.386982	-0.281817	8	0.0205593	12	0	6.051	-0.000109058
2	0	0	1	0	1	166.624	0.383203	0.383481	-0.288463	8	0.0204601	12	0	6.4012	-0.00011062
2	0	0	1	0	1	166.974	0.379703	0.379956	-0.290205	8	0.0203592	12	0	6.7512	-0.000110265
2	0	0	1	0	1	167.324	0.376202	0.37648	-0.293841	8	0.0202563	12	0	7.1012	-0.000110625
2	0	0	1	0	1	167.675	0.372701	0.372955	-0.301693	8	0.0201515	12	0	7.4513	-0.000112518
2	0	0	1	0	1	168.025	0.369201	0.369454	-0.310408	8	0.0200449	12	0	7.8014	-0.000114681
2	0	0	1	0	1	168.375	0.3657	0.366014	-0.313684	8	0.0199364	12	0	8.1514	-0.000114813
2	0	0	1	0	1	168.725	0.3622	0.362483	-0.316103	8	0.0198257	12	0	8.5014	-0.000114582
2	0	0	1	0	1	169.075	0.358699	0.35897	-0.323818	8	0.0197131	12	0	8.8516	-0.000116241
2	0	0	1	0	1	169.425	0.355198	0.355453	-0.33284	8	0.0195983	12	0	9.2016	-0.000118309
2	0	0	1	0	1	169.775	0.351698	0.351965	-0.338695	8	0.0194816	12	0	9.5516	-0.000119209
2	0	0	1	0	0	170.07	0.351298	0.351571	-0.146072	9	0.0193952	12	0	9.8468	-5.13547e-05
2	1	0	1	0	0	170.42	0.354798	0.35509	0.128557	9	0.0193998	12	0	0.15	4.56492e-05
2	1	0	1	0	0	170.77	0.358299	0.35856	0.236872	9	0.0194674	12	0	0.5	8.49327e-05
2	1	0	1	0	0	171.12	0.3618	0.362102	0.285561	9	0.0195608	12	0	0.8502	0.000103402
2	1	0	1	0	0	171.47	0.3653	0.36557	0.306328	9	0.0196643	12	0	1.2002	0.000111984
2	1	0	1	0	0	171.82	0.368801	0.36912	0.310713	9	0.019772	12	0	1.5502	0.00011469
2	1	0	1	0	0	172.17	0.372302	0.372592	0.309479	9	0.0198811	12	0	1.9003	0.000115309
2	1	0	1	0	0	172.52	0.375802	0.376059	0.309926	9	0.0199903	12	0	2.2504	0.00011655
2	1	0	1	0	0	172.87	0.379303	0.379613	0.311972	9	0.0200988	12	0	2.6004	0.000118429
2	1	0	1	0	0	173.22	0.382803	0.383103	0.308108	9	0.0202066	12	0	2.9504	0.000118037
2	1	0	1	0	0	173.571	0.386304	0.386579	0.301809	9	0.0203135	12	0	3.3006	0.000116673
2	1	0	1	0	0	173.921	0.389805	0.39007	0.29878	9	0.0204194	12	0	3.6506	0.000116545
2	1	0	1	0	0	174.271	0.393305	0.393574	0.299956	9	0.0205242	12	0	4.0006	0.000118055
2	1	0	1	0	0	174.621	0.396806	0.397099	0.296903	9	0.0206279	12	0	4.3508	0.0001179
2	1	0	1	0	0	174.971	0.400306	0.400621	0.290411	9	0.0207305	12	0	4.7008	0.000116344
2	1	0	1	0	0	175.321	0.403807	0.404101	0.286426	9	0.0208321	12	0	5.0508	0.000115745
2	1	0	1	0	0	175.671	0.407308	0.407561	0.286572	9	0.0209328	12	0	5.401	0.000116796
2	1	0	1	0	0	176.021	0.410808	0.411133	0.287517	9	0.0210324	12	0	5.751	0.000118208
2	1	0	1	0	0	176.371	0.414309	0.414604	0.280395	9	0.0211313	12	0	6.101	0.000116253
2	1	0	1	0	0	176.721	0.41781	0.418062	0.275341	9	0.0212293	12	0	6.4512	0.000115109
2	1	0	1	0	0	177.071	0.42131	0.421623	0.275681	9	0.0213262	12	0	6.8012	0.000116233
2	1	0	1	0	0	177.421	0.424811	0.4251	0.276316	9	0.0214222	12	0	7.1512	0.000117462
2	1	0	1	0	0	177.771	0.428311	0.428556	0.27153	9	0.0215175	12	0	7.5012	0.000116366
2	1	0	1	0	0	178.121	0.431812	0.432089	0.266933	9	0.0216122	12	0	7.8514	0.000115339
2	1	0	1	0	0	178.471	0.435313	0.435572	0.267183	9	0.0217063	12	0	8.2014	0.000116377
2	1	0	1	0	0	178.821	0.438813	0.439057	0.269053	9	0.0217998	12	0	8.5514	0.00011813
2	1	0	1	0	0	179.172	0.442314	0.442585	0.266837	9	0.0218928	12	0	8.9016	0.000118098
2	1	0	1	0	0	179.522	0.445815	0.446098	0.262012	9	0.0219856	12	0	9.2516	0.000116883
2	1	0	1	0	0	179.872	0.449315	0.449628	0.262356	9	0.0220781	12	0	9.6016	0.000117963
2	1	0	1	0	0	180.165	0.447715	0.447995	0.00147462	9	0.02212	12	0	9.8954	6.60623e-07
2	0	0	1	0	0	180.515	0.444214	0.444489	-0.140004	9	0.0220901	12	0	0.3	-6.22304e-05
2	0	0	1	0	0	180.865	0.440714	0.440953	-0.185642	9	0.0220324	12	0	0.65	-8.18597e-05
2	0	0	1	0	0	181.216	0.437213	0.437467	-0.199963	9	0.021965	12	0	1.0002	-8.74774e-05
2	0	0	1	0	0	181.566	0.433712	0.43399	-0.207548	9	0.021893	12	0	1.3502	-9.00736e-05
2	0	0	1	0	0	181.916	0.430212	0.430502	-0.217281	9	0.021818	12	0	1.7002	-9.35398e-05
2	0	0	1	0	0	182.266	0.426711	0.426979	-0.226666	9	0.0217406	12	0	2.0504	-9.67814e-05
2	0	0	1	0	0	182.616	0.423211	0.423506	-0.230188	9	0.0216613	12	0	2.4004	-9.74859e-05
2	0	0	1	0	0	182.966	0.41971	0.420045	-0.232077	9	0.02158	12	0	2.7504	-9.74829e-05
2	0	0	1	0	0	183.316	0.416209	0.416515	-0.238463	9	0.0214969	12	0	3.1006	-9.93232e-05
2	0	0	1	0	0	183.666	0.412709	0.413013	-0.246609	9	0.0214121	12	0	3.4506	-0.000101853
2	0	0	1	0	0	184.016	0.409208	0.409499	-0.252633	9	0.0213256	12	0	3.8006	-0.000103453
2	0	0	1	0	0	184.366	0.405707	0.406001	-0.251991	9	0.0212372	12	0	4.1508	-0.000102309
2	0	0	1	0	0	184.716	0.402207	0.402469	-0.257058	9	0.0211473	12	0	4.5008	-0.000103458
2	0	0	1	0	0	185.066	0.398706	0.398986	-0.265157	9	0.0210559	12	0	4.8508	-0.000105794
2	0	0	1	0	0	185.416	0.395205	0.395499	-0.270782	9	0.0209628	12	0	5.2009	-0.000107094
2	0	0	1	0	0	185.766	0.391705	0.391992	-0.271891	9	0.020868	12	0	5.551	-0.000106579
2	0	0	1	0	0	186.116	0.388204	0.388476	-0.275641	9	0.0207714	12	0	5.901	-0.00010708
2	0	0	1	0	0	186.466	0.384704	0.384962	-0.283922	9	0.0206731	12	0	6.251	-0.000109299
2	0	0	1	0	0	186.817	0.381203	0.381466	-0.290778	9	0.0205731	12	0	6.6012	-0.000110922
2	0	0	1	0	0	187.167	0.377702	0.378003	-0.293447	9	0.0204713	12	0	6.9512	-0.000110924
2	0	0	1	0	0	187.517	0.374202	0.374496	-0.295825	9	0.0203676	12	0	7.3012	-0.000110785
2	0	0	1	0	0	187.867	0.370701	0.370981	-0.304304	9	0.020262	12	0	7.6514	-0.000112891
2	0	0	1	0	0	188.217	0.367201	0.367464	-0.312554	9	0.0201545	12	0	8.0014	-0.000114852
2	0	0	1	0	0	188.567	0.3637	0.363987	-0.316422	9	0.0200451	12	0	8.3514	-0.000115173
2	0	0	1	0	0	188.917	0.360199	0.360492	-0.318378	9	0.0199335	12	0	8.7016	-0.000114773
2	0	0	1	0	0	189.267	0.356699	0.356975	-0.326111	9	0.0198199	12	0	9.0516	-0.000116414
2	0	0	1	0	0	189.617	0.353198	0.353473	-0.335452	9	0.0197044	12	0	9.4016	-0.000118573
2	0	0	1	0	1	189.935	0.350023	0.350377	-0.335733	9	0.0195977	12	0	9.7195	-0.000117633
2	1	0	1	0	1	190.262	0.353298	0.353597	0.0439616	10	0.0195596	12	0	0.000000000000000E+000	1.55447e-05
2	1	0	1	0	1	190.612	0.356799	0.357088	0.202974	10	0.0196071	12	0	0.35	7.24796e-05
2	1	0	1	0	1	190.962	0.360299	0.360571	0.267338	10	0.0196918	12	0	0.7	9.63944e-05
2	1	0	1	0	1	191.312	0.3638	0.364072	0.296679	10	0.0197917	12	0	1.0502	0.000108012
2	1	0	1	0	1	191.662	0.367301	0.367626	0.309925	10	0.0198977	12	0	1.4002	0.000113937
2	1	0	1	0	1	192.012	0.370801	0.371073	0.310314	10	0.0200058	12	0	1.7502	0.000115149
2	1	0	1	0	1	192.363	0.374302	0.374594	0.307634	10	0.0201145	12	0	2.1004	0.000115238
2	1	0	1	0	1	192.713	0.377803	0.378039	0.307797	10	0.0202228	12	0	2.4504	0.000116359
2	1	0	1	0	1	193.063	0.381303	0.381558	0.308831	10	0.0203305	12	0	2.8004	0.000117837
2	1	0	1	0	1	193.413	0.384804	0.385079	0.304614	10	0.0204372	12	0	3.1506	0.0001173
2	1	0	1	0	1	193.763	0.388304	0.38857	0.29777	10	0.0205429	12	0	3.5006	0.000115704
2	1	0	1	0	1	194.113	0.391805	0.392103	0.296061	10	0.0206476	12	0	3.8506	0.000116086
2	1	0	1	0	1	194.463	0.395306	0.395582	0.296208	10	0.0207512	12	0	4.2008	0.000117174
2	1	0	1	0	1	194.813	0.398806	0.399087	0.293589	10	0.0208536	12	0	4.5508	0.000117168
2	1	0	1	0	1	195.163	0.402307	0.402593	0.286465	10	0.020955	12	0	4.9008	0.000115329
2	1	0	1	0	1	195.513	0.405807	0.406064	0.283017	10	0.0210554	12	0	5.2508	0.000114923
2	1	0	1	0	1	195.863	0.409308	0.409561	0.283591	10	0.0211548	12	0	5.601	0.000116148
2	1	0	1	0	1	196.213	0.412809	0.41309	0.283307	10	0.0212535	12	0	5.951	0.000117031
2	1	0	1	0	1	196.563	0.416309	0.416619	0.276493	10	0.0213511	12	0	6.301	0.000115192
2	1	0	1	0	1	196.913	0.41981	0.42009	0.271721	10	0.0214478	12	0	6.6512	0.000114147
2	1	0	1	0	1	197.263	0.423311	0.423618	0.273017	10	0.0215435	12	0	7.0012	0.000115655
2	1	0	1	0	1	197.613	0.426811	0.427073	0.272553	10	0.0216384	12	0	7.3512	0.0001164
2	1	0	1	0	1	197.964	0.430312	0.430598	0.268534	10	0.0217326	12	0	7.7014	0.00011563
2	1	0	1	0	1	198.314	0.433812	0.434079	0.263436	10	0.0218262	12	0	8.0514	0.000114352
2	1	0	1	0	1	198.664	0.437313	0.43759	0.264517	10	0.0219192	12	0	8.4014	0.00011575
2	1	0	1	0	1	199.014	0.440814	0.441088	0.265335	10	0.0220117	12	0	8.7516	0.000117036
2	1	0	1	0	1	199.364	0.444314	0.44458	0.264016	10	0.0221037	12	0	9.1016	0.000117376
2	1	0	1	0	1	199.714	0.447815	0.448102	0.259465	10	0.0221955	12	0	9.4516	0.000116267
2	1	0	1	0	1	200.008	0.449215	0.449499	0.14452	10	0.0222671	12	0	9.7454	6.49616e-05
2	0	0	1	0	1	200.358	0.445715	0.445987	-0.0996497	10	0.0222643	12	0	0.15	-4.44425e-05
2	0	0	1	0	1	200.708	0.442214	0.442503	-0.171346	10	0.0222142	12	0	0.5	-7.58212e-05
2	0	0	1	0	1	201.058	0.438713	0.438996	-0.197648	10	0.0221495	12	0	0.8502	-8.67668e-05
2	0	0	1	0	1	201.408	0.435213	0.435476	-0.206642	10	0.0220789	12	0	1.2002	-8.99876e-05
2	0	0	1	0	1	201.758	0.431712	0.431998	-0.212202	10	0.0220049	12	0	1.5502	-9.1671e-05
2	0	0	1	0	1	202.108	0.428211	0.428477	-0.221819	10	0.0219284	12	0	1.9004	-9.50445e-05
2	0	0	1	0	1	202.458	0.424711	0.42501	-0.230011	10	0.02185	12	0	2.2504	-9.7757e-05
2	0	0	1	0	1	202.808	0.42121	0.421461	-0.233278	10	0.0217696	12	0	2.6004	-9.83175e-05
2	0	0	1	0	1	203.158	0.41771	0.418024	-0.234669	10	0.0216873	12	0	2.9504	-9.80972e-05
2	0	0	1	0	1	203.508	0.414209	0.414488	-0.241183	10	0.0216032	12	0	3.3006	-9.99677e-05
2	0	0	1	0	1	203.858	0.410708	0.411001	-0.249344	10	0.0215177	12	0	3.6506	-0.000102481
2	0	0	1	0	1	204.208	0.407208	0.407441	-0.254057	10	0.02143	12	0	4.0006	-0.000103513
2	0	0	1	0	1	204.558	0.403707	0.403998	-0.254751	10	0.021341	12	0	4.3508	-0.000102919
2	0	0	1	0	1	204.908	0.400207	0.4005	-0.259022	10	0.0212503	12	0	4.7008	-0.000103738
2	0	0	1	0	1	205.258	0.396706	0.396981	-0.267791	10	0.0211581	12	0	5.0508	-0.000106308
2	0	0	1	0	1	205.609	0.393205	0.393498	-0.272808	10	0.0210641	12	0	5.401	-0.00010735
2	0	0	1	0	1	205.959	0.389705	0.389992	-0.274307	10	0.0209685	12	0	5.751	-0.000106978
2	0	0	1	0	1	206.309	0.386204	0.386488	-0.277808	10	0.0208712	12	0	6.101	-0.000107369
2	0	0	1	0	1	206.659	0.382703	0.382985	-0.28647	10	0.0207721	12	0	6.4512	-0.000109714
2	0	0	1	0	1	207.009	0.379203	0.3795	-0.293016	10	0.0206714	12	0	6.8012	-0.0001112
2	0	0	1	0	1	207.359	0.375702	0.37597	-0.295415	10	0.0205687	12	0	7.1512	-0.000111067
2	0	0	1	0	1	207.709	0.372201	0.372505	-0.298344	10	0.0204641	12	0	7.5014	-0.000111135
2	0	0	1	0	1	208.059	0.368701	0.369023	-0.306996	10	0.0203577	12	0	7.8514	-0.000113289
2	0	0	1	0	1	208.409	0.3652	0.365523	-0.315381	10	0.0202494	12	0	8.2014	-0.000115279
2	0	0	1	0	1	208.759	0.3617	0.361998	-0.317882	10	0.0201391	12	0	8.5514	-0.000115073
2	0	0	1	0	1	209.109	0.358199	0.358464	-0.32142	10	0.0200267	12	0	8.9016	-0.000115217
2	0	0	1	0	1	209.459	0.354698	0.354946	-0.32893	10	0.0199123	12	0	9.2516	-0.000116752
2	0	0	1	0	1	209.809	0.351198	0.351457	-0.338359	10	0.0197959	12	0	9.6016	-0.000118919
2	0	0	1	0	1	209.927	0.350023	0.350205	-0.335835	10	0.0197564	12	0	9.7191	-0.000117611