File: ACS_Catal_2026/Figures_Na_K/main_figures/data/EC/20240126_2-102_Add_Na/20240125_2-102_001_preconditioning_elctrode1_02_PEIS_C01.mpt
EC-Lab ASCII FILE
Nb header lines : 63

Potentio Electrochemical Impedance Spectroscopy

Run on channel : 1 (SN 66412)
User :
CE vs. WE compliance from -10 V to 10 V
Electrode connection : standard
Potential control : Ewe
Ewe ctrl range : min = -1.00 V, max = 1.00 V
Safety Limits :
	Do not start on E overload
Acquisition started on : 01/26/2024 15:44:18.212
Loaded Setting File :  C:\Users\NakamuraT\Documents\EC-Lab\Data\Yatsuzuka\20240125_2-101_K_new_condition\20240125_2-101_001_preconditioning_EIS_elctrode1.mps
Saved on :
	File : 20240125_2-102_001_preconditioning_elctrode1_02_PEIS_C01.mpr
	Directory : C:\Users\NakamuraT\Documents\EC-Lab\Data\Yatsuzuka\20240126_2-102_Add_Na\
	Host : 192.109.209.100
Device : SP-150e (SN .003411)
Address : 192.109.209.236
EC-Lab for windows v11.50 (software)
Internet server v11.50 (firmware)
Command interpretor v11.50 (firmware)
Electrode material :
Initial state :
Electrolyte :
Comments :
Electrode surface area : 0.001 cm2
Characteristic mass : 0.001 g
Equivalent Weight : 0.000 g/eq.
Density : 0.000 g/cm3
Volume (V) : 0.001 cm3
Cycle Definition : Charge/Discharge alternance
Mode                Single sine
E (V)               0.4000
vs.                 Eoc
tE (h:m:s)          0:00:0.0000
record              0
dI                  0.000
unit dI             mA
dt (s)              0.000
fi                  500.000
unit fi             kHz
ff                  1.000
unit ff             Hz
Nd                  6
Points              per decade
spacing             Logarithmic
Va (mV)             10.0
pw                  0.10
Na                  2
corr                0
E range min (V)     -1.000
E range max (V)     1.000
I Range             Auto
Bandwidth           5
nc cycles           0
goto Ns'            0
nr cycles           0
inc. cycle          0

freq/Hz	Re(Z)/Ohm	-Im(Z)/Ohm	|Z|/Ohm	Phase(Z)/deg	time/s	<Ewe>/V	<I>/mA	Cs/uF	Cp/uF	cycle number	I Range	|Ewe|/V	|I|/A	Ns	(Q-Qo)/mA.h	Re(Y)/Ohm-1	Im(Y)/Ohm-1	|Y|/Ohm-1	Phase(Y)/deg	Re(C)/nF	Im(C)/nF	|C|/nF	Phase(C)/deg	Re(M)	Im(M)	|M|	Phase(M)/deg	Re(Permittivity)	Im(Permittivity)	|Permittivity|	Phase(Permittivity)/deg	Re(Resistivity)/Ohm.cm	Im(Resistivity)/Ohm.cm	|Resistivity|/Ohm.cm	Phase(Resistivity)/deg	Re(Conductivity)/mS/cm	Im(Conductivity)/mS/cm	|Conductivity|/mS/cm	Phase(Conductivity)/deg	Tan(Delta)	Loss Angle(Delta)/deg	dq/mA.h
500019	21.1522	-4.04827	21.5361	10.8347	211.007	0.373512	0.0996176	-0.0786257	-0.00277824	1	10	0.00948868	0.000440594	0	7.51769e-05	0.0456059	-0.00872841	0.0464336	-10.8347	-2.77824	14.5163	14.7797	-100.835	0.0000000E+000	0.0000000E+000	0.0000000E+000	100.835	0.0000000E+000	0.0000000E+000	0.0000000E+000	-100.835	0.0000000E+000	0.0000000E+000	0.0000000E+000	10.8347	0.0000000E+000	0.0000000E+000	0.0000000E+000	-10.8347	5.22499	79.1653	7.51769e-05
339899	14.3029	-3.15912	14.6476	12.4551	211.43	0.373433	0.0211969	-0.148219	-0.00689445	1	10	0.0103787	0.00070856	0	8.02196e-05	0.0666637	-0.0147242	0.0682704	-12.4551	-6.89446	31.2147	31.967	-102.455	0.0000000E+000	0.0000000E+000	0.0000000E+000	102.455	0.0000000E+000	0.0000000E+000	0.0000000E+000	-102.455	0.0000000E+000	0.0000000E+000	0.0000000E+000	12.4551	0.0000000E+000	0.0000000E+000	0.0000000E+000	-12.4551	4.52751	77.5449	5.04272e-06
231063	12.0132	-1.8463	12.1543	8.73734	211.852	0.373389	-0.00298724	-0.373069	-0.00860862	1	10	0.0109238	0.000898762	0	7.95388e-05	0.0813207	-0.0124981	0.0822755	-8.73734	-8.60862	56.0134	56.6711	-98.7373	0.0000000E+000	0.0000000E+000	0.0000000E+000	98.7373	0.0000000E+000	0.0000000E+000	0.0000000E+000	-98.7373	0.0000000E+000	0.0000000E+000	0.0000000E+000	8.73734	0.0000000E+000	0.0000000E+000	0.0000000E+000	-8.73734	6.50667	81.2627	-6.80849e-07
157076	11.2742	-0.998681	11.3184	5.06209	212.41	0.373388	-0.00775092	-1.01457	-0.00789894	1	10	0.0101055	0.000892838	0	7.91316e-05	0.0880072	-0.00779575	0.0883518	-5.06209	-7.89894	89.1721	89.5213	-95.0621	0.0000000E+000	0.0000000E+000	0.0000000E+000	95.0621	0.0000000E+000	0.0000000E+000	0.0000000E+000	-95.0621	0.0000000E+000	0.0000000E+000	0.0000000E+000	5.06209	0.0000000E+000	0.0000000E+000	0.0000000E+000	-5.06209	11.2891	84.9379	-4.07127e-07
106786	11.0781	-0.560863	11.0923	2.89829	212.832	0.373401	-0.0095534	-2.65734	-0.00679386	1	10	0.0107642	0.000970422	0	7.71346e-05	0.0900371	-0.0045584	0.0901525	-2.89829	-6.79386	134.192	134.364	-92.8983	0.0000000E+000	0.0000000E+000	0.0000000E+000	92.8983	0.0000000E+000	0.0000000E+000	0.0000000E+000	-92.8983	0.0000000E+000	0.0000000E+000	0.0000000E+000	2.89829	0.0000000E+000	0.0000000E+000	0.0000000E+000	-2.89829	19.7519	87.1017	-1.99708e-06
72595	10.9998	-0.345581	11.0053	1.79946	213.254	0.373407	-0.0122366	-6.34401	-0.0062555	1	10	0.0106206	0.000965044	0	7.52742e-05	0.0908208	-0.00285331	0.0908656	-1.79946	-6.25549	199.113	199.211	-91.7995	0.0000000E+000	0.0000000E+000	0.0000000E+000	91.7995	0.0000000E+000	0.0000000E+000	0.0000000E+000	-91.7995	0.0000000E+000	0.0000000E+000	0.0000000E+000	1.79946	0.0000000E+000	0.0000000E+000	0.0000000E+000	-1.79946	31.83	88.2005	-1.86036e-06
49352.4	10.9649	-0.216387	10.9671	1.13056	213.676	0.37341	-0.0112234	-14.9032	-0.00580181	1	10	0.0104795	0.000955542	0	7.33747e-05	0.0911644	-0.00179908	0.0911821	-1.13056	-5.8018	293.993	294.051	-91.1306	0.0000000E+000	0.0000000E+000	0.0000000E+000	91.1306	0.0000000E+000	0.0000000E+000	0.0000000E+000	-91.1306	0.0000000E+000	0.0000000E+000	0.0000000E+000	1.13056	0.0000000E+000	0.0000000E+000	0.0000000E+000	-1.13056	50.6727	88.8694	-1.89946e-06
33551.1	10.945	-0.140637	10.9459	0.736178	214.099	0.373404	-0.0108316	-33.7299	-0.00556817	1	10	0.0104036	0.00095046	0	7.06818e-05	0.0913512	-0.00117381	0.0913588	-0.736178	-5.56815	433.339	433.375	-90.7362	0.0000000E+000	0.0000000E+000	0.0000000E+000	90.7362	0.0000000E+000	0.0000000E+000	0.0000000E+000	-90.7362	0.0000000E+000	0.0000000E+000	0.0000000E+000	0.736178	0.0000000E+000	0.0000000E+000	0.0000000E+000	-0.736178	77.8244	89.2638	-2.69296e-06
22806.6	10.9405	-0.0904896	10.9408	0.473889	214.522	0.373406	-0.0137853	-77.119	-0.00527545	1	10	0.0103284	0.000944021	0	6.86044e-05	0.0913977	-0.00075596	0.0914008	-0.473889	-5.27548	637.816	637.838	-90.4739	0.0000000E+000	0.0000000E+000	0.0000000E+000	90.4739	0.0000000E+000	0.0000000E+000	0.0000000E+000	-90.4739	0.0000000E+000	0.0000000E+000	0.0000000E+000	0.473889	0.0000000E+000	0.0000000E+000	0.0000000E+000	-0.473889	120.903	89.5261	-2.07738e-06
15504.4	10.9416	-0.0644959	10.9418	0.337729	214.944	0.373406	-0.0128393	-159.16	-0.00552993	1	10	0.0102213	0.000934148	0	6.55959e-05	0.091391	-0.000538708	0.0913925	-0.337729	-5.52995	938.143	938.159	-90.3377	0.0000000E+000	0.0000000E+000	0.0000000E+000	90.3377	0.0000000E+000	0.0000000E+000	0.0000000E+000	-90.3377	0.0000000E+000	0.0000000E+000	0.0000000E+000	0.337729	0.0000000E+000	0.0000000E+000	0.0000000E+000	-0.337729	169.648	89.6623	-3.00848e-06
10540.4	10.9354	-0.0469412	10.9355	0.245946	215.366	0.373415	-0.0115947	-321.669	-0.00592707	1	10	0.0101061	0.000924155	0	6.36437e-05	0.0914444	-0.000392533	0.0914452	-0.245946	-5.92714	1380.77	1380.78	-90.2459	0.0000000E+000	0.0000000E+000	0.0000000E+000	90.2459	0.0000000E+000	0.0000000E+000	0.0000000E+000	-90.2459	0.0000000E+000	0.0000000E+000	0.0000000E+000	0.245946	0.0000000E+000	0.0000000E+000	0.0000000E+000	-0.245946	232.96	89.7541	-1.95219e-06
7163.78	10.9331	-0.022702	10.9331	0.118972	215.722	0.373385	-0.0140913	-978.617	-0.00421943	1	10	0.0106894	0.000977704	0	6.20941e-05	0.0914649	-0.000189922	0.0914651	-0.118972	-4.21947	2032.04	2032.04	-90.119	0.0000000E+000	0.0000000E+000	0.0000000E+000	90.119	0.0000000E+000	0.0000000E+000	0.0000000E+000	-90.119	0.0000000E+000	0.0000000E+000	0.0000000E+000	0.118972	0.0000000E+000	0.0000000E+000	0.0000000E+000	-0.118972	481.591	89.881	-1.54964e-06
4871.56	10.9327	-0.020171	10.9327	0.105712	216.411	0.373432	-0.0112327	-1619.66	-0.00551347	1	10	0.0101631	0.000929605	0	6.17473e-05	0.0914685	-0.000168761	0.0914687	-0.105712	-5.51353	2988.3	2988.3	-90.1057	0.0000000E+000	0.0000000E+000	0.0000000E+000	90.1057	0.0000000E+000	0.0000000E+000	0.0000000E+000	-90.1057	0.0000000E+000	0.0000000E+000	0.0000000E+000	0.105712	0.0000000E+000	0.0000000E+000	0.0000000E+000	-0.105712	542	89.8943	-3.46763e-07
3311.06	10.9323	-0.0067436	10.9324	0.0353428	216.876	0.373428	-0.0113409	-7127.89	-0.00271218	1	10	0.0103018	0.000942325	0	6.11539e-05	0.0914716	-5.64241e-05	0.0914716	-0.0353428	-2.71191	4396.83	4396.83	-90.0353	0.0000000E+000	0.0000000E+000	0.0000000E+000	90.0353	0.0000000E+000	0.0000000E+000	0.0000000E+000	-90.0353	0.0000000E+000	0.0000000E+000	0.0000000E+000	0.0353428	0.0000000E+000	0.0000000E+000	0.0000000E+000	-0.0353428	1621.14	89.9647	-5.93475e-07
2250.72	10.9309	-0.00286842	10.9309	0.0150352	217.342	0.373431	-0.0114193	-24652.2	-0.00169757	1	10	0.0103727	0.000948933	0	5.91598e-05	0.0914835	-2.40065e-05	0.0914835	-0.0150352	-1.69784	6469.06	6469.06	-90.015	0.0000000E+000	0.0000000E+000	0.0000000E+000	90.015	0.0000000E+000	0.0000000E+000	0.0000000E+000	-90.015	0.0000000E+000	0.0000000E+000	0.0000000E+000	0.0150352	0.0000000E+000	0.0000000E+000	0.0000000E+000	-0.0150352	3810.78	89.985	-1.99401e-06
1530.49	10.9302	-0.00184241	10.9302	0.00965789	217.808	0.373432	-0.0109958	-56442.1	-0.0016037	1	10	0.0104105	0.000952455	0	5.7181e-05	0.0914899	-1.54217e-05	0.0914899	-0.00965789	-1.60385	9513.99	9513.99	-90.0097	0.0000000E+000	0.0000000E+000	0.0000000E+000	90.0097	0.0000000E+000	0.0000000E+000	0.0000000E+000	-90.0097	0.0000000E+000	0.0000000E+000	0.0000000E+000	0.00965789	0.0000000E+000	0.0000000E+000	0.0000000E+000	-0.00965789	5932.54	89.9903	-1.97888e-06
1040.33	10.9287	0.00130247	10.9287	-0.00682848	218.273	0.373434	-0.0107084	117457	0.00166833	1	10	0.010422	0.000953641	0	5.59255e-05	0.0915024	1.09052e-05	0.0915024	0.00682848	1.66829	13998.5	13998.5	-89.9932	0.0000000E+000	0.0000000E+000	0.0000000E+000	89.9932	0.0000000E+000	0.0000000E+000	0.0000000E+000	-89.9932	0.0000000E+000	0.0000000E+000	0.0000000E+000	-0.00682848	0.0000000E+000	0.0000000E+000	0.0000000E+000	0.00682848	8390.71	89.9932	-1.25548e-06
707.036	10.9285	0.00928651	10.9285	-0.0486873	218.738	0.373431	-0.0115443	24239.6	0.017503	1	10	0.0104274	0.000954151	0	5.41425e-05	0.091504	7.77559e-05	0.091504	0.0486873	17.5042	20597.7	20597.7	-89.9513	0.0000000E+000	0.0000000E+000	0.0000000E+000	89.9513	0.0000000E+000	0.0000000E+000	0.0000000E+000	-89.9513	0.0000000E+000	0.0000000E+000	0.0000000E+000	-0.0486873	0.0000000E+000	0.0000000E+000	0.0000000E+000	0.0486873	1176.81	89.9513	-1.78293e-06
480.769	10.9367	0.015256	10.9368	-0.0799235	219.203	0.373435	-0.0113391	21699.2	0.0422227	1	10	0.0104358	0.000954194	0	5.25133e-05	0.0914347	0.000127545	0.0914348	0.0799235	42.2238	30268.7	30268.8	-89.9201	0.0000000E+000	0.0000000E+000	0.0000000E+000	89.9201	0.0000000E+000	0.0000000E+000	0.0000000E+000	-89.9201	0.0000000E+000	0.0000000E+000	0.0000000E+000	-0.0799235	0.0000000E+000	0.0000000E+000	0.0000000E+000	0.0799235	716.883	89.9201	-1.62929e-06
326.778	10.9274	0.0177957	10.9274	-0.0933085	219.666	0.373429	-0.0110331	27368.6	0.0725855	1	10	0.0104322	0.000954684	0	5.04804e-05	0.091513	0.000149033	0.0915131	0.0933085	72.5847	44570.8	44570.9	-89.9067	0.0000000E+000	0.0000000E+000	0.0000000E+000	89.9067	0.0000000E+000	0.0000000E+000	0.0000000E+000	-89.9067	0.0000000E+000	0.0000000E+000	0.0000000E+000	-0.0933085	0.0000000E+000	0.0000000E+000	0.0000000E+000	0.0933085	614.046	89.9067	-2.03283e-06
222.061	10.9252	0.0374099	10.9252	-0.196191	220.128	0.373427	-0.0113018	19158.5	0.224633	1	10	0.0104339	0.000955027	0	4.99704e-05	0.0915307	0.000313419	0.0915312	0.196191	224.631	65601.7	65602.1	-89.8038	0.0000000E+000	0.0000000E+000	0.0000000E+000	89.8038	0.0000000E+000	0.0000000E+000	0.0000000E+000	-89.8038	0.0000000E+000	0.0000000E+000	0.0000000E+000	-0.196191	0.0000000E+000	0.0000000E+000	0.0000000E+000	0.196191	292.039	89.8038	-5.10061e-07
151.015	10.939	0.0489599	10.9391	-0.256438	220.59	0.373433	-0.0110648	21525.8	0.431197	1	10	0.0104447	0.000954801	0	4.8405e-05	0.0914141	0.000409143	0.091415	0.256438	431.199	96341.5	96342.5	-89.7436	0.0000000E+000	0.0000000E+000	0.0000000E+000	89.7436	0.0000000E+000	0.0000000E+000	0.0000000E+000	-89.7436	0.0000000E+000	0.0000000E+000	0.0000000E+000	-0.256438	0.0000000E+000	0.0000000E+000	0.0000000E+000	0.256438	223.428	89.7436	-1.56533e-06
102.667	10.9351	0.0696783	10.9353	-0.365083	221.065	0.373433	-0.0113577	22248	0.903283	1	10	0.0104432	0.000954996	0	4.61026e-05	0.0914451	0.000582688	0.091447	0.365083	903.278	141758	141761	-89.6349	0.0000000E+000	0.0000000E+000	0.0000000E+000	89.6349	0.0000000E+000	0.0000000E+000	0.0000000E+000	-89.6349	0.0000000E+000	0.0000000E+000	0.0000000E+000	-0.365083	0.0000000E+000	0.0000000E+000	0.0000000E+000	0.365083	156.937	89.6349	-2.30241e-06
69.7545	10.9372	0.0976103	10.9377	-0.511328	221.532	0.373428	-0.0108763	23375	1.86163	1	10	0.0104412	0.000954612	0	4.40307e-05	0.0914235	0.000815917	0.0914272	0.511328	1861.64	208596	208604	-89.4887	0.0000000E+000	0.0000000E+000	0.0000000E+000	89.4887	0.0000000E+000	0.0000000E+000	0.0000000E+000	-89.4887	0.0000000E+000	0.0000000E+000	0.0000000E+000	-0.511328	0.0000000E+000	0.0000000E+000	0.0000000E+000	0.511328	112.05	89.4887	-2.07193e-06
47.4443	10.9445	0.135393	10.9454	-0.70876	221.976	0.37342	-0.0118466	24776.5	3.79115	1	10	0.0104451	0.00095429	0	4.13956e-05	0.0913559	0.00113015	0.0913628	0.70876	3791.17	306459	306482	-89.2912	0.0000000E+000	0.0000000E+000	0.0000000E+000	89.2912	0.0000000E+000	0.0000000E+000	0.0000000E+000	-89.2912	0.0000000E+000	0.0000000E+000	0.0000000E+000	-0.70876	0.0000000E+000	0.0000000E+000	0.0000000E+000	0.70876	80.8353	89.2912	-2.63512e-06
32.2387	10.9453	0.190982	10.947	-0.99964	222.413	0.37341	-0.0116414	25849.4	7.86771	1	10	0.0104407	0.000953755	0	4.03164e-05	0.0913356	0.00159369	0.0913495	0.99964	7867.72	450903	450972	-89.0004	0.0000000E+000	0.0000000E+000	0.0000000E+000	89.0004	0.0000000E+000	0.0000000E+000	0.0000000E+000	-89.0004	0.0000000E+000	0.0000000E+000	0.0000000E+000	-0.99964	0.0000000E+000	0.0000000E+000	0.0000000E+000	0.99964	57.3106	89.0004	-1.0792e-06
21.9144	10.9542	0.284364	10.9579	-1.48703	222.844	0.373403	-0.0109491	25539.7	17.1993	1	10	0.0104471	0.00095339	0	3.6134e-05	0.0912279	0.00236822	0.0912587	1.48703	17199.4	662548	662772	-88.513	0.0000000E+000	0.0000000E+000	0.0000000E+000	88.513	0.0000000E+000	0.0000000E+000	0.0000000E+000	-88.513	0.0000000E+000	0.0000000E+000	0.0000000E+000	-1.48703	0.0000000E+000	0.0000000E+000	0.0000000E+000	1.48703	38.5217	88.513	-4.18238e-06
14.9093	10.8769	0.38214	10.8836	-2.01215	223.311	0.373436	-0.013608	27934.4	34.4377	1	10	0.0104495	0.000960108	0	3.40854e-05	0.0918243	0.00322607	0.0918809	2.01215	34437.7	980210	980815	-87.9879	0.0000000E+000	0.0000000E+000	0.0000000E+000	87.9879	0.0000000E+000	0.0000000E+000	0.0000000E+000	-87.9879	0.0000000E+000	0.0000000E+000	0.0000000E+000	-2.01215	0.0000000E+000	0.0000000E+000	0.0000000E+000	2.01215	28.4632	87.9879	-2.04859e-06
10.1329	10.9576	0.593674	10.9737	-3.1012	223.771	0.373421	-0.0164815	26456.8	77.433	1	10	0.0104536	0.000952609	0	3.69125e-05	0.0909935	0.00492994	0.0911269	3.1012	77432.9	1.42921e+06	1.4313e+06	-86.8988	0.0000000E+000	0.0000000E+000	0.0000000E+000	86.8988	0.0000000E+000	0.0000000E+000	0.0000000E+000	-86.8988	0.0000000E+000	0.0000000E+000	0.0000000E+000	-3.1012	0.0000000E+000	0.0000000E+000	0.0000000E+000	3.1012	18.4573	86.8988	2.82711e-06
6.88933	10.9702	0.863793	11.0042	-4.50216	224.324	0.373411	0.000337445	26744.4	164.792	1	11	0.0104544	0.000950041	0	3.65412e-05	0.090594	0.00713334	0.0908744	4.50216	164792	2.09287e+06	2.09935e+06	-85.4978	0.0000000E+000	0.0000000E+000	0.0000000E+000	85.4978	0.0000000E+000	0.0000000E+000	0.0000000E+000	-85.4978	0.0000000E+000	0.0000000E+000	0.0000000E+000	-4.50216	0.0000000E+000	0.0000000E+000	0.0000000E+000	4.50216	12.7001	85.4978	-3.71277e-07
4.68375	10.9883	1.30238	11.0652	-6.7594	224.821	0.37342	0.00860526	26090.9	361.447	1	11	0.0104618	0.000945466	0	2.48916e-05	0.0897452	0.010637	0.0903734	6.7594	361447	3.04956e+06	3.07091e+06	-83.2406	0.0000000E+000	0.0000000E+000	0.0000000E+000	83.2406	0.0000000E+000	0.0000000E+000	0.0000000E+000	-83.2406	0.0000000E+000	0.0000000E+000	0.0000000E+000	-6.7594	0.0000000E+000	0.0000000E+000	0.0000000E+000	6.7594	8.4371	83.2406	-1.16496e-05
3.18099	11.0815	1.89019	11.2416	-9.67987	225.523	0.373421	-0.00605894	26469.9	748.358	1	11	0.0104625	0.000930694	0	2.53683e-05	0.0876889	0.0149572	0.0889554	9.67987	748359	4.38736e+06	4.45072e+06	-80.3201	0.0000000E+000	0.0000000E+000	0.0000000E+000	80.3201	0.0000000E+000	0.0000000E+000	0.0000000E+000	-80.3201	0.0000000E+000	0.0000000E+000	0.0000000E+000	-9.67987	0.0000000E+000	0.0000000E+000	0.0000000E+000	9.67987	5.86264	80.3201	4.76741e-07
2.16533	11.0728	2.73533	11.4057	-13.876	226.534	0.373436	-4.65039e-05	26871.2	1545.48	1	11	0.0104606	0.000917139	0	4.32861e-05	0.0851169	0.0210265	0.0876755	13.876	1.54548e+06	6.25622e+06	6.44429e+06	-76.124	0.0000000E+000	0.0000000E+000	0.0000000E+000	76.124	0.0000000E+000	0.0000000E+000	0.0000000E+000	-76.124	0.0000000E+000	0.0000000E+000	0.0000000E+000	-13.876	0.0000000E+000	0.0000000E+000	0.0000000E+000	13.876	4.04809	76.124	1.79178e-05
1.46962	11.2999	3.90917	11.957	-19.0829	228.004	0.373435	0.00521515	27703.2	2961.12	1	11	0.0104622	0.000874986	0	5.66885e-05	0.0790372	0.0273427	0.0836331	19.0829	2.96112e+06	8.55946e+06	9.05719e+06	-70.9171	0.0000000E+000	0.0000000E+000	0.0000000E+000	70.9171	0.0000000E+000	0.0000000E+000	0.0000000E+000	-70.9171	0.0000000E+000	0.0000000E+000	0.0000000E+000	-19.0829	0.0000000E+000	0.0000000E+000	0.0000000E+000	19.0829	2.89061	70.9171	1.34023e-05
1.00006	11.3286	5.75758	12.7077	-26.9412	230.143	0.373438	0.00329223	27640.9	5674.08	1	11	0.010462	0.000823275	0	4.35655e-05	0.0701519	0.0356536	0.0786922	26.9412	5.67408e+06	1.11643e+07	1.25235e+07	-63.0588	0.0000000E+000	0.0000000E+000	0.0000000E+000	63.0588	0.0000000E+000	0.0000000E+000	0.0000000E+000	-63.0588	0.0000000E+000	0.0000000E+000	0.0000000E+000	-26.9412	0.0000000E+000	0.0000000E+000	0.0000000E+000	26.9412	1.9676	63.0588	-1.3123e-05