File: ACS_Catal_2026/Figures_Na_K/main_figures/data/EC/20240126_2-102_Add_Na/20240125_2-102_006_add_Na_5mL_elctrode2_C02.mpt
EC-Lab ASCII FILE
Nb header lines : 66

Cyclic Voltammetry Advanced

Run on channel : 2 (SN 66414)
User :
CE vs. WE compliance from -10 V to 10 V
Electrode connection : standard
Potential control : Ewe
Ewe ctrl range : min = -1.00 V, max = 1.00 V
Safety Limits :
	Do not start on E overload
Acquisition started on : 01/26/2024 16:20:08.438
Loaded Setting File :  C:\Users\NakamuraT\Documents\EC-Lab\Data\Yatsuzuka\20240126_2-102_Add_Na\20240125_2-102_003_K_elctrode1_C01.mpr
Saved on :
	File : 20240125_2-102_006_add_Na_5mL_elctrode2_C02.mpr
	Directory : C:\Users\NakamuraT\Documents\EC-Lab\Data\Yatsuzuka\20240126_2-102_Add_Na\
	Host : 192.109.209.100
Device : SP-150e (SN .003411)
Address : 192.109.209.236
EC-Lab for windows v11.50 (software)
Internet server v11.50 (firmware)
Command interpretor v11.50 (firmware)
Electrode material :
Initial state :
Electrolyte :
Comments :
Electrode surface area : 0.001 cm2
Characteristic mass : 0.001 g
Equivalent Weight : 0.000 g/eq.
Density : 0.000 g/cm3
Volume (V) : 0.001 cm3
Cycle Definition : Charge/Discharge alternance
Ei (V)              0.450
vs.                 Ref
ti (h:m:s)          0:00:10.0000
dti (s)             0.0000
dE/dt               5.000
dE/dt unit          mV/s
E1 (V)              0.700
vs.                 Ref
t1 (h:m:s)          0:00:0.0000
dt1 (s)             0.1000
Step percent        50
N                   10
E range min (V)     -1.000
E range max (V)     1.000
I Range             10 mA
I Range min         Unset
I Range max         Unset
I Range init        Unset
Bandwidth           5
E2 (V)              0.450
vs.                 Ref
t2 (h:m:s)          0:00:0.0000
dt2 (s)             0.1000
nc cycles           14
nr                  1
Reverse Scan        0
Ef (V)              0.000
vs.                 Eoc
tf (h:m:s)          0:00:0.0000
dtf (s)             0.1000

mode	ox/red	error	control changes	Ns changes	counter inc.	time/s	control/V	Ewe/V	<I>/mA	cycle number	(Q-Qo)/C	I Range	Ns	step time/s	P/W
2	1	0	1	0	0	0.000000000000000E+000	0.449961	0.450216	0.00276917	1	0.0000000E+000	11	0	0.000000000000000E+000	1.24673e-06
2	1	0	0	0	0	2.4552	0.462238	0.462522	0.058371	1	0.000129231	11	0	2.4002	2.69979e-05
2	1	0	0	0	0	4.9556	0.474739	0.475091	0.0574722	1	0.000274857	11	0	4.9006	2.73045e-05
2	1	0	1	0	0	7.4558	0.487241	0.487618	0.0639186	1	0.000426248	11	0	7.4008	3.11678e-05
2	1	0	1	0	0	9.9562	0.499743	0.500094	0.0649234	1	0.000586186	11	0	9.9012	3.24678e-05
2	1	0	1	0	0	12.4566	0.512244	0.51253	0.0768061	1	0.000763756	11	0	12.4016	3.93655e-05
2	1	0	0	0	0	14.9568	0.524746	0.525004	0.0936596	1	0.000973774	11	0	14.9018	4.91717e-05
2	1	0	0	0	0	17.4572	0.537247	0.53751	0.122354	1	0.00124182	11	0	17.4022	6.57664e-05
2	1	0	1	0	0	19.9575	0.549749	0.550056	0.177474	1	0.00161081	11	0	19.9025	9.76207e-05
2	1	0	1	0	0	22.4578	0.562251	0.562507	0.2602	1	0.00214999	11	0	22.4028	0.000146365
2	1	0	1	0	0	24.9582	0.574752	0.575089	0.398501	1	0.00296478	11	0	24.9032	0.000229174
2	1	0	0	0	0	27.4584	0.587254	0.587527	0.601197	1	0.00419779	11	0	27.4034	0.00035322
2	1	0	0	0	0	29.9588	0.599755	0.600089	0.877352	1	0.00603168	11	0	29.9038	0.000526489
2	1	0	0	0	0	32.4592	0.612257	0.612584	1.24314	1	0.00866853	11	0	32.4042	0.000761528
2	1	0	1	0	0	34.9594	0.624759	0.625072	1.68433	1	0.0123123	11	0	34.9044	0.00105283
2	1	0	1	0	0	37.4598	0.63726	0.637563	2.19254	1	0.0171501	11	0	37.4048	0.00139788
2	1	0	0	0	0	39.96	0.649762	0.650088	2.76339	1	0.0233394	11	0	39.905	0.00179645
2	1	0	0	0	0	42.4604	0.662264	0.662515	3.38486	1	0.0310162	11	0	42.4054	0.00224252
2	1	0	0	0	0	44.9608	0.674765	0.675068	4.03605	1	0.040289	11	0	44.9058	0.0027246
2	1	0	1	0	0	47.461	0.687267	0.687501	4.72708	1	0.0512439	11	0	47.406	0.00324988
2	1	0	1	0	0	49.9564	0.699743	0.700067	5.45007	1	0.0639476	11	0	49.9014	0.00381542
2	1	0	0	0	0	52.268	0.688667	0.689029	4.74147	1	0.0757392	11	0	52.213	0.00326701
2	1	0	1	0	0	54.7682	0.676165	0.676427	4.00826	1	0.0866648	11	0	54.7132	0.0027113
2	1	0	1	0	0	57.2686	0.663664	0.663952	3.34302	1	0.095837	11	0	57.2136	0.0022196
2	1	0	0	0	0	59.7688	0.651162	0.651494	2.72002	1	0.103411	11	0	59.7138	0.00177208
2	1	0	0	0	0	62.2692	0.63866	0.638914	2.146	1	0.109486	11	0	62.2142	0.00137111
2	1	0	0	0	0	64.7696	0.626159	0.626418	1.62539	1	0.114186	11	0	64.7146	0.00101817
2	1	0	1	0	0	67.2698	0.613657	0.613902	1.17783	1	0.117668	11	0	67.2148	0.000723074
2	1	0	1	0	0	69.7702	0.601156	0.601413	0.807559	1	0.120129	11	0	69.7152	0.000485676
2	1	0	1	0	0	72.2705	0.588654	0.588974	0.523223	1	0.121778	11	0	72.2155	0.000308165
2	1	0	0	0	0	74.7708	0.576152	0.576428	0.318761	1	0.122816	11	0	74.7158	0.000183743
2	1	0	0	0	0	77.2712	0.563651	0.563975	0.178828	1	0.123422	11	0	77.2162	0.000100855
2	1	0	1	0	0	79.7714	0.551149	0.551386	0.08394	1	0.123739	11	0	79.7164	4.62833e-05
2	1	0	1	0	0	82.2718	0.538647	0.53896	0.0253125	1	0.123872	11	0	82.2168	1.36424e-05
2	0	0	1	0	0	84.7722	0.526146	0.526472	-0.00637527	1	0.123893	11	0	0.5002	-3.3564e-06
2	0	0	0	0	0	87.2724	0.513644	0.51394	-0.0250634	1	0.123849	11	0	3.0004	-1.28811e-05
2	0	0	0	0	0	89.7728	0.501143	0.501486	-0.038183	1	0.123766	11	0	5.5008	-1.91482e-05
2	0	0	1	0	0	92.273	0.488641	0.489	-0.0480578	1	0.123658	11	0	8.001	-2.35002e-05
2	0	0	1	0	0	94.7734	0.476139	0.476377	-0.052227	1	0.123536	11	0	10.5014	-2.48798e-05
2	0	0	1	0	0	97.2738	0.463638	0.463897	-0.0540545	1	0.123404	11	0	13.0018	-2.50757e-05
2	0	0	0	0	0	99.774	0.451136	0.451445	-0.0558342	1	0.123263	11	0	15.502	-2.52061e-05
2	1	0	0	0	1	102.152	0.460787	0.461062	0.0545393	2	0.123345	11	0	1.9002	2.5146e-05
2	1	0	0	0	1	104.652	0.473289	0.473545	0.054932	2	0.123482	11	0	4.4006	2.60127e-05
2	1	0	1	0	1	107.152	0.485791	0.486105	0.0562741	2	0.123624	11	0	6.9008	2.73551e-05
2	1	0	1	0	1	109.653	0.498292	0.498558	0.0615886	2	0.123775	11	0	9.4012	3.07055e-05
2	1	0	0	0	1	112.153	0.510794	0.511146	0.072425	2	0.123942	11	0	11.9014	3.70198e-05
2	1	0	0	0	1	114.653	0.523296	0.523588	0.0885483	2	0.124138	11	0	14.4018	4.63628e-05
2	1	0	0	0	1	117.154	0.535797	0.536166	0.115088	2	0.124385	11	0	16.9022	6.17062e-05
2	1	0	1	0	1	119.654	0.548299	0.548637	0.159771	2	0.12472	11	0	19.4024	8.76562e-05
2	1	0	1	0	1	122.154	0.5608	0.561133	0.236262	2	0.125206	11	0	21.9028	0.000132574
2	1	0	1	0	1	124.655	0.573302	0.573676	0.359531	2	0.125936	11	0	24.4032	0.000206254
2	1	0	0	0	1	127.155	0.585804	0.586113	0.545486	2	0.12705	11	0	26.9034	0.000319717
2	1	0	0	0	1	129.655	0.598305	0.598651	0.808309	2	0.128722	11	0	29.4038	0.000483895
2	1	0	1	0	1	132.156	0.610807	0.611099	1.15338	2	0.131154	11	0	31.904	0.00070483
2	1	0	1	0	1	134.656	0.623308	0.623552	1.58003	2	0.134556	11	0	34.4044	0.000985232
2	1	0	1	0	1	137.156	0.63581	0.636115	2.07745	2	0.139118	11	0	36.9048	0.0013215
2	1	0	0	0	1	139.657	0.648312	0.648602	2.63931	2	0.145005	11	0	39.405	0.00171186
2	1	0	0	0	1	142.157	0.660813	0.661092	3.25053	2	0.152365	11	0	41.9054	0.0021489
2	1	0	1	0	1	144.657	0.673315	0.673651	3.90337	2	0.161305	11	0	44.4056	0.00262951
2	1	0	1	0	1	147.158	0.685817	0.686185	4.58501	2	0.171914	11	0	46.906	0.00314617
2	1	0	1	0	1	149.658	0.698318	0.698599	5.29216	2	0.184258	11	0	49.4064	0.0036971
2	1	0	1	0	1	151.954	0.690167	0.69044	4.77107	2	0.195995	11	0	51.7028	0.00329414
2	1	0	1	0	1	154.455	0.677665	0.677908	4.05663	2	0.207008	11	0	54.2032	0.00275002
2	1	0	1	0	1	156.955	0.665164	0.665398	3.39192	2	0.216311	11	0	56.7036	0.00225698
2	1	0	0	0	1	159.455	0.652662	0.652928	2.75124	2	0.223979	11	0	59.2038	0.00179636
2	1	0	0	0	1	161.956	0.640161	0.640471	2.16468	2	0.230115	11	0	61.7042	0.00138641
2	1	0	1	0	1	164.456	0.627659	0.62799	1.65332	2	0.234874	11	0	64.2044	0.00103827
2	1	0	1	0	1	166.956	0.615157	0.615445	1.20586	2	0.238431	11	0	66.7048	0.000742143
2	1	0	1	0	1	169.457	0.602656	0.60302	0.83454	2	0.240959	11	0	69.2052	0.000503244
2	1	0	0	0	1	171.957	0.590154	0.590446	0.541918	2	0.242659	11	0	71.7054	0.000319973
2	1	0	0	0	1	174.457	0.577653	0.577899	0.328852	2	0.243734	11	0	74.2058	0.000190043
2	1	0	1	0	1	176.958	0.565151	0.565425	0.183732	2	0.244365	11	0	76.7062	0.000103886
2	1	0	1	0	1	179.458	0.552649	0.552932	0.0913221	2	0.244697	11	0	79.2064	5.04949e-05
2	1	0	1	0	1	181.958	0.540148	0.540412	0.0323603	2	0.244841	11	0	81.7068	1.74879e-05
2	0	0	0	0	1	184.459	0.527646	0.528014	-0.00600796	2	0.24487	11	0	0.3	-3.17229e-06
2	0	0	0	0	1	186.959	0.515144	0.515481	-0.026037	2	0.244831	11	0	2.8004	-1.34216e-05
2	0	0	0	0	1	189.459	0.502643	0.50292	-0.0362896	2	0.244749	11	0	5.3008	-1.82508e-05
2	0	0	1	0	1	191.96	0.490141	0.490435	-0.045928	2	0.244643	11	0	7.801	-2.25247e-05
2	0	0	1	0	1	194.46	0.47764	0.477862	-0.0533656	2	0.24452	11	0	10.3014	-2.55014e-05
2	0	0	1	0	1	196.96	0.465138	0.465386	-0.0545548	2	0.244387	11	0	12.8017	-2.5389e-05
2	0	0	0	0	1	199.461	0.452636	0.452868	-0.0559934	2	0.244246	11	0	15.302	-2.53576e-05
2	1	0	0	0	0	201.838	0.459287	0.45952	0.0503431	3	0.244294	11	0	1.6002	2.31337e-05
2	1	0	1	0	0	204.339	0.471789	0.472104	0.0554429	3	0.244429	11	0	4.1004	2.61748e-05
2	1	0	1	0	0	206.839	0.48429	0.484613	0.0590885	3	0.24457	11	0	6.6008	2.86351e-05
2	1	0	1	0	0	209.339	0.496792	0.497098	0.0598747	3	0.244719	11	0	9.1012	2.97636e-05
2	1	0	0	0	0	211.84	0.509294	0.509538	0.0707596	3	0.244882	11	0	11.6014	3.60547e-05
2	1	0	0	0	0	214.34	0.521795	0.522074	0.0830125	3	0.245071	11	0	14.1018	4.33387e-05
2	1	0	1	0	0	216.84	0.534297	0.534567	0.106845	3	0.245307	11	0	16.602	5.7116e-05
2	1	0	1	0	0	219.341	0.546799	0.547059	0.151002	3	0.245624	11	0	19.1024	8.26067e-05
2	1	0	1	0	0	221.841	0.5593	0.559599	0.218928	3	0.24608	11	0	21.6028	0.000122512
2	1	0	0	0	0	224.341	0.571802	0.571996	0.337339	3	0.246765	11	0	24.103	0.000192957
2	1	0	0	0	0	226.842	0.584303	0.58469	0.508922	3	0.247809	11	0	26.6034	0.000297562
2	1	0	0	0	0	229.342	0.596805	0.597061	0.76362	3	0.249384	11	0	29.1038	0.000455928
2	1	0	1	0	0	231.842	0.609307	0.609557	1.0937	3	0.25169	11	0	31.604	0.00066667
2	1	0	1	0	0	234.343	0.621808	0.622118	1.51346	3	0.254935	11	0	34.1044	0.000941553
2	1	0	0	0	0	236.843	0.63431	0.634656	1.99941	3	0.259316	11	0	36.6046	0.00126894
2	1	0	0	0	0	239.343	0.646811	0.647153	2.55774	3	0.265001	11	0	39.105	0.00165525
2	1	0	0	0	0	241.844	0.659313	0.659654	3.15894	3	0.272144	11	0	41.6054	0.00208381
2	1	0	1	0	0	244.344	0.671815	0.672151	3.81009	3	0.280854	11	0	44.1056	0.00256096
2	1	0	1	0	0	246.844	0.684316	0.684644	4.48849	3	0.291223	11	0	46.606	0.00307302
2	1	0	1	0	0	249.344	0.696818	0.697107	5.20362	3	0.303336	11	0	49.1063	0.00362748
2	1	0	1	0	0	251.641	0.691667	0.691944	4.85661	3	0.315193	11	0	51.4028	0.0033605
2	1	0	1	0	0	254.141	0.679166	0.679401	4.12897	3	0.326412	11	0	53.9032	0.00280523
2	1	0	0	0	0	256.642	0.666664	0.666991	3.45317	3	0.335879	11	0	56.4034	0.00230323
2	1	0	0	0	0	259.142	0.654162	0.654492	2.81346	3	0.343699	11	0	58.9038	0.00184138
2	1	0	0	0	0	261.642	0.641661	0.641944	2.22564	3	0.34998	11	0	61.4042	0.00142873
2	1	0	1	0	0	264.143	0.629159	0.629445	1.71003	3	0.354888	11	0	63.9044	0.00107637
2	1	0	1	0	0	266.643	0.616658	0.617004	1.24999	3	0.358568	11	0	66.4048	0.000771247
2	1	0	1	0	0	269.143	0.604156	0.604486	0.874634	3	0.361206	11	0	68.9051	0.000528705
2	1	0	0	0	0	271.644	0.591654	0.591971	0.570606	3	0.362994	11	0	71.4054	0.000337782
2	1	0	0	0	0	274.144	0.579153	0.579488	0.352982	3	0.364132	11	0	73.9058	0.000204549
2	1	0	1	0	0	276.644	0.566651	0.566934	0.196213	3	0.364806	11	0	76.406	0.00011124
2	1	0	1	0	0	279.145	0.55415	0.554445	0.0997525	3	0.365166	11	0	78.9064	5.53073e-05
2	1	0	1	0	0	281.645	0.541648	0.541979	0.0352288	3	0.365327	11	0	81.4068	1.90933e-05
2	1	0	0	0	0	284.145	0.529146	0.529376	-0.000771332	3	0.365366	11	0	0.000000000000000E+000	-4.08325e-07
2	0	0	0	0	0	286.646	0.516645	0.516834	-0.0229644	3	0.365333	11	0	2.4004	-1.18688e-05
2	0	0	1	0	0	289.146	0.504143	0.504393	-0.037816	3	0.365256	11	0	4.9006	-1.90741e-05
2	0	0	1	0	0	291.646	0.491641	0.491858	-0.0430214	3	0.365153	11	0	7.401	-2.11604e-05
2	0	0	1	0	0	294.147	0.47914	0.479419	-0.0522737	3	0.365033	11	0	9.9014	-2.5061e-05
2	0	0	0	0	0	296.647	0.466638	0.466904	-0.0534855	3	0.364902	11	0	12.4016	-2.49726e-05
2	0	0	0	0	0	299.147	0.454137	0.454385	-0.0567326	3	0.364762	11	0	14.902	-2.57785e-05
2	1	0	0	0	1	301.525	0.457787	0.457999	0.0494212	4	0.364776	11	0	1.3002	2.26349e-05
2	1	0	1	0	1	304.025	0.470289	0.470614	0.0565692	4	0.36491	11	0	3.8004	2.66223e-05
2	1	0	1	0	1	306.526	0.48279	0.483059	0.0570138	4	0.36505	11	0	6.3008	2.7541e-05
2	1	0	0	0	1	309.026	0.495292	0.495627	0.0603668	4	0.365198	11	0	8.801	2.99194e-05
2	1	0	0	0	1	311.526	0.507794	0.508158	0.0693104	4	0.365358	11	0	11.3014	3.52206e-05
2	1	0	0	0	1	314.027	0.520295	0.52062	0.0783482	4	0.365542	11	0	13.8018	4.07896e-05
2	1	0	1	0	1	316.527	0.532797	0.533136	0.103324	4	0.365768	11	0	16.302	5.50859e-05
2	1	0	1	0	1	319.027	0.545298	0.545543	0.143514	4	0.36607	11	0	18.8024	7.82933e-05
2	1	0	1	0	1	321.527	0.5578	0.558056	0.20688	4	0.366503	11	0	21.3027	0.000115451
2	1	0	0	0	1	324.028	0.570302	0.570633	0.318381	4	0.367151	11	0	23.803	0.000181679
2	1	0	0	0	1	326.528	0.582803	0.583094	0.48282	4	0.368138	11	0	26.3034	0.00028153
2	1	0	1	0	1	329.028	0.595305	0.595519	0.722216	4	0.369631	11	0	28.8036	0.000430093
2	1	0	1	0	1	331.529	0.607807	0.608012	1.04783	4	0.371827	11	0	31.304	0.000637093
2	1	0	1	0	1	334.029	0.620308	0.620522	1.45043	4	0.374934	11	0	33.8044	0.000900023
2	1	0	0	0	1	336.529	0.63281	0.633111	1.93141	4	0.379151	11	0	36.3046	0.00122279
2	1	0	0	0	1	339.03	0.645311	0.645632	2.47712	4	0.384652	11	0	38.805	0.0015993
2	1	0	1	0	1	341.53	0.657813	0.658131	3.0749	4	0.391589	11	0	41.3053	0.00202369
2	1	0	1	0	1	344.03	0.670314	0.670747	3.71408	4	0.400072	11	0	43.8056	0.00249121
2	1	0	1	0	1	346.531	0.682816	0.683114	4.39421	4	0.410201	11	0	46.306	0.00300175
2	1	0	0	0	1	349.031	0.695318	0.695628	5.10461	4	0.422076	11	0	48.8062	0.00355091
2	1	0	1	0	1	351.328	0.693167	0.693473	4.95428	4	0.43401	11	0	51.1028	0.00343566
2	1	0	1	0	1	353.828	0.680666	0.680952	4.20879	4	0.445451	11	0	53.6032	0.00286599
2	1	0	0	0	1	356.328	0.668164	0.668486	3.52592	4	0.455108	11	0	56.1034	0.00235703
2	1	0	0	0	1	358.829	0.655663	0.655963	2.88569	4	0.463105	11	0	58.6038	0.00189291
2	1	0	1	0	1	361.329	0.643161	0.643454	2.29883	4	0.469583	11	0	61.104	0.00147919
2	1	0	1	0	1	363.829	0.630659	0.630883	1.76372	4	0.474644	11	0	63.6044	0.0011127
2	1	0	1	0	1	366.33	0.618158	0.618402	1.29559	4	0.478454	11	0	66.1048	0.000801198
2	1	0	0	0	1	368.83	0.605656	0.605907	0.906909	4	0.481186	11	0	68.605	0.000549503
2	1	0	0	0	1	371.33	0.593154	0.593483	0.600586	4	0.483051	11	0	71.1054	0.000356438
2	1	0	1	0	1	373.83	0.580653	0.580896	0.367622	4	0.484244	11	0	73.6057	0.00021355
2	1	0	1	0	1	376.331	0.568151	0.568508	0.209972	4	0.484954	11	0	76.106	0.000119371
2	1	0	1	0	1	378.831	0.55565	0.555972	0.106908	4	0.485338	11	0	78.6064	5.94381e-05
2	1	0	0	0	1	381.331	0.543148	0.543426	0.0389186	4	0.485514	11	0	81.1066	2.11494e-05
2	1	0	0	0	1	383.832	0.530646	0.53095	0.00406409	4	0.485563	11	0	83.607	2.15783e-06
2	0	0	0	0	1	386.332	0.518145	0.518554	-0.0226614	4	0.485536	11	0	2.2004	-1.17511e-05
2	0	0	1	0	1	388.832	0.505643	0.505951	-0.0350614	4	0.485463	11	0	4.7006	-1.77393e-05
2	0	0	1	0	1	391.333	0.493142	0.493456	-0.0434237	4	0.485362	11	0	7.201	-2.14277e-05
2	0	0	1	0	1	393.833	0.48064	0.480906	-0.0513031	4	0.485244	11	0	9.7013	-2.46719e-05
2	0	0	0	0	1	396.333	0.468138	0.468357	-0.0517101	4	0.485115	11	0	12.2016	-2.42188e-05
2	0	0	0	0	1	398.834	0.455637	0.455854	-0.0583664	4	0.484977	11	0	14.702	-2.66066e-05
2	1	0	1	0	0	401.211	0.456287	0.456575	0.0517092	5	0.48496	11	0	1	2.36091e-05
2	1	0	1	0	0	403.712	0.468788	0.469162	0.0544507	5	0.485093	11	0	3.5004	2.55462e-05
2	1	0	1	0	0	406.212	0.48129	0.481574	0.0557835	5	0.485232	11	0	6.0008	2.68639e-05
2	1	0	0	0	0	408.712	0.493792	0.494074	0.0621658	5	0.485378	11	0	8.501	3.07145e-05
2	1	0	0	0	0	411.213	0.506293	0.506519	0.0645714	5	0.485535	11	0	11.0014	3.27066e-05
2	1	0	1	0	0	413.713	0.518795	0.519042	0.079829	5	0.485715	11	0	13.5017	4.14346e-05
2	1	0	1	0	0	416.213	0.531297	0.531535	0.0978716	5	0.485934	11	0	16.002	5.20222e-05
2	1	0	1	0	0	418.714	0.543798	0.544124	0.1352	5	0.486223	11	0	18.5024	7.35653e-05
2	1	0	0	0	0	421.214	0.5563	0.556631	0.198509	5	0.486633	11	0	21.0026	0.000110496
2	1	0	0	0	0	423.714	0.568801	0.569087	0.297257	5	0.487244	11	0	23.503	0.000169165
2	1	0	0	0	0	426.215	0.581303	0.581584	0.459011	5	0.488176	11	0	26.0034	0.000266953
2	1	0	1	0	0	428.715	0.593805	0.594117	0.68615	5	0.489593	11	0	28.5036	0.000407653
2	1	0	1	0	0	431.215	0.606306	0.606611	1.0013	5	0.491687	11	0	31.004	0.000607398
2	1	0	0	0	0	433.716	0.618808	0.619096	1.39491	5	0.494668	11	0	33.5042	0.000863581
2	1	0	0	0	0	436.216	0.63131	0.631609	1.86617	5	0.498733	11	0	36.0046	0.00117869
2	1	0	0	0	0	438.716	0.643811	0.644188	2.40329	5	0.504058	11	0	38.505	0.00154817
2	1	0	1	0	0	441.217	0.656313	0.656515	2.99776	5	0.510803	11	0	41.0052	0.00196808
2	1	0	1	0	0	443.717	0.668814	0.669075	3.63751	5	0.519094	11	0	43.5056	0.00243376
2	1	0	1	0	0	446.217	0.681316	0.681553	4.3149	5	0.529029	11	0	46.006	0.00294083
2	1	0	0	0	0	448.718	0.693818	0.694113	5.02839	5	0.540708	11	0	48.5062	0.00349028
2	1	0	1	0	0	451.014	0.694668	0.695027	5.04332	5	0.552667	11	0	50.8028	0.00350524
2	1	0	0	0	0	453.514	0.682166	0.682433	4.30581	5	0.564344	11	0	53.303	0.00293843
2	1	0	0	0	0	456.015	0.669664	0.669954	3.59755	5	0.574211	11	0	55.8034	0.00241019
2	1	0	0	0	0	458.515	0.657163	0.65749	2.95829	5	0.582394	11	0	58.3038	0.00194505
2	1	0	1	0	0	461.015	0.644661	0.644921	2.36003	5	0.589029	11	0	60.804	0.00152203
2	1	0	1	0	0	463.516	0.63216	0.632439	1.82314	5	0.594243	11	0	63.3044	0.00115302
2	1	0	1	0	0	466.016	0.619658	0.619997	1.34343	5	0.598185	11	0	65.8047	0.00083292
2	1	0	0	0	0	468.516	0.607156	0.607487	0.944356	5	0.601026	11	0	68.305	0.000573685
2	1	0	0	0	0	471.017	0.594655	0.594945	0.625823	5	0.602971	11	0	70.8054	0.00037233
2	1	0	1	0	0	473.517	0.582153	0.582468	0.392551	5	0.604225	11	0	73.3056	0.000228648
2	1	0	1	0	0	476.017	0.569652	0.569822	0.224931	5	0.604983	11	0	75.806	0.000128171
2	1	0	1	0	0	478.518	0.55715	0.557511	0.117796	5	0.6054	11	0	78.3064	6.56726e-05
2	1	0	0	0	0	481.018	0.544648	0.544926	0.046422	5	0.605598	11	0	80.8066	2.52966e-05
2	1	0	0	0	0	483.518	0.532147	0.532404	0.0064017	5	0.605659	11	0	83.307	3.40829e-06
2	0	0	1	0	0	486.019	0.519645	0.519928	-0.0206355	5	0.605638	11	0	2.0002	-1.0729e-05
2	0	0	1	0	0	488.519	0.507143	0.507398	-0.0332508	5	0.605569	11	0	4.5006	-1.68714e-05
2	0	0	1	0	0	491.019	0.494642	0.4949	-0.0441512	5	0.605472	11	0	7.001	-2.18504e-05
2	0	0	0	0	0	493.52	0.48214	0.482415	-0.0483714	5	0.605356	11	0	9.5012	-2.33351e-05
2	0	0	0	0	0	496.02	0.469639	0.469945	-0.0543579	5	0.605227	11	0	12.0016	-2.55452e-05
2	0	0	0	0	0	498.52	0.457137	0.457479	-0.0563006	5	0.605089	11	0	14.502	-2.57564e-05
2	1	0	1	0	1	500.898	0.454787	0.45508	0.050447	6	0.605039	11	0	0.7	2.29574e-05
2	1	0	1	0	1	503.398	0.467288	0.467557	0.052267	6	0.60517	11	0	3.2004	2.44378e-05
2	1	0	0	0	1	505.899	0.47979	0.480102	0.0582863	6	0.605308	11	0	5.7006	2.79833e-05
2	1	0	0	0	1	508.399	0.492292	0.492621	0.0575865	6	0.605452	11	0	8.201	2.83683e-05
2	1	0	0	0	1	510.899	0.504793	0.505095	0.0673493	6	0.605608	11	0	10.7014	3.40178e-05
2	1	0	1	0	1	513.4	0.517295	0.517595	0.0742166	6	0.605784	11	0	13.2016	3.84142e-05
2	1	0	1	0	1	515.9	0.529796	0.530145	0.0968171	6	0.605996	11	0	15.702	5.13271e-05
2	1	0	1	0	1	518.4	0.542298	0.542584	0.128062	6	0.606273	11	0	18.2024	6.94846e-05
2	1	0	0	0	1	520.901	0.5548	0.555164	0.18943	6	0.606664	11	0	20.7026	0.000105165
2	1	0	0	0	1	523.401	0.567301	0.567578	0.282181	6	0.607245	11	0	23.203	0.000160159
2	1	0	1	0	1	525.901	0.579803	0.58013	0.433671	6	0.608128	11	0	25.7032	0.000251585
2	1	0	1	0	1	528.402	0.592304	0.592525	0.653198	6	0.609472	11	0	28.2036	0.000387036
2	1	0	1	0	1	530.902	0.604806	0.605123	0.954966	6	0.611467	11	0	30.704	0.000577872
2	1	0	0	0	1	533.402	0.617308	0.617643	1.34067	6	0.614322	11	0	33.2042	0.000828057
2	1	0	0	0	1	535.903	0.629809	0.630077	1.80267	6	0.618239	11	0	35.7046	0.00113582
2	1	0	1	0	1	538.403	0.642311	0.642713	2.33539	6	0.623403	11	0	38.2048	0.00150099
2	1	0	1	0	1	540.903	0.654813	0.65517	2.92183	6	0.629967	11	0	40.7052	0.0019143
2	1	0	1	0	1	543.404	0.667314	0.667575	3.55793	6	0.63806	11	0	43.2056	0.00237519
2	1	0	0	0	1	545.904	0.679816	0.680155	4.23246	6	0.647794	11	0	45.7058	0.00287872
2	1	0	0	0	1	548.404	0.692317	0.692706	4.94657	6	0.659272	11	0	48.2062	0.00342652
2	1	0	1	0	1	550.701	0.696168	0.696444	5.13671	6	0.671204	11	0	50.5028	0.00357743
2	1	0	0	0	1	553.201	0.683666	0.683981	4.37762	6	0.683081	11	0	53.003	0.00299421
2	1	0	0	0	1	555.701	0.671165	0.671495	3.67525	6	0.693133	11	0	55.5034	0.00246791
2	1	0	1	0	1	558.202	0.658663	0.659015	3.0197	6	0.70149	11	0	58.0036	0.00199003
2	1	0	1	0	1	560.702	0.646161	0.646456	2.41713	6	0.708273	11	0	60.504	0.00156257
2	1	0	1	0	1	563.202	0.63366	0.633819	1.87323	6	0.713619	11	0	63.0044	0.00118729
2	1	0	0	0	1	565.703	0.621158	0.62146	1.39154	6	0.717684	11	0	65.5046	0.000864784
2	1	0	0	0	1	568.203	0.608657	0.608875	0.986052	6	0.720637	11	0	68.005	0.000600382
2	1	0	1	0	1	570.703	0.596154	0.596463	0.65637	6	0.722673	11	0	70.5054	0.000391501
2	1	0	1	0	1	573.204	0.583653	0.58396	0.415185	6	0.723995	11	0	73.0056	0.000242451
2	1	0	1	0	1	575.704	0.571152	0.571524	0.237948	6	0.724796	11	0	75.506	0.000135993
2	1	0	0	0	1	578.204	0.55865	0.558922	0.125956	6	0.725241	11	0	78.0062	7.03995e-05
2	1	0	0	0	1	580.705	0.546148	0.546448	0.0520768	6	0.725455	11	0	80.5066	2.84573e-05
2	1	0	0	0	1	583.205	0.533647	0.533949	0.00820253	6	0.725526	11	0	83.007	4.37973e-06
2	0	0	1	0	1	585.705	0.521145	0.521422	-0.0160273	6	0.725512	11	0	1.7002	-8.357e-06
2	0	0	1	0	1	588.206	0.508644	0.508975	-0.034481	6	0.725448	11	0	4.2006	-1.75499e-05
2	0	0	1	0	1	590.706	0.496142	0.496531	-0.0407193	6	0.725353	11	0	6.7009	-2.02184e-05
2	0	0	0	0	1	593.206	0.48364	0.483954	-0.0489994	6	0.725239	11	0	9.2012	-2.37134e-05
2	0	0	0	0	1	595.707	0.471139	0.471383	-0.0527219	6	0.725112	11	0	11.7016	-2.48522e-05
2	0	0	1	0	1	598.207	0.458637	0.458881	-0.0562249	6	0.724975	11	0	14.2018	-2.58005e-05
2	1	0	1	0	0	600.585	0.453286	0.453556	0.0462881	7	0.724894	11	0	0.4	2.09942e-05
2	1	0	1	0	0	603.085	0.465788	0.466126	0.0544599	7	0.725024	11	0	2.9004	2.53852e-05
2	1	0	0	0	0	605.585	0.47829	0.478642	0.0563366	7	0.725162	11	0	5.4006	2.69651e-05
2	1	0	0	0	0	608.086	0.490791	0.491057	0.0581333	7	0.725306	11	0	7.901	2.85468e-05
2	1	0	1	0	0	610.586	0.503293	0.503578	0.0653472	7	0.725459	11	0	10.4012	3.29074e-05
2	1	0	1	0	0	613.086	0.515795	0.516053	0.0723253	7	0.725631	11	0	12.9016	3.73237e-05
2	1	0	1	0	0	615.587	0.528296	0.528561	0.0939147	7	0.725837	11	0	15.402	4.96396e-05
2	1	0	0	0	0	618.087	0.540798	0.541108	0.12145	7	0.726103	11	0	17.9022	6.57175e-05
2	1	0	0	0	0	620.587	0.553299	0.553564	0.179355	7	0.726474	11	0	20.4026	9.92845e-05
2	1	0	0	0	0	623.088	0.565801	0.566152	0.266012	7	0.727022	11	0	22.903	0.000150603
2	1	0	1	0	0	625.588	0.578303	0.578604	0.408883	7	0.727855	11	0	25.4032	0.000236581
2	1	0	1	0	0	628.088	0.590804	0.5911	0.618707	7	0.729124	11	0	27.9036	0.000365718
2	1	0	0	0	0	630.588	0.603306	0.603592	0.90694	7	0.731017	11	0	30.4038	0.000547422
2	1	0	0	0	0	633.089	0.615807	0.616051	1.28498	7	0.733742	11	0	32.9042	0.000791613
2	1	0	0	0	0	635.589	0.628309	0.628605	1.73683	7	0.737506	11	0	35.4046	0.00109178
2	1	0	1	0	0	638.089	0.640811	0.641144	2.25802	7	0.742492	11	0	37.9048	0.00144772
2	1	0	1	0	0	640.59	0.653312	0.653661	2.84056	7	0.748858	11	0	40.4052	0.00185676
2	1	0	1	0	0	643.09	0.665814	0.666063	3.46416	7	0.756732	11	0	42.9055	0.00230735
2	1	0	0	0	0	645.59	0.678316	0.678635	4.12864	7	0.766224	11	0	45.4058	0.00280184
2	1	0	0	0	0	648.091	0.690817	0.691142	4.82935	7	0.77741	11	0	47.9062	0.00333777
2	1	0	0	0	0	650.387	0.697668	0.697952	5.20906	7	0.789199	11	0	50.2026	0.00363567
2	1	0	0	0	0	652.888	0.685166	0.685437	4.45317	7	0.80126	11	0	52.703	0.00305237
2	1	0	0	0	0	655.388	0.672665	0.673045	3.74091	7	0.811489	11	0	55.2034	0.0025178
2	1	0	1	0	0	657.888	0.660163	0.660477	3.09234	7	0.820019	11	0	57.7036	0.00204242
2	1	0	1	0	0	660.389	0.647662	0.647923	2.48076	7	0.826965	11	0	60.204	0.00160734
2	1	0	0	0	0	662.889	0.63516	0.635457	1.92456	7	0.83246	11	0	62.7042	0.00122298
2	1	0	0	0	0	665.389	0.622658	0.622971	1.43847	7	0.836648	11	0	65.2046	0.000896125
2	1	0	0	0	0	667.89	0.610157	0.610427	1.01995	7	0.839704	11	0	67.705	0.000622608
2	1	0	1	0	0	670.39	0.597655	0.597987	0.688252	7	0.84182	11	0	70.2052	0.000411566
2	1	0	1	0	0	672.89	0.585154	0.585485	0.432776	7	0.843203	11	0	72.7056	0.000253384
2	1	0	1	0	0	675.391	0.572652	0.572908	0.253493	7	0.844047	11	0	75.206	0.000145228
2	1	0	0	0	0	677.891	0.56015	0.56041	0.135357	7	0.844521	11	0	77.7062	7.58553e-05
2	1	0	0	0	0	680.391	0.547649	0.547933	0.0564525	7	0.844753	11	0	80.2066	3.09322e-05
2	1	0	1	0	0	682.891	0.535147	0.53541	0.0141931	7	0.844836	11	0	82.7068	7.59913e-06
2	0	0	1	0	0	685.392	0.522645	0.522903	-0.0172124	7	0.844828	11	0	1.4002	-9.0004e-06
2	0	0	1	0	0	687.892	0.510144	0.510369	-0.0296962	7	0.844768	11	0	3.9006	-1.51561e-05
2	0	0	0	0	0	690.392	0.497642	0.497939	-0.0425381	7	0.844676	11	0	6.4008	-2.11814e-05
2	0	0	0	0	0	692.893	0.485141	0.485483	-0.0475312	7	0.844563	11	0	8.9012	-2.30756e-05
2	0	0	1	0	0	695.393	0.472639	0.472957	-0.0504332	7	0.844438	11	0	11.4016	-2.38527e-05
2	0	0	1	0	0	697.893	0.460137	0.460406	-0.0571725	7	0.844303	11	0	13.9018	-2.63226e-05
2	1	0	1	0	1	700.271	0.451786	0.452098	0.0384859	8	0.844193	11	0	0.1	1.73994e-05
2	1	0	0	0	1	702.771	0.464288	0.464516	0.0545363	8	0.844319	11	0	2.6002	2.5333e-05
2	1	0	0	0	1	705.272	0.47679	0.4771	0.0538648	8	0.844456	11	0	5.1006	2.56989e-05
2	1	0	0	0	1	707.772	0.489291	0.489619	0.0596973	8	0.844599	11	0	7.601	2.92289e-05
2	1	0	1	0	1	710.272	0.501793	0.502105	0.0650114	8	0.844751	11	0	10.1012	3.26426e-05
2	1	0	1	0	1	712.773	0.514294	0.514618	0.0704796	8	0.844919	11	0	12.6016	3.62701e-05
2	1	0	1	0	1	715.273	0.526796	0.527062	0.0884002	8	0.845119	11	0	15.1019	4.65924e-05
2	1	0	0	0	1	717.773	0.539298	0.539534	0.119829	8	0.845374	11	0	17.6022	6.46521e-05
2	1	0	0	0	1	720.274	0.551799	0.55208	0.166946	8	0.845726	11	0	20.1026	9.21677e-05
2	1	0	1	0	1	722.774	0.564301	0.564582	0.250721	8	0.846243	11	0	22.6028	0.000141553
2	1	0	1	0	1	725.274	0.576802	0.577126	0.38698	8	0.847029	11	0	25.1032	0.000223336
2	1	0	1	0	1	727.775	0.589304	0.589639	0.584089	8	0.848227	11	0	27.6036	0.000344402
2	1	0	0	0	1	730.275	0.601806	0.602078	0.861341	8	0.85002	11	0	30.1038	0.000518595
2	1	0	0	0	1	732.775	0.614307	0.614566	1.22742	8	0.852613	11	0	32.6042	0.000754329
2	1	0	1	0	1	735.276	0.626809	0.627126	1.66629	8	0.856217	11	0	35.1045	0.00104497
2	1	0	1	0	1	737.776	0.63931	0.639539	2.18176	8	0.86102	11	0	37.6048	0.00139532
2	1	0	1	0	1	740.276	0.651812	0.652031	2.75564	8	0.867183	11	0	40.1052	0.00179676
2	1	0	0	0	1	742.777	0.664314	0.664666	3.37898	8	0.87484	11	0	42.6054	0.00224589
2	1	0	0	0	1	745.277	0.676815	0.67714	4.04244	8	0.884119	11	0	45.1058	0.00273729
2	1	0	0	0	1	747.777	0.689317	0.689687	4.74596	8	0.895094	11	0	47.6062	0.00327323
2	1	0	0	0	1	750.074	0.699168	0.699527	5.30873	8	0.906747	11	0	49.9026	0.0037136
2	1	0	0	0	1	752.574	0.686667	0.687022	4.5462	8	0.91906	11	0	52.403	0.00312334
2	1	0	1	0	1	755.074	0.674165	0.674398	3.82619	8	0.929511	11	0	54.9032	0.00258038
2	1	0	1	0	1	757.575	0.661663	0.661925	3.16426	8	0.938236	11	0	57.4036	0.00209451
2	1	0	1	0	1	760.075	0.649162	0.649363	2.55928	8	0.945389	11	0	59.904	0.0016619
2	1	0	0	0	1	762.575	0.63666	0.636903	1.99819	8	0.951069	11	0	62.4042	0.00127266
2	1	0	0	0	1	765.076	0.624159	0.624487	1.49562	8	0.955422	11	0	64.9046	0.000933994
2	1	0	1	0	1	767.576	0.611657	0.611902	1.06866	8	0.958607	11	0	67.4049	0.000653916
2	1	0	1	0	1	770.076	0.599155	0.599487	0.725872	8	0.960832	11	0	69.9052	0.000435151
2	1	0	1	0	1	772.577	0.586654	0.5869	0.459991	8	0.962297	11	0	72.4056	0.000269969
2	1	0	0	0	1	775.077	0.574152	0.574441	0.274613	8	0.963198	11	0	74.9058	0.000157749
2	1	0	0	0	1	777.577	0.56165	0.561915	0.146366	8	0.96371	11	0	77.4062	8.22454e-05
2	1	0	0	0	1	780.078	0.549149	0.549421	0.0643371	8	0.963967	11	0	79.9066	3.53482e-05
2	1	0	1	0	1	782.578	0.536647	0.536976	0.0173675	8	0.964066	11	0	82.4068	9.32591e-06
2	0	0	1	0	1	785.078	0.524146	0.524456	-0.0102309	8	0.964068	11	0	1.2002	-5.36567e-06
2	0	0	1	0	1	787.579	0.511644	0.51193	-0.0301368	8	0.964013	11	0	3.7005	-1.5428e-05
2	0	0	0	0	1	790.079	0.499142	0.499408	-0.0424222	8	0.963924	11	0	6.2008	-2.1186e-05
2	0	0	0	0	1	792.579	0.486641	0.486876	-0.0455456	8	0.963813	11	0	8.7012	-2.21751e-05
2	0	0	1	0	1	795.08	0.474139	0.474374	-0.0531347	8	0.963688	11	0	11.2014	-2.52057e-05
2	0	0	1	0	1	797.58	0.461638	0.46188	-0.0536813	8	0.963555	11	0	13.7018	-2.47943e-05
2	0	0	1	0	0	799.958	0.450286	0.450522	-0.0248305	9	0.963423	11	0	16.0796	-1.11867e-05
2	1	0	0	0	0	802.458	0.462788	0.463117	0.0550651	9	0.96354	11	0	2.3002	2.55016e-05
2	1	0	0	0	0	804.958	0.475289	0.475649	0.0537164	9	0.963676	11	0	4.8006	2.55502e-05
2	1	0	1	0	0	807.459	0.487791	0.488155	0.05995	9	0.963818	11	0	7.3008	2.92649e-05
2	1	0	1	0	0	809.959	0.500293	0.500597	0.0611104	9	0.963969	11	0	9.8012	3.05917e-05
2	1	0	1	0	0	812.459	0.512794	0.51309	0.0717574	9	0.964135	11	0	12.3016	3.6818e-05
2	1	0	0	0	0	814.96	0.525296	0.525505	0.0860034	9	0.96433	11	0	14.8018	4.51953e-05
2	1	0	0	0	0	817.46	0.537797	0.538072	0.11273	9	0.964576	11	0	17.3022	6.06567e-05
2	1	0	0	0	0	819.96	0.550299	0.550584	0.160224	9	0.964912	11	0	19.8026	8.82168e-05
2	1	0	1	0	0	822.461	0.562801	0.563152	0.236536	9	0.965401	11	0	22.3028	0.000133206
2	1	0	1	0	0	824.961	0.575302	0.575556	0.36432	9	0.966141	11	0	24.8032	0.000209686
2	1	0	0	0	0	827.461	0.587804	0.58814	0.550476	9	0.967271	11	0	27.3034	0.000323757
2	1	0	0	0	0	829.962	0.600306	0.600636	0.822039	9	0.968971	11	0	29.8038	0.000493746
2	1	0	0	0	0	832.462	0.612807	0.613116	1.16987	9	0.971445	11	0	32.3042	0.000717264
2	1	0	1	0	0	834.962	0.625309	0.625608	1.60518	9	0.974901	11	0	34.8044	0.00100421
2	1	0	1	0	0	837.463	0.63781	0.638084	2.10648	9	0.979529	11	0	37.3048	0.00134411
2	1	0	1	0	0	839.963	0.650312	0.650597	2.67382	9	0.985496	11	0	39.8051	0.00173958
2	1	0	0	0	0	842.463	0.662814	0.66309	3.28692	9	0.992943	11	0	42.3054	0.00217952
2	1	0	0	0	0	844.964	0.675315	0.67565	3.95335	9	1.00199	11	0	44.8058	0.00267108
2	1	0	1	0	0	847.464	0.687817	0.688121	4.6451	9	1.01274	11	0	47.306	0.00319639
2	1	0	0	0	0	849.895	0.699994	0.70027	5.33376	9	1.02488	11	0	49.7376	0.00373507
2	1	0	0	0	0	852.261	0.688167	0.688456	4.61829	9	1.03664	11	0	52.103	0.00317949
2	1	0	1	0	0	854.761	0.675665	0.675989	3.90338	9	1.04729	11	0	54.6032	0.00263864
2	1	0	1	0	0	857.261	0.663164	0.663419	3.22351	9	1.05618	11	0	57.1036	0.00213854
2	1	0	1	0	0	859.762	0.650662	0.651029	2.59931	9	1.06345	11	0	59.6039	0.00169222
2	1	0	0	0	0	862.262	0.63816	0.638505	2.03159	9	1.06922	11	0	62.1042	0.00129718
2	1	0	0	0	0	864.762	0.625659	0.626005	1.52886	9	1.07365	11	0	64.6046	0.000957073
2	1	0	1	0	0	867.263	0.613157	0.613457	1.10374	9	1.07693	11	0	67.1048	0.000677099
2	1	0	1	0	0	869.763	0.600656	0.600941	0.749737	9	1.07922	11	0	69.6052	0.000450548
2	1	0	1	0	0	872.263	0.588154	0.588507	0.48079	9	1.08074	11	0	72.1056	0.000282948
2	1	0	0	0	0	874.764	0.575652	0.57592	0.288339	9	1.08169	11	0	74.6058	0.00016606
2	1	0	0	0	0	877.264	0.563151	0.563472	0.153716	9	1.08223	11	0	77.1062	8.66146e-05
2	1	0	1	0	0	879.764	0.550649	0.550999	0.071256	9	1.0825	11	0	79.6064	3.9262e-05
2	1	0	1	0	0	882.265	0.538147	0.538378	0.0231191	9	1.08261	11	0	82.1068	1.24468e-05
2	0	0	1	0	0	884.765	0.525646	0.525941	-0.0097914	9	1.08262	11	0	0.8002	-5.1497e-06
2	0	0	0	0	0	887.265	0.513144	0.513414	-0.0299335	9	1.08258	11	0	3.3004	-1.53683e-05
2	0	0	0	0	0	889.766	0.500643	0.500885	-0.0389878	9	1.08249	11	0	5.8008	-1.95284e-05
2	0	0	1	0	0	892.266	0.488141	0.488456	-0.0443806	9	1.08238	11	0	8.3012	-2.1678e-05
2	0	0	1	0	0	894.766	0.475639	0.475949	-0.0514284	9	1.08226	11	0	10.8014	-2.44773e-05
2	0	0	1	0	0	897.267	0.463138	0.463405	-0.0560452	9	1.08213	11	0	13.3018	-2.59716e-05
2	0	0	0	0	0	899.767	0.450636	0.450919	-0.0556406	9	1.08199	11	0	15.802	-2.50894e-05
2	1	0	0	0	1	902.145	0.461288	0.461541	0.0548033	10	1.08208	11	0	2.0002	2.5294e-05
2	1	0	0	0	1	904.645	0.473789	0.474088	0.0545161	10	1.08222	11	0	4.5006	2.58455e-05
2	1	0	1	0	1	907.145	0.486291	0.486583	0.0559137	10	1.08236	11	0	7.0008	2.72067e-05
2	1	0	1	0	1	909.646	0.498792	0.499124	0.0632456	10	1.08251	11	0	9.5012	3.15674e-05
2	1	0	1	0	1	912.146	0.511294	0.511593	0.0698469	10	1.08267	11	0	12.0015	3.57332e-05
2	1	0	0	0	1	914.646	0.523796	0.524051	0.0809157	10	1.08286	11	0	14.5018	4.2404e-05
2	1	0	0	0	1	917.147	0.536297	0.536632	0.10881	10	1.08309	11	0	17.0022	5.8391e-05
2	1	0	1	0	1	919.647	0.548799	0.549128	0.151225	10	1.08341	11	0	19.5024	8.3042e-05
2	1	0	1	0	1	922.147	0.5613	0.561557	0.221722	10	1.08387	11	0	22.0028	0.000124509
2	1	0	1	0	1	924.648	0.573802	0.574055	0.34285	10	1.08457	11	0	24.5032	0.000196815
2	1	0	0	0	1	927.148	0.586304	0.586723	0.518412	10	1.08563	11	0	27.0034	0.000304164
2	1	0	0	0	1	929.648	0.598805	0.599106	0.775272	10	1.08724	11	0	29.5038	0.00046447
2	1	0	1	0	1	932.148	0.611307	0.611593	1.11564	10	1.08958	11	0	32.004	0.000682319
2	1	0	1	0	1	934.649	0.623808	0.62407	1.53239	10	1.09288	11	0	34.5044	0.00095632
2	1	0	1	0	1	937.149	0.63631	0.636552	2.02899	10	1.09732	11	0	37.0048	0.00129156
2	1	0	0	0	1	939.649	0.648812	0.649102	2.59209	10	1.10309	11	0	39.505	0.00168253
2	1	0	0	0	1	942.15	0.661313	0.661511	3.20188	10	1.11032	11	0	42.0054	0.00211808
2	1	0	1	0	1	944.65	0.673814	0.674107	3.84682	10	1.11913	11	0	44.5057	0.00259317
2	1	0	1	0	1	947.15	0.686317	0.686552	4.5356	10	1.12961	11	0	47.006	0.00311392
2	1	0	1	0	1	949.651	0.698818	0.699192	5.26309	10	1.14186	11	0	49.5064	0.00367991
2	1	0	1	0	1	951.947	0.689667	0.689998	4.69207	10	1.15341	11	0	51.8028	0.00323752
2	1	0	1	0	1	954.448	0.677165	0.67753	3.96173	10	1.16422	11	0	54.3032	0.00268419
2	1	0	1	0	1	956.948	0.664664	0.664963	3.28795	10	1.17328	11	0	56.8036	0.00218636
2	1	0	0	0	1	959.448	0.652162	0.652481	2.66237	10	1.1807	11	0	59.3038	0.00173714
2	1	0	0	0	1	961.949	0.639661	0.639879	2.09385	10	1.18664	11	0	61.8042	0.00133981
2	1	0	1	0	1	964.449	0.627159	0.627511	1.5804	10	1.19121	11	0	64.3045	0.000991717
2	1	0	1	0	1	966.949	0.614657	0.614933	1.14115	10	1.1946	11	0	66.8048	0.000701731
2	1	0	1	0	1	969.45	0.602156	0.602457	0.783793	10	1.19699	11	0	69.3052	0.000472201
2	1	0	0	0	1	971.95	0.589654	0.589983	0.505855	10	1.19858	11	0	71.8054	0.000298446
2	1	0	0	0	1	974.45	0.577152	0.577473	0.302361	10	1.19957	11	0	74.3058	0.000174605
2	1	0	0	0	1	976.951	0.564651	0.56499	0.164308	10	1.20014	11	0	76.8062	9.28327e-05
2	1	0	1	0	1	979.451	0.552149	0.552446	0.0794019	10	1.20044	11	0	79.3064	4.38652e-05
2	1	0	1	0	1	981.951	0.539648	0.539959	0.0262463	10	1.20056	11	0	81.8068	1.4172e-05
2	0	0	0	0	1	984.451	0.527146	0.5274	-0.00797075	10	1.20058	11	0	0.6	-4.20378e-06
2	0	0	0	0	1	986.952	0.514644	0.514869	-0.0284126	10	1.20054	11	0	3.1004	-1.46288e-05
2	0	0	0	0	1	989.452	0.502143	0.50242	-0.0395072	10	1.20045	11	0	5.6008	-1.98492e-05
2	0	0	1	0	1	991.952	0.489641	0.489927	-0.0455015	10	1.20035	11	0	8.101	-2.22924e-05
2	0	0	1	0	1	994.453	0.47714	0.477384	-0.0482504	10	1.20023	11	0	10.6014	-2.3034e-05
2	0	0	1	0	1	996.953	0.464638	0.464947	-0.0514016	10	1.2001	11	0	13.1018	-2.3899e-05
2	0	0	0	0	1	999.453	0.452136	0.452572	-0.0569317	10	1.19996	11	0	15.602	-2.57657e-05
2	1	0	0	0	0	1001.83	0.459787	0.460129	0.0500319	11	1.20002	11	0	1.7002	2.30211e-05
2	1	0	1	0	0	1004.33	0.472289	0.4726	0.0563767	11	1.20016	11	0	4.2004	2.66437e-05
2	1	0	1	0	0	1006.83	0.484791	0.485112	0.0550062	11	1.2003	11	0	6.7008	2.66842e-05
2	1	0	1	0	0	1009.33	0.497292	0.497488	0.0623652	11	1.20044	11	0	9.2012	3.10259e-05
2	1	0	0	0	0	1011.83	0.509794	0.510094	0.0680795	11	1.2006	11	0	11.7014	3.4727e-05
2	1	0	0	0	0	1014.33	0.522295	0.52261	0.0785053	11	1.20079	11	0	14.2018	4.10276e-05
2	1	0	1	0	0	1016.83	0.534797	0.535062	0.105262	11	1.20101	11	0	16.7021	5.63216e-05
2	1	0	1	0	0	1019.33	0.547299	0.547649	0.142125	11	1.20132	11	0	19.2024	7.78344e-05
2	1	0	1	0	0	1021.83	0.5598	0.560119	0.210757	11	1.20175	11	0	21.7028	0.000118049
2	1	0	0	0	0	1024.33	0.572302	0.572612	0.318838	11	1.2024	11	0	24.203	0.00018257
2	1	0	0	0	0	1026.83	0.584803	0.58512	0.489825	11	1.2034	11	0	26.7034	0.000286607
2	1	0	0	0	0	1029.33	0.597305	0.597626	0.730643	11	1.20491	11	0	29.2038	0.000436651
2	1	0	1	0	0	1031.83	0.609807	0.610097	1.06082	11	1.20714	11	0	31.704	0.000647206
2	1	0	1	0	0	1034.34	0.622308	0.622642	1.46854	11	1.21028	11	0	34.2044	0.000914375
2	1	0	1	0	0	1036.84	0.63481	0.635123	1.95326	11	1.21455	11	0	36.7047	0.00124056
2	1	0	0	0	0	1039.34	0.647312	0.647621	2.50783	11	1.22012	11	0	39.205	0.00162412
2	1	0	0	0	0	1041.84	0.659813	0.660067	3.10939	11	1.22713	11	0	41.7054	0.00205241
2	1	0	1	0	0	1044.34	0.672315	0.672651	3.75478	11	1.23571	11	0	44.2056	0.00252566
2	1	0	1	0	0	1046.84	0.684816	0.685148	4.43516	11	1.24595	11	0	46.706	0.00303874
2	1	0	1	0	0	1049.34	0.697318	0.697607	5.14471	11	1.25791	11	0	49.2064	0.00358899
2	1	0	1	0	0	1051.63	0.691167	0.691468	4.76509	11	1.26957	11	0	51.5028	0.00329491
2	1	0	1	0	0	1054.13	0.678666	0.678941	4.04562	11	1.28059	11	0	54.0032	0.00274674
2	1	0	0	0	0	1056.63	0.666164	0.666354	3.36836	11	1.28985	11	0	56.5034	0.00224452
2	1	0	0	0	0	1059.13	0.653662	0.653939	2.73703	11	1.29746	11	0	59.0038	0.00178985
2	1	0	0	0	0	1061.64	0.641161	0.641509	2.15029	11	1.30356	11	0	61.5042	0.00137943
2	1	0	1	0	0	1064.14	0.628659	0.629008	1.63291	11	1.30827	11	0	64.0044	0.00102711
2	1	0	1	0	0	1066.64	0.616158	0.616511	1.18564	11	1.31178	11	0	66.5048	0.000730959
2	1	0	1	0	0	1069.14	0.603656	0.603952	0.818453	11	1.31426	11	0	69.0052	0.000494306
2	1	0	0	0	0	1071.64	0.591154	0.591513	0.527991	11	1.31592	11	0	71.5054	0.000312313
2	1	0	0	0	0	1074.14	0.578653	0.578934	0.316233	11	1.31697	11	0	74.0058	0.000183078
2	1	0	1	0	0	1076.64	0.566151	0.566436	0.177446	11	1.31757	11	0	76.506	0.000100512
2	1	0	1	0	0	1079.14	0.553649	0.553929	0.0854687	11	1.31789	11	0	79.0064	4.73436e-05
2	1	0	1	0	0	1081.64	0.541148	0.541438	0.02684	11	1.31802	11	0	81.5068	1.45322e-05
2	1	0	0	0	0	1084.14	0.528646	0.528987	-0.00390053	11	1.31805	11	0	0.3	-2.06333e-06
2	0	0	0	0	0	1086.64	0.516145	0.516472	-0.0236414	11	1.31801	11	0	2.8004	-1.22101e-05
2	0	0	1	0	0	1089.14	0.503643	0.503944	-0.0391256	11	1.31793	11	0	5.3007	-1.97171e-05
2	0	0	1	0	0	1091.64	0.491141	0.491435	-0.0458357	11	1.31783	11	0	7.801	-2.25253e-05
2	0	0	1	0	0	1094.14	0.47864	0.478957	-0.0479231	11	1.31771	11	0	10.3014	-2.29531e-05
2	0	0	0	0	0	1096.64	0.466138	0.46652	-0.0529421	11	1.31758	11	0	12.8016	-2.46985e-05
2	0	0	0	0	0	1099.14	0.453637	0.453909	-0.0583774	11	1.31744	11	0	15.302	-2.6498e-05
2	1	0	0	0	1	1101.52	0.458287	0.458453	0.049071	12	1.31746	11	0	1.4002	2.24967e-05
2	1	0	1	0	1	1104.02	0.470789	0.471072	0.0545213	12	1.3176	11	0	3.9004	2.56835e-05
2	1	0	1	0	1	1106.52	0.48329	0.483626	0.0585833	12	1.31774	11	0	6.4008	2.83324e-05
2	1	0	1	0	1	1109.02	0.495792	0.496043	0.0606052	12	1.31788	11	0	8.9011	3.00628e-05
2	1	0	0	0	1	1111.52	0.508294	0.508599	0.0649746	12	1.31804	11	0	11.4014	3.3046e-05
2	1	0	0	0	1	1114.02	0.520795	0.521168	0.0769671	12	1.31822	11	0	13.9018	4.01128e-05
2	1	0	1	0	1	1116.52	0.533297	0.533702	0.0999247	12	1.31844	11	0	16.402	5.333e-05
2	1	0	1	0	1	1119.02	0.545798	0.546032	0.136852	12	1.31873	11	0	18.9024	7.47256e-05
2	1	0	1	0	1	1121.52	0.5583	0.558543	0.196752	12	1.31914	11	0	21.4028	0.000109895
2	1	0	0	0	1	1124.02	0.570802	0.571055	0.298593	12	1.31975	11	0	23.903	0.000170513
2	1	0	0	0	1	1126.52	0.583303	0.583539	0.459929	12	1.32069	11	0	26.4034	0.000268387
2	1	0	1	0	1	1129.02	0.595805	0.596069	0.693615	12	1.32211	11	0	28.9036	0.000413443
2	1	0	1	0	1	1131.52	0.608307	0.608574	1.00736	12	1.32422	11	0	31.404	0.000613053
2	1	0	1	0	1	1134.02	0.620808	0.621186	1.4046	12	1.32722	11	0	33.9044	0.000872516
2	1	0	0	0	1	1136.52	0.63331	0.633517	1.87851	12	1.33131	11	0	36.4046	0.00119007
2	1	0	0	0	1	1139.02	0.645811	0.646112	2.41906	12	1.33668	11	0	38.905	0.00156298
2	1	0	0	0	1	1141.52	0.658313	0.658638	3.01642	12	1.34346	11	0	41.4054	0.00198673
2	1	0	1	0	1	1144.02	0.670815	0.671147	3.65672	12	1.3518	11	0	43.9056	0.0024542
2	1	0	1	0	1	1146.52	0.683316	0.683558	4.32993	12	1.36178	11	0	46.406	0.00295976
2	1	0	0	0	1	1149.02	0.695818	0.696072	5.03596	12	1.3735	11	0	48.9062	0.00350539
2	1	0	1	0	1	1151.32	0.692667	0.692951	4.82051	12	1.38517	11	0	51.2028	0.00334038
2	1	0	1	0	1	1153.82	0.680166	0.680546	4.09304	12	1.3963	11	0	53.7032	0.0027855
2	1	0	0	0	1	1156.32	0.667664	0.667953	3.4094	12	1.40566	11	0	56.2034	0.00227732
2	1	0	0	0	1	1158.82	0.655163	0.655402	2.77998	12	1.4134	11	0	58.7038	0.00182201
2	1	0	1	0	1	1161.32	0.642661	0.642947	2.20282	12	1.41962	11	0	61.2041	0.0014163
2	1	0	1	0	1	1163.82	0.630159	0.630401	1.67228	12	1.42444	11	0	63.7044	0.00105421
2	1	0	1	0	1	1166.32	0.617658	0.617993	1.21623	12	1.42803	11	0	66.2048	0.000751623
2	1	0	0	0	1	1168.82	0.605156	0.60544	0.837589	12	1.43058	11	0	68.705	0.00050711
2	1	0	0	0	1	1171.32	0.592654	0.592923	0.54744	12	1.4323	11	0	71.2054	0.000324589
2	1	0	0	0	1	1173.82	0.580153	0.580431	0.335195	12	1.43338	11	0	73.7058	0.000194557
2	1	0	1	0	1	1176.32	0.567651	0.567882	0.186006	12	1.43402	11	0	76.206	0.000105629
2	1	0	1	0	1	1178.82	0.55515	0.555518	0.089776	12	1.43435	11	0	78.7064	4.98722e-05
2	1	0	1	0	1	1181.32	0.542648	0.542992	0.0333344	12	1.4345	11	0	81.2067	1.81003e-05
2	1	0	0	0	1	1183.82	0.530146	0.530459	-0.000760501	12	1.43454	11	0	0.1	-4.03414e-07
2	0	0	0	0	1	1186.32	0.517645	0.517922	-0.0238491	12	1.4345	11	0	2.6004	-1.2352e-05
2	0	0	1	0	1	1188.83	0.505143	0.505415	-0.0379577	12	1.43443	11	0	5.1006	-1.91844e-05
2	0	0	1	0	1	1191.33	0.492642	0.492974	-0.0449499	12	1.43432	11	0	7.601	-2.21591e-05
2	0	0	1	0	1	1193.83	0.48014	0.480414	-0.0473397	12	1.43421	11	0	10.1014	-2.27426e-05
2	0	0	0	0	1	1196.33	0.467638	0.467861	-0.0516947	12	1.43408	11	0	12.6016	-2.41859e-05
2	0	0	0	0	1	1198.83	0.455137	0.455341	-0.0574176	12	1.43394	11	0	15.102	-2.61446e-05
2	1	0	1	0	0	1201.2	0.456787	0.457067	0.0483667	13	1.43394	11	0	1.1	2.21068e-05
2	1	0	1	0	0	1203.7	0.469289	0.469578	0.0543607	13	1.43407	11	0	3.6004	2.55266e-05
2	1	0	1	0	0	1206.2	0.48179	0.482136	0.0579586	13	1.43421	11	0	6.1008	2.79439e-05
2	1	0	0	0	0	1208.71	0.494292	0.494589	0.0595484	13	1.43435	11	0	8.601	2.9452e-05
2	1	0	0	0	0	1211.21	0.506793	0.507078	0.0635963	13	1.4345	11	0	11.1014	3.22483e-05
2	1	0	0	0	0	1213.71	0.519295	0.519536	0.0741547	13	1.43468	11	0	13.6018	3.8526e-05
2	1	0	1	0	0	1216.21	0.531797	0.532129	0.0953622	13	1.43489	11	0	16.102	5.0745e-05
2	1	0	1	0	0	1218.71	0.544298	0.544574	0.130504	13	1.43517	11	0	18.6024	7.10692e-05
2	1	0	0	0	0	1221.21	0.5568	0.557057	0.187357	13	1.43555	11	0	21.1026	0.000104368
2	1	0	0	0	0	1223.71	0.569301	0.569599	0.280514	13	1.43613	11	0	23.603	0.00015978
2	1	0	0	0	0	1226.21	0.581803	0.582053	0.429831	13	1.43701	11	0	26.1034	0.000250184
2	1	0	1	0	0	1228.71	0.594305	0.5946	0.651916	13	1.43835	11	0	28.6036	0.000387629
2	1	0	1	0	0	1231.21	0.606806	0.607161	0.955472	13	1.44034	11	0	31.104	0.000580125
2	1	0	0	0	0	1233.71	0.619308	0.619587	1.34159	13	1.44319	11	0	33.6042	0.000831235
2	1	0	0	0	0	1236.21	0.63181	0.632187	1.80281	13	1.44711	11	0	36.1046	0.00113971
2	1	0	0	0	0	1238.71	0.644311	0.644589	2.33247	13	1.45227	11	0	38.605	0.00150349
2	1	0	1	0	0	1241.21	0.656813	0.65716	2.91981	13	1.45883	11	0	41.1052	0.00191878
2	1	0	1	0	0	1243.71	0.669314	0.669588	3.5505	13	1.46692	11	0	43.6056	0.00237737
2	1	0	1	0	0	1246.21	0.681816	0.68211	4.21945	13	1.47663	11	0	46.106	0.00287813
2	1	0	0	0	0	1248.71	0.694318	0.694635	4.91681	13	1.48805	11	0	48.6062	0.00341539
2	1	0	1	0	0	1251.01	0.694168	0.694449	4.86389	13	1.49967	11	0	50.9028	0.00337773
2	1	0	0	0	0	1253.51	0.681666	0.681984	4.13908	13	1.51092	11	0	53.403	0.00282279
2	1	0	0	0	0	1256.01	0.669164	0.66943	3.46887	13	1.52042	11	0	55.9034	0.00232216
2	1	0	0	0	0	1258.51	0.656663	0.656923	2.82974	13	1.52828	11	0	58.4038	0.00185892
2	1	0	1	0	0	1261.01	0.644161	0.644452	2.2323	13	1.53459	11	0	60.904	0.00143861
2	1	0	1	0	0	1263.51	0.63166	0.631968	1.70464	13	1.53949	11	0	63.4044	0.00107728
2	1	0	1	0	0	1266.01	0.619158	0.61941	1.24305	13	1.54316	11	0	65.9048	0.000769958
2	1	0	0	0	0	1268.51	0.606656	0.606967	0.862565	13	1.54578	11	0	68.405	0.000523549
2	1	0	0	0	0	1271.01	0.594155	0.594377	0.568046	13	1.54755	11	0	70.9054	0.000337633
2	1	0	1	0	0	1273.51	0.581653	0.581905	0.349906	13	1.54868	11	0	73.4056	0.000203612
2	1	0	1	0	0	1276.01	0.569151	0.569466	0.197713	13	1.54934	11	0	75.906	0.000112591
2	1	0	1	0	0	1278.51	0.55665	0.556864	0.0967992	13	1.5497	11	0	78.4064	5.3904e-05
2	1	0	0	0	0	1281.01	0.544148	0.544514	0.0342542	13	1.54986	11	0	80.9066	1.86519e-05
2	1	0	0	0	0	1283.51	0.531647	0.531944	-0.00081569	13	1.5499	11	0	83.407	-4.33901e-07
2	0	0	1	0	0	1286.01	0.519145	0.519438	-0.0214459	13	1.54987	11	0	2.4003	-1.11398e-05
2	0	0	1	0	0	1288.51	0.506643	0.50697	-0.0333755	13	1.5498	11	0	4.9006	-1.69204e-05
2	0	0	1	0	0	1291.01	0.494142	0.494496	-0.0426616	13	1.5497	11	0	7.401	-2.1096e-05
2	0	0	0	0	0	1293.51	0.48164	0.481925	-0.0499809	13	1.54958	11	0	9.9012	-2.4087e-05
2	0	0	0	0	0	1296.01	0.469139	0.469476	-0.05458	13	1.54946	11	0	12.4016	-2.5624e-05
2	0	0	0	0	0	1298.51	0.456637	0.456894	-0.0565719	13	1.54932	11	0	14.902	-2.58473e-05
2	1	0	1	0	1	1300.89	0.455287	0.455585	0.0486428	14	1.54928	11	0	0.8	2.21609e-05
2	1	0	1	0	1	1303.39	0.467788	0.468085	0.0546348	14	1.54941	11	0	3.3004	2.55738e-05
2	1	0	0	0	1	1305.89	0.48029	0.480572	0.0575891	14	1.54955	11	0	5.8006	2.76757e-05
2	1	0	0	0	1	1308.39	0.492792	0.49312	0.0598369	14	1.54969	11	0	8.301	2.95068e-05
2	1	0	0	0	1	1310.89	0.505293	0.505572	0.063698	14	1.54984	11	0	10.8014	3.22039e-05
2	1	0	1	0	1	1313.39	0.517795	0.518116	0.0715732	14	1.55001	11	0	13.3016	3.70832e-05
2	1	0	1	0	1	1315.89	0.530296	0.530614	0.0886622	14	1.55022	11	0	15.802	4.70454e-05
2	1	0	1	0	1	1318.39	0.542798	0.543151	0.12141	14	1.55048	11	0	18.3024	6.59439e-05
2	1	0	0	0	1	1320.89	0.5553	0.555608	0.17662	14	1.55085	11	0	20.8026	9.81315e-05
2	1	0	0	0	1	1323.39	0.567801	0.568098	0.265961	14	1.55139	11	0	23.303	0.000151092
2	1	0	1	0	1	1325.89	0.580303	0.580571	0.405946	14	1.55221	11	0	25.8032	0.00023568
2	1	0	1	0	1	1328.39	0.592804	0.593082	0.613016	14	1.55347	11	0	28.3036	0.000363568
2	1	0	1	0	1	1330.89	0.605306	0.605542	0.902177	14	1.55535	11	0	30.804	0.000546306
2	1	0	0	0	1	1333.39	0.617808	0.618155	1.2763	14	1.55806	11	0	33.3042	0.000788953
2	1	0	0	0	1	1335.9	0.630309	0.630578	1.73051	14	1.56181	11	0	35.8046	0.00109122
2	1	0	1	0	1	1338.4	0.642811	0.643134	2.25176	14	1.56678	11	0	38.3049	0.00144819
2	1	0	1	0	1	1340.9	0.655313	0.655589	2.83586	14	1.57312	11	0	40.8052	0.00185915
2	1	0	1	0	1	1343.4	0.667814	0.668142	3.45849	14	1.58099	11	0	43.3056	0.00231076
2	1	0	0	0	1	1345.9	0.680316	0.680587	4.11846	14	1.59045	11	0	45.8058	0.00280297
2	1	0	0	0	1	1348.4	0.692817	0.693128	4.81942	14	1.60162	11	0	48.3062	0.00334048
2	1	0	1	0	1	1350.69	0.695668	0.695965	4.95264	14	1.61322	11	0	50.6028	0.00344686
2	1	0	0	0	1	1353.19	0.683166	0.683385	4.21444	14	1.62466	11	0	53.103	0.00288008
2	1	0	0	0	1	1355.69	0.670665	0.670947	3.52094	14	1.63432	11	0	55.6034	0.00236237
2	1	0	1	0	1	1358.19	0.658163	0.658439	2.87357	14	1.64229	11	0	58.1037	0.00189207
2	1	0	1	0	1	1360.69	0.645661	0.645986	2.27852	14	1.64872	11	0	60.604	0.00147189
2	1	0	1	0	1	1363.2	0.63316	0.633506	1.74528	14	1.65374	11	0	63.1044	0.00110564
2	1	0	0	0	1	1365.7	0.620658	0.620946	1.28371	14	1.65751	11	0	65.6046	0.000797115
2	1	0	0	0	1	1368.2	0.608156	0.608531	0.899944	14	1.66023	11	0	68.105	0.000547644
2	1	0	0	0	1	1370.7	0.595655	0.595971	0.594443	14	1.66207	11	0	70.6054	0.000354271
2	1	0	1	0	1	1373.2	0.583153	0.583441	0.366743	14	1.66325	11	0	73.1056	0.000213973
2	1	0	1	0	1	1375.7	0.570652	0.570967	0.207401	14	1.66396	11	0	75.606	0.000118419
2	1	0	0	0	1	1378.2	0.55815	0.558454	0.103183	14	1.66434	11	0	78.1062	5.7623e-05
2	1	0	0	0	1	1380.7	0.545648	0.545908	0.042254	14	1.66451	11	0	80.6066	2.30668e-05
2	1	0	0	0	1	1383.2	0.533147	0.533366	0.00440591	14	1.66457	11	0	83.107	2.34996e-06
2	0	0	1	0	1	1385.7	0.520645	0.52093	-0.0199264	14	1.66454	11	0	2.2002	-1.03803e-05
2	0	0	1	0	1	1388.2	0.508144	0.508515	-0.0355482	14	1.66447	11	0	4.7006	-1.80768e-05
2	0	0	1	0	1	1390.7	0.495642	0.495999	-0.0448724	14	1.66437	11	0	7.201	-2.22567e-05
2	0	0	0	0	1	1393.2	0.48314	0.483452	-0.0495553	14	1.66426	11	0	9.7012	-2.39576e-05
2	0	0	0	0	1	1395.7	0.470639	0.470871	-0.0513723	14	1.66413	11	0	12.2016	-2.41897e-05
2	0	0	1	0	1	1398.2	0.458137	0.458426	-0.0532861	14	1.664	11	0	14.7018	-2.44278e-05
2	1	0	1	0	0	1400.58	0.453787	0.454115	0.0490305	15	1.66393	11	0	0.5	2.22655e-05
2	1	0	1	0	0	1403.08	0.466288	0.466601	0.0546237	15	1.66406	11	0	3.0004	2.54875e-05
2	1	0	0	0	0	1405.58	0.47879	0.479073	0.0557889	15	1.66419	11	0	5.5006	2.6727e-05
2	1	0	0	0	0	1408.08	0.491291	0.491599	0.0570086	15	1.66433	11	0	8.001	2.80254e-05
2	1	0	1	0	0	1410.58	0.503793	0.504109	0.0607157	15	1.66448	11	0	10.5013	3.06073e-05
2	1	0	1	0	0	1413.08	0.516295	0.516547	0.0695525	15	1.66465	11	0	13.0016	3.59271e-05
2	1	0	1	0	0	1415.58	0.528796	0.529107	0.0860008	15	1.66485	11	0	15.502	4.55036e-05
2	1	0	0	0	0	1418.08	0.541298	0.541623	0.115351	15	1.6651	11	0	18.0022	6.24765e-05
2	1	0	0	0	0	1420.58	0.553799	0.554089	0.165651	15	1.66545	11	0	20.5026	9.17857e-05
2	1	0	0	0	0	1423.08	0.566301	0.566581	0.249612	15	1.66595	11	0	23.003	0.000141425
2	1	0	1	0	0	1425.58	0.578803	0.579088	0.382356	15	1.66673	11	0	25.5032	0.000221418
2	1	0	1	0	0	1428.08	0.591304	0.591523	0.579625	15	1.66791	11	0	28.0036	0.000342861
2	1	0	1	0	0	1430.58	0.603806	0.604089	0.856075	15	1.66969	11	0	30.5039	0.000517146
2	1	0	0	0	0	1433.08	0.616308	0.616624	1.21621	15	1.67227	11	0	33.0042	0.000749943
2	1	0	0	0	0	1435.58	0.628809	0.629059	1.65728	15	1.67585	11	0	35.5046	0.00104253
2	1	0	1	0	0	1438.08	0.641311	0.641629	2.16953	15	1.68063	11	0	38.0048	0.00139203
2	1	0	1	0	0	1440.58	0.653812	0.654102	2.7397	15	1.68676	11	0	40.5052	0.00179204
2	1	0	1	0	0	1443.08	0.666314	0.666637	3.36029	15	1.69438	11	0	43.0056	0.00224009
2	1	0	0	0	0	1445.58	0.678816	0.679135	4.01792	15	1.7036	11	0	45.5058	0.00272871
2	1	0	0	0	0	1448.08	0.691317	0.691618	4.708	15	1.7145	11	0	48.0062	0.00325613
2	1	0	0	0	0	1450.38	0.697168	0.697436	5.01271	15	1.72596	11	0	50.3026	0.00349605
2	1	0	0	0	0	1452.88	0.684666	0.684932	4.26649	15	1.73755	11	0	52.803	0.00292226
2	1	0	0	0	0	1455.38	0.672165	0.672442	3.57038	15	1.74732	11	0	55.3034	0.00240087
2	1	0	1	0	0	1457.88	0.659663	0.659901	2.92187	15	1.75543	11	0	57.8036	0.00192815
2	1	0	1	0	0	1460.38	0.647162	0.647481	2.32372	15	1.76197	11	0	60.304	0.00150456
2	1	0	1	0	0	1462.88	0.63466	0.634998	1.78176	15	1.76709	11	0	62.8044	0.00113141
2	1	0	0	0	0	1465.38	0.622158	0.622447	1.31834	15	1.77095	11	0	65.3046	0.000820599
2	1	0	0	0	0	1467.88	0.609657	0.609974	0.925687	15	1.77373	11	0	67.805	0.000564645
2	1	0	1	0	0	1470.38	0.597155	0.597465	0.612691	15	1.77564	11	0	70.3052	0.000366061
2	1	0	1	0	0	1472.88	0.584653	0.584979	0.378569	15	1.77686	11	0	72.8056	0.000221455
2	1	0	1	0	0	1475.38	0.572152	0.572515	0.215635	15	1.77759	11	0	75.306	0.000123454
2	1	0	0	0	0	1477.88	0.55965	0.559982	0.109928	15	1.77799	11	0	77.8062	6.1558e-05
2	1	0	0	0	0	1480.38	0.547149	0.547465	0.0452707	15	1.77818	11	0	80.3066	2.47841e-05
2	1	0	1	0	0	1482.88	0.534647	0.53494	0.00651712	15	1.77824	11	0	82.8069	3.48627e-06
2	0	0	1	0	0	1485.38	0.522145	0.52243	-0.017316	15	1.77822	11	0	1.9002	-9.04639e-06
2	0	0	1	0	0	1487.88	0.509644	0.509978	-0.0326278	15	1.77815	11	0	4.4006	-1.66394e-05
2	0	0	0	0	0	1490.39	0.497142	0.497428	-0.0424774	15	1.77805	11	0	6.9008	-2.11295e-05
2	0	0	0	0	0	1492.89	0.484641	0.484907	-0.0492659	15	1.77794	11	0	9.4012	-2.38894e-05
2	0	0	0	0	0	1495.39	0.472139	0.472442	-0.0535539	15	1.77782	11	0	11.9016	-2.53011e-05
2	0	0	1	0	0	1497.89	0.459637	0.45991	-0.0556225	15	1.77768	11	0	14.4018	-2.55814e-05
2	0	0	1	0	0	1499.81	0.450011	0.450274	-0.0555623	15	1.77757	11	0	16.3244	-2.50182e-05