File: ACS_Catal_2026/Figures_Na_K/main_figures/data/EC/20240126_2-102_Add_Na/20240125_2-102_008_preconditiioning_elctrode4_01_CVA_C02.mpt
EC-Lab ASCII FILE
Nb header lines : 66

Cyclic Voltammetry Advanced

Run on channel : 2 (SN 66414)
User :
CE vs. WE compliance from -10 V to 10 V
Electrode connection : standard
Potential control : Ewe
Ewe ctrl range : min = -1.00 V, max = 1.00 V
Safety Limits :
	Do not start on E overload
Acquisition started on : 01/26/2024 17:15:30.810
Loaded Setting File :  C:\Users\NakamuraT\Documents\EC-Lab\Data\Yatsuzuka\20240126_2-102_Add_Na\20240125_2-102_007_preconditioning_elctrode3.mps
Saved on :
	File : 20240125_2-102_008_preconditiioning_elctrode4_01_CVA_C02.mpr
	Directory : C:\Users\NakamuraT\Documents\EC-Lab\Data\Yatsuzuka\20240126_2-102_Add_Na\
	Host : 192.109.209.100
Device : SP-150e (SN .003411)
Address : 192.109.209.236
EC-Lab for windows v11.50 (software)
Internet server v11.50 (firmware)
Command interpretor v11.50 (firmware)
Electrode material :
Initial state :
Electrolyte :
Comments :
Electrode surface area : 0.001 cm2
Characteristic mass : 0.001 g
Equivalent Weight : 0.000 g/eq.
Density : 0.000 g/cm3
Volume (V) : 0.001 cm3
Cycle Definition : Charge/Discharge alternance
Ei (V)              0.350
vs.                 Ref
ti (h:m:s)          0:00:10.0000
dti (s)             1.0000
dE/dt               10.000
dE/dt unit          mV/s
E1 (V)              0.450
vs.                 Ref
t1 (h:m:s)          0:00:0.0000
dt1 (s)             0.1000
Step percent        50
N                   10
E range min (V)     -1.000
E range max (V)     1.000
I Range             Auto
I Range min         Unset
I Range max         Unset
I Range init        Unset
Bandwidth           5
E2 (V)              0.350
vs.                 Ref
t2 (h:m:s)          0:00:0.0000
dt2 (s)             0.1000
nc cycles           9
nr                  1
Reverse Scan        0
Ef (V)              0.000
vs.                 Eoc
tf (h:m:s)          0:00:0.0000
dtf (s)             0.1000

mode	ox/red	error	control changes	Ns changes	counter inc.	time/s	control/V	Ewe/V	<I>/mA	cycle number	(Q-Qo)/C	I Range	Ns	step time/s	P/W
2	1	0	0	0	0	0.000000000000000E+000	0.349998	0.350332	14.794	1	0.0000000E+000	10	0	0.000000000000000E+000	0.00518283
2	1	0	0	0	0	7.0034	0.349998	0.350256	0.207742	1	0.0130563	12	0	6	7.27628e-05
2	1	0	1	0	0	10.1775	0.351723	0.352114	0.245512	1	0.0135516	12	0	9.1741	8.64481e-05
2	1	0	1	0	0	10.5275	0.355224	0.355498	0.369045	1	0.0136627	12	0	9.5241	0.000131195
2	1	0	1	0	0	10.8775	0.358724	0.359111	0.415859	1	0.0138004	12	0	9.8741	0.00014934
2	1	0	1	0	0	11.2275	0.362225	0.362536	0.434885	1	0.0139487	12	0	10.2241	0.000157662
2	1	0	1	0	0	11.5777	0.365725	0.366097	0.439832	1	0.0141014	12	0	10.5743	0.000161021
2	1	0	1	0	0	11.9277	0.369226	0.369472	0.442452	1	0.0142561	12	0	10.9243	0.000163474
2	1	0	1	0	0	12.2777	0.372726	0.372984	0.442518	1	0.014412	12	0	11.2743	0.000165052
2	1	0	1	0	0	12.6277	0.376227	0.376514	0.446299	1	0.0145685	12	0	11.6243	0.000168038
2	1	0	1	0	0	12.9777	0.379727	0.379946	0.449273	1	0.0147256	12	0	11.9743	0.0001707
2	1	0	1	0	0	13.3279	0.383227	0.383567	0.453374	1	0.0148832	12	0	12.3245	0.0001739
2	1	0	1	0	0	13.6779	0.386728	0.387034	0.454311	1	0.0150409	12	0	12.6745	0.000175834
2	1	0	1	0	0	14.0279	0.390228	0.390554	0.454355	1	0.015199	12	0	13.0245	0.00017745
2	1	0	1	0	0	14.3779	0.393729	0.394066	0.450863	1	0.0153571	12	0	13.3745	0.00017767
2	1	0	1	0	0	14.7281	0.397229	0.397488	0.449474	1	0.0155154	12	0	13.7247	0.00017866
2	1	0	1	0	0	15.0781	0.40073	0.401109	0.448725	1	0.0156737	12	0	14.0747	0.000179988
2	1	0	1	0	0	15.4281	0.40423	0.404513	0.451796	1	0.0158323	12	0	14.4247	0.000182757
2	1	0	1	0	0	15.7781	0.407731	0.408056	0.453298	1	0.0159909	12	0	14.7747	0.000184971
2	1	0	1	0	0	16.1282	0.411231	0.411572	0.456476	1	0.0161497	12	0	15.1248	0.000187873
2	1	0	1	0	0	16.4783	0.414731	0.414977	0.455861	1	0.0163083	12	0	15.4749	0.000189172
2	1	0	1	0	0	16.8283	0.418232	0.418575	0.454995	1	0.0164668	12	0	15.8249	0.000190449
2	1	0	1	0	0	17.1783	0.421732	0.422013	0.451238	1	0.0166252	12	0	16.1749	0.000190428
2	1	0	1	0	0	17.5283	0.425233	0.425528	0.450463	1	0.0167837	12	0	16.5249	0.000191685
2	1	0	1	0	0	17.8785	0.428733	0.428905	0.449237	1	0.0169424	12	0	16.8751	0.00019268
2	1	0	1	0	0	18.2285	0.432234	0.432536	0.452874	1	0.0171012	12	0	17.2251	0.000195884
2	1	0	1	0	0	18.5785	0.435734	0.43605	0.455057	1	0.0172601	12	0	17.5751	0.000198427
2	1	0	1	0	0	18.9285	0.439235	0.439602	0.459124	1	0.0174195	12	0	17.9251	0.000201832
2	1	0	1	0	0	19.2787	0.442735	0.443098	0.460187	1	0.0175793	12	0	18.2753	0.000203908
2	1	0	1	0	0	19.6287	0.446236	0.446595	0.460804	1	0.0177396	12	0	18.6253	0.000205793
2	1	0	1	0	0	19.9787	0.449736	0.450146	0.458561	1	0.0179002	12	0	18.9753	0.00020642
2	1	0	1	0	0	20.2351	0.447686	0.448004	0.188973	1	0.0179809	12	0	19.2317	8.46609e-05
2	1	0	1	0	0	20.5851	0.444185	0.444433	0.0348498	1	0.0180139	12	0	19.5817	1.54884e-05
2	0	0	1	0	0	20.9653	0.440385	0.440709	-0.0309943	1	0.0180127	13	0	0.1651	-1.36595e-05
2	0	0	1	0	0	21.3153	0.436884	0.437152	-0.0630583	1	0.0179952	13	0	0.5151	-2.7566e-05
2	0	0	1	0	0	21.6653	0.433384	0.433751	-0.086263	1	0.0179677	13	0	0.8651	-3.74167e-05
2	0	0	1	0	0	22.0453	0.429583	0.42991	-0.112674	1	0.0179289	12	0	1.2451	-4.84396e-05
2	0	0	1	0	0	22.3955	0.426083	0.426333	-0.126486	1	0.0178873	12	0	1.5953	-5.39249e-05
2	0	0	1	0	0	22.7455	0.422583	0.422884	-0.136597	1	0.0178408	12	0	1.9453	-5.77648e-05
2	0	0	1	0	0	23.0955	0.419082	0.419365	-0.148555	1	0.0177898	12	0	2.2953	-6.22986e-05
2	0	0	1	0	0	23.4455	0.415582	0.415908	-0.159499	1	0.0177348	12	0	2.6453	-6.6337e-05
2	0	0	1	0	0	23.7955	0.412081	0.412429	-0.173129	1	0.0176762	12	0	2.9953	-7.14036e-05
2	0	0	1	0	0	24.1457	0.408581	0.40887	-0.183583	1	0.0176142	12	0	3.3455	-7.50614e-05
2	0	0	1	0	0	24.4957	0.40508	0.405444	-0.193942	1	0.017549	12	0	3.6955	-7.86325e-05
2	0	0	1	0	0	24.8457	0.40158	0.401802	-0.199308	1	0.0174811	12	0	4.0455	-8.00824e-05
2	0	0	1	0	0	25.1957	0.398079	0.398411	-0.204819	1	0.0174106	12	0	4.3955	-8.16023e-05
2	0	0	1	0	0	25.5459	0.394579	0.394814	-0.208552	1	0.0173376	12	0	4.7457	-8.23394e-05
2	0	0	1	0	0	25.8959	0.391078	0.391445	-0.215577	1	0.0172622	12	0	5.0957	-8.43866e-05
2	0	0	1	0	0	26.2459	0.387578	0.387912	-0.222936	1	0.0171845	12	0	5.4457	-8.64796e-05
2	0	0	1	0	0	26.5959	0.384078	0.384403	-0.233084	1	0.0171044	12	0	5.7957	-8.95983e-05
2	0	0	1	0	0	26.946	0.380578	0.380882	-0.241252	1	0.0170221	12	0	6.1458	-9.18885e-05
2	0	0	1	0	0	27.2961	0.377077	0.377279	-0.248397	1	0.0169374	12	0	6.4959	-9.37151e-05
2	0	0	1	0	0	27.6461	0.373576	0.373754	-0.252354	1	0.0168507	12	0	6.8459	-9.43182e-05
2	0	0	1	0	0	27.9961	0.370076	0.370479	-0.255634	1	0.0167619	12	0	7.1959	-9.4707e-05
2	0	0	1	0	0	28.3461	0.366575	0.366966	-0.259114	1	0.0166712	12	0	7.5459	-9.50858e-05
2	0	0	1	0	0	28.6963	0.363075	0.363443	-0.265093	1	0.0165784	12	0	7.8961	-9.63463e-05
2	0	0	1	0	0	29.0463	0.359574	0.359802	-0.272992	1	0.0164834	12	0	8.2461	-9.82231e-05
2	0	0	1	0	0	29.3963	0.356074	0.356376	-0.281686	1	0.0163863	12	0	8.5961	-0.000100386
2	0	0	1	0	0	29.7463	0.352573	0.352897	-0.289646	1	0.0162871	12	0	8.9461	-0.000102215
2	0	0	1	0	1	30.0291	0.350273	0.350579	-0.247056	2	0.0162065	12	0	9.2289	-8.66125e-05
2	1	0	1	0	1	30.3791	0.353774	0.354126	0.116274	2	0.0161951	12	0	0.1	4.11758e-05
2	1	0	1	0	1	30.7291	0.357274	0.35765	0.245929	2	0.0162616	12	0	0.45	8.79566e-05
2	1	0	1	0	1	31.0791	0.360775	0.361105	0.295696	2	0.0163567	12	0	0.8	0.000106777
2	1	0	1	0	1	31.4291	0.364275	0.364546	0.311617	2	0.0164629	12	0	1.15	0.000113599
2	1	0	1	0	1	31.7793	0.367775	0.368163	0.317398	2	0.0165734	12	0	1.5002	0.000116854
2	1	0	1	0	1	32.1293	0.371276	0.371571	0.317155	2	0.0166855	12	0	1.8502	0.000117845
2	1	0	1	0	1	32.4793	0.374776	0.375112	0.319489	2	0.0167981	12	0	2.2002	0.000119844
2	1	0	1	0	1	32.8293	0.378277	0.378654	0.320481	2	0.0169107	12	0	2.5502	0.000121352
2	1	0	1	0	1	33.1795	0.381777	0.382021	0.323127	2	0.0170232	12	0	2.9004	0.000123442
2	1	0	1	0	1	33.5295	0.385278	0.385539	0.322839	2	0.0171352	12	0	3.2504	0.000124467
2	1	0	1	0	1	33.8795	0.388778	0.38905	0.321837	2	0.017247	12	0	3.6004	0.000125211
2	1	0	1	0	1	34.2295	0.392279	0.392645	0.317216	2	0.0173582	12	0	3.9504	0.000124553
2	1	0	1	0	1	34.5796	0.39578	0.396129	0.313878	2	0.017469	12	0	4.3005	0.000124336
2	1	0	1	0	1	34.9297	0.39928	0.399608	0.310622	2	0.0175792	12	0	4.6506	0.000124127
2	1	0	1	0	1	35.2797	0.40278	0.403096	0.311728	2	0.0176892	12	0	5.0006	0.000125657
2	1	0	1	0	1	35.6297	0.40628	0.406623	0.312875	2	0.0177988	12	0	5.3506	0.000127222
2	1	0	1	0	1	35.9797	0.409781	0.410085	0.315847	2	0.0179085	12	0	5.7006	0.000129524
2	1	0	1	0	1	36.3299	0.413281	0.413525	0.315963	2	0.018018	12	0	6.0508	0.000130659
2	1	0	1	0	1	36.6799	0.416782	0.417123	0.314563	2	0.0181275	12	0	6.4008	0.000131211
2	1	0	1	0	1	37.0299	0.420282	0.420591	0.312454	2	0.0182369	12	0	6.7508	0.000131415
2	1	0	1	0	1	37.3799	0.423783	0.42397	0.310371	2	0.0183465	12	0	7.1008	0.000131588
2	1	0	1	0	1	37.7301	0.427283	0.427497	0.310734	2	0.0184564	12	0	7.451	0.000132838
2	1	0	1	0	1	38.0801	0.430784	0.431057	0.313881	2	0.0185667	12	0	7.801	0.000135301
2	1	0	1	0	1	38.4301	0.434284	0.434574	0.318951	2	0.0186775	12	0	8.151	0.000138608
2	1	0	1	0	1	38.7801	0.437785	0.438061	0.323518	2	0.0187893	12	0	8.501	0.000141721
2	1	0	1	0	1	39.1301	0.441285	0.441596	0.327066	2	0.0189019	12	0	8.851	0.000144431
2	1	0	1	0	1	39.4803	0.444785	0.445052	0.327389	2	0.0190157	12	0	9.2012	0.000145705
2	1	0	1	0	1	39.8303	0.448286	0.448583	0.32927	2	0.0191306	12	0	9.5512	0.000147705
2	1	0	1	0	1	40.0817	0.449186	0.449519	0.211471	2	0.0192081	12	0	9.8026	9.50601e-05
2	0	0	1	0	1	40.4317	0.445686	0.446046	-0.0325955	2	0.0192291	12	0	0.05	-1.45391e-05
2	0	0	1	0	1	40.7818	0.442185	0.442478	-0.106344	2	0.0192029	12	0	0.4001	-4.70549e-05
2	0	0	1	0	1	41.1319	0.438685	0.439029	-0.135465	2	0.019161	12	0	0.7502	-5.94731e-05
2	0	0	1	0	1	41.4819	0.435184	0.435585	-0.152392	2	0.0191115	12	0	1.1002	-6.63798e-05
2	0	0	1	0	1	41.8319	0.431684	0.432076	-0.160697	2	0.0190571	12	0	1.4502	-6.94331e-05
2	0	0	1	0	1	42.1819	0.428183	0.428518	-0.169181	2	0.0189988	12	0	1.8002	-7.24971e-05
2	0	0	1	0	1	42.5321	0.424683	0.425023	-0.175454	2	0.0189373	12	0	2.1504	-7.45718e-05
2	0	0	1	0	1	42.8821	0.421182	0.421471	-0.185189	2	0.018873	12	0	2.5004	-7.8052e-05
2	0	0	1	0	1	43.2321	0.417682	0.418022	-0.19409	2	0.0188062	12	0	2.8504	-8.11337e-05
2	0	0	1	0	1	43.5821	0.414181	0.414482	-0.204114	2	0.0187369	12	0	3.2004	-8.46014e-05
2	0	0	1	0	1	43.9323	0.410681	0.410927	-0.210345	2	0.0186653	12	0	3.5506	-8.64366e-05
2	0	0	1	0	1	44.2823	0.407181	0.407429	-0.216128	2	0.0185917	12	0	3.9006	-8.80569e-05
2	0	0	1	0	1	44.6323	0.40368	0.403983	-0.217842	2	0.018516	12	0	4.2506	-8.80044e-05
2	0	0	1	0	1	44.9823	0.40018	0.400495	-0.221262	2	0.0184386	12	0	4.6006	-8.86143e-05
2	0	0	1	0	1	45.3323	0.396679	0.396892	-0.225463	2	0.0183594	12	0	4.9506	-8.94845e-05
2	0	0	1	0	1	45.6825	0.393179	0.393558	-0.232466	2	0.0182783	12	0	5.3008	-9.1489e-05
2	0	0	1	0	1	46.0325	0.389678	0.389904	-0.240438	2	0.0181954	12	0	5.6508	-9.37478e-05
2	0	0	1	0	1	46.3825	0.386178	0.386464	-0.247788	2	0.0181107	12	0	6.0008	-9.5761e-05
2	0	0	1	0	1	46.7325	0.382677	0.38295	-0.252841	2	0.0180243	12	0	6.3508	-9.68255e-05
2	0	0	1	0	1	47.0827	0.379177	0.379443	-0.255527	2	0.0179361	12	0	6.701	-9.69579e-05
2	0	0	1	0	1	47.4327	0.375676	0.37596	-0.257772	2	0.0178463	12	0	7.051	-9.69121e-05
2	0	0	1	0	1	47.7827	0.372176	0.372493	-0.260405	2	0.0177548	12	0	7.401	-9.69989e-05
2	0	0	1	0	1	48.1327	0.368676	0.36888	-0.265891	2	0.0176616	12	0	7.751	-9.8082e-05
2	0	0	1	0	1	48.4828	0.365176	0.365492	-0.272433	2	0.0175665	12	0	8.1011	-9.9572e-05
2	0	0	1	0	1	48.8329	0.361675	0.36187	-0.281274	2	0.0174697	12	0	8.4512	-0.000101785
2	0	0	1	0	1	49.1829	0.358174	0.35851	-0.287537	2	0.0173709	12	0	8.8012	-0.000103085
2	0	0	1	0	1	49.5329	0.354674	0.355033	-0.293329	2	0.0172704	12	0	9.1512	-0.000104141
2	0	0	1	0	1	49.8829	0.351173	0.351466	-0.296064	2	0.0171679	12	0	9.5012	-0.000104056
2	0	0	1	0	0	50.1757	0.351773	0.352142	-0.0514876	3	0.0171054	12	0	9.794	-1.8131e-05
2	1	0	1	0	0	50.5257	0.355274	0.355557	0.17773	3	0.017134	12	0	0.25	6.31933e-05
2	1	0	1	0	0	50.8757	0.358774	0.35902	0.258357	3	0.0172116	12	0	0.6	9.27553e-05
2	1	0	1	0	0	51.2257	0.362275	0.362615	0.288085	3	0.0173073	12	0	0.95	0.000104464
2	1	0	1	0	0	51.5759	0.365775	0.366119	0.296159	3	0.0174098	12	0	1.3002	0.00010843
2	1	0	1	0	0	51.9259	0.369276	0.369522	0.298801	3	0.0175147	12	0	1.6502	0.000110413
2	1	0	1	0	0	52.2759	0.372776	0.373121	0.298527	3	0.0176203	12	0	2.0002	0.000111387
2	1	0	1	0	0	52.6259	0.376277	0.376647	0.300616	3	0.0177261	12	0	2.3502	0.000113226
2	1	0	1	0	0	52.9759	0.379777	0.380126	0.301528	3	0.0178316	12	0	2.7002	0.000114619
2	1	0	1	0	0	53.3261	0.383277	0.383507	0.302522	3	0.0179368	12	0	3.0504	0.000116019
2	1	0	1	0	0	53.6761	0.386778	0.387175	0.301459	3	0.0180414	12	0	3.4004	0.000116717
2	1	0	1	0	0	54.0261	0.390278	0.390631	0.298185	3	0.0181455	12	0	3.7504	0.00011648
2	1	0	1	0	0	54.3761	0.393779	0.394136	0.293848	3	0.0182488	12	0	4.1004	0.000115816
2	1	0	1	0	0	54.7263	0.397279	0.397505	0.289623	3	0.0183517	12	0	4.4506	0.000115127
2	1	0	1	0	0	55.0763	0.40078	0.401187	0.28796	3	0.018454	12	0	4.8006	0.000115526
2	1	0	1	0	0	55.4263	0.40428	0.404662	0.287972	3	0.0185558	12	0	5.1506	0.000116531
2	1	0	1	0	0	55.7763	0.407781	0.408146	0.289834	3	0.0186571	12	0	5.5006	0.000118295
2	1	0	1	0	0	56.1264	0.411281	0.41164	0.290918	3	0.0187582	12	0	5.8507	0.000119753
2	1	0	1	0	0	56.4765	0.414781	0.415079	0.291438	3	0.0188589	12	0	6.2008	0.000120969
2	1	0	1	0	0	56.8265	0.418282	0.418573	0.288664	3	0.0189594	12	0	6.5508	0.000120827
2	1	0	1	0	0	57.1765	0.421782	0.422115	0.286503	3	0.0190598	12	0	6.9008	0.000120937
2	1	0	1	0	0	57.5265	0.425283	0.425628	0.283247	3	0.01916	12	0	7.2508	0.000120558
2	1	0	1	0	0	57.8767	0.428783	0.429143	0.283607	3	0.0192603	12	0	7.601	0.000121708
2	1	0	1	0	0	58.2267	0.432284	0.432549	0.284777	3	0.0193607	12	0	7.951	0.00012318
2	1	0	1	0	0	58.5767	0.435784	0.436089	0.289324	3	0.0194615	12	0	8.301	0.000126171
2	1	0	1	0	0	58.9267	0.439285	0.439593	0.292275	3	0.0195628	12	0	8.651	0.000128482
2	1	0	1	0	0	59.2769	0.442785	0.443145	0.296096	3	0.0196648	12	0	9.0012	0.000131213
2	1	0	1	0	0	59.6269	0.446286	0.446646	0.29623	3	0.0197675	12	0	9.3512	0.00013231
2	1	0	1	0	0	59.9744	0.449761	0.450108	0.296314	3	0.0198705	12	0	9.6987	0.000133373
2	1	0	1	0	0	60.2283	0.447686	0.44812	0.0346499	3	0.0199096	12	0	9.9526	1.55273e-05
2	0	0	1	0	0	60.5783	0.444185	0.44462	-0.0978515	3	0.0198924	12	0	0.25	-4.35068e-05
2	0	0	1	0	0	60.9285	0.440685	0.441058	-0.143076	3	0.0198487	12	0	0.6002	-6.3105e-05
2	0	0	1	0	0	61.2785	0.437184	0.437558	-0.162918	3	0.0197953	12	0	0.9502	-7.1286e-05
2	0	0	1	0	0	61.6285	0.433684	0.433987	-0.176743	3	0.0197367	12	0	1.3002	-7.67044e-05
2	0	0	1	0	0	61.9785	0.430184	0.430495	-0.183341	3	0.0196746	12	0	1.6502	-7.89277e-05
2	0	0	1	0	0	62.3286	0.426684	0.426966	-0.189033	3	0.0196096	12	0	2.0003	-8.07105e-05
2	0	0	1	0	0	62.6787	0.423183	0.423554	-0.192796	3	0.0195422	12	0	2.3504	-8.16594e-05
2	0	0	1	0	0	63.0287	0.419682	0.42006	-0.198523	3	0.0194726	12	0	2.7004	-8.33916e-05
2	0	0	1	0	0	63.3787	0.416182	0.416482	-0.204823	3	0.019401	12	0	3.0504	-8.53051e-05
2	0	0	1	0	0	63.7287	0.412681	0.412993	-0.213506	3	0.0193275	12	0	3.4004	-8.81763e-05
2	0	0	1	0	0	64.0789	0.409181	0.409515	-0.220247	3	0.0192521	12	0	3.7506	-9.01943e-05
2	0	0	1	0	0	64.4289	0.40568	0.406059	-0.22689	3	0.0191748	12	0	4.1006	-9.21306e-05
2	0	0	1	0	0	64.7789	0.40218	0.402487	-0.229817	3	0.0190959	12	0	4.4506	-9.24982e-05
2	0	0	1	0	0	65.1289	0.398679	0.398885	-0.232287	3	0.0190155	12	0	4.8006	-9.26558e-05
2	0	0	1	0	0	65.4791	0.395179	0.395551	-0.234103	3	0.0189334	12	0	5.1508	-9.25996e-05
2	0	0	1	0	0	65.8291	0.391679	0.39206	-0.237552	3	0.0188499	12	0	5.5008	-9.31346e-05
2	0	0	1	0	0	66.1791	0.388178	0.38854	-0.243127	3	0.0187648	12	0	5.8508	-9.44645e-05
2	0	0	1	0	0	66.5291	0.384678	0.384989	-0.250024	3	0.018678	12	0	6.2008	-9.62564e-05
2	0	0	1	0	0	66.8791	0.381177	0.381469	-0.257303	3	0.0185897	12	0	6.5508	-9.81532e-05
2	0	0	1	0	0	67.2293	0.377677	0.378007	-0.262668	3	0.0184996	12	0	6.901	-9.92904e-05
2	0	0	1	0	0	67.5793	0.374176	0.374537	-0.266782	3	0.018408	12	0	7.251	-9.99199e-05
2	0	0	1	0	0	67.9293	0.370676	0.370977	-0.268536	3	0.0183148	12	0	7.601	-9.96206e-05
2	0	0	1	0	0	68.2793	0.367175	0.367489	-0.271391	3	0.0182199	12	0	7.951	-9.97333e-05
2	0	0	1	0	0	68.6295	0.363675	0.363962	-0.274046	3	0.0181233	12	0	8.3012	-9.97424e-05
2	0	0	1	0	0	68.9795	0.360174	0.36051	-0.280343	3	0.0180251	12	0	8.6512	-0.000101067
2	0	0	1	0	0	69.3295	0.356674	0.356884	-0.286627	3	0.0179252	12	0	9.0012	-0.000102293
2	0	0	1	0	0	69.6795	0.353174	0.353433	-0.295156	3	0.0178234	12	0	9.3512	-0.000104318
2	0	0	0	0	1	69.995	0.349998	0.350161	-0.286074	3	0.0177301	12	0	9.6667	-0.000100172
2	1	0	1	0	1	70.3223	0.353274	0.353625	0.0673621	4	0.017704	12	0	0.05	2.38209e-05
2	1	0	1	0	1	70.6723	0.356774	0.357086	0.212336	4	0.0177584	12	0	0.4	7.58221e-05
2	1	0	1	0	1	71.0223	0.360274	0.360556	0.265686	4	0.0178438	12	0	0.75	9.57948e-05
2	1	0	1	0	1	71.3723	0.363775	0.364054	0.287911	4	0.0179407	12	0	1.1	0.000104815
2	1	0	1	0	1	71.7225	0.367275	0.367573	0.294681	4	0.0180418	12	0	1.4502	0.000108317
2	1	0	1	0	1	72.0725	0.370776	0.371022	0.296588	4	0.0181443	12	0	1.8002	0.00011004
2	1	0	1	0	1	72.4225	0.374276	0.374473	0.293239	4	0.018247	12	0	2.1502	0.00010981
2	1	0	1	0	1	72.7725	0.377777	0.377989	0.290641	4	0.0183495	12	0	2.5002	0.000109859
2	1	0	1	0	1	73.1227	0.381277	0.381587	0.286755	4	0.0184515	12	0	2.8504	0.000109422
2	1	0	1	0	1	73.4727	0.384778	0.385109	0.286054	4	0.0185529	12	0	3.2004	0.000110162
2	1	0	1	0	1	73.8227	0.388278	0.388556	0.28571	4	0.0186536	12	0	3.5504	0.000111014
2	1	0	1	0	1	74.1727	0.391779	0.391998	0.287423	4	0.0187538	12	0	3.9004	0.000112669
2	1	0	1	0	1	74.5227	0.395279	0.395537	0.286459	4	0.0188534	12	0	4.2504	0.000113305
2	1	0	1	0	1	74.8729	0.398779	0.399085	0.285669	4	0.0189524	12	0	4.6006	0.000114006
2	1	0	1	0	1	75.2229	0.40228	0.402579	0.281127	4	0.0190506	12	0	4.9506	0.000113176
2	1	0	1	0	1	75.5729	0.40578	0.406006	0.277282	4	0.0191483	12	0	5.3006	0.000112578
2	1	0	1	0	1	75.9229	0.409281	0.409543	0.273968	4	0.0192455	12	0	5.6506	0.000112202
2	1	0	1	0	1	76.2731	0.412781	0.412994	0.271999	4	0.0193423	12	0	6.0008	0.000112334
2	1	0	1	0	1	76.6231	0.416282	0.416592	0.272583	4	0.0194386	12	0	6.3508	0.000113556
2	1	0	1	0	1	76.9731	0.419782	0.420169	0.274113	4	0.0195346	12	0	6.7008	0.000115174
2	1	0	1	0	1	77.3231	0.423283	0.423556	0.275829	4	0.0196303	12	0	7.0508	0.000116829
2	1	0	1	0	1	77.6732	0.426783	0.427081	0.276496	4	0.0197261	12	0	7.4009	0.000118086
2	1	0	1	0	1	78.0233	0.430284	0.43053	0.275523	4	0.0198218	12	0	7.751	0.000118621
2	1	0	1	0	1	78.3733	0.433784	0.433967	0.273161	4	0.0199174	12	0	8.101	0.000118543
2	1	0	1	0	1	78.7233	0.437284	0.437529	0.272042	4	0.0200133	12	0	8.451	0.000119027
2	1	0	1	0	1	79.0733	0.440785	0.441075	0.271756	4	0.0201095	12	0	8.801	0.000119865
2	1	0	1	0	1	79.4235	0.444285	0.444616	0.274849	4	0.0202061	12	0	9.1512	0.000122202
2	1	0	1	0	1	79.7735	0.447786	0.448029	0.278683	4	0.0203034	12	0	9.5012	0.000124858
2	1	0	1	0	1	80.0249	0.449686	0.449873	0.226192	4	0.0203726	12	0	9.7526	0.000101758
2	0	0	1	0	1	80.3749	0.446186	0.44646	-0.0639166	4	0.0203896	12	0	0.1	-2.85362e-05
2	0	0	1	0	1	80.7249	0.442685	0.442969	-0.135394	4	0.0203524	12	0	0.45	-5.99753e-05
2	0	0	1	0	1	81.0751	0.439185	0.439539	-0.160366	4	0.0202996	12	0	0.8002	-7.04869e-05
2	0	0	1	0	1	81.4251	0.435684	0.436002	-0.171292	4	0.0202404	12	0	1.1502	-7.46837e-05
2	0	0	1	0	1	81.7751	0.432184	0.432405	-0.182149	4	0.0201774	12	0	1.5002	-7.87622e-05
2	0	0	1	0	1	82.1251	0.428683	0.429018	-0.190871	4	0.0201116	12	0	1.8502	-8.18869e-05
2	0	0	1	0	1	82.4753	0.425183	0.42544	-0.200496	4	0.0200433	12	0	2.2004	-8.52989e-05
2	0	0	1	0	1	82.8253	0.421682	0.421994	-0.206778	4	0.0199729	12	0	2.5504	-8.72589e-05
2	0	0	1	0	1	83.1753	0.418182	0.418484	-0.212744	4	0.0199006	12	0	2.9004	-8.903e-05
2	0	0	1	0	1	83.5253	0.414681	0.41503	-0.214649	4	0.0198266	12	0	3.2504	-8.90858e-05
2	0	0	1	0	1	83.8754	0.411182	0.411556	-0.218003	4	0.0197508	12	0	3.6005	-8.97203e-05
2	0	0	1	0	1	84.2255	0.407681	0.408015	-0.219882	4	0.0196735	12	0	3.9506	-8.97151e-05
2	0	0	1	0	1	84.5755	0.40418	0.40451	-0.224937	4	0.0195945	12	0	4.3006	-9.09892e-05
2	0	0	1	0	1	84.9255	0.40068	0.400947	-0.229752	4	0.0195141	12	0	4.6506	-9.21185e-05
2	0	0	1	0	1	85.2755	0.397179	0.397485	-0.237559	4	0.0194322	12	0	5.0006	-9.44262e-05
2	0	0	1	0	1	85.6257	0.393679	0.39398	-0.242891	4	0.0193488	12	0	5.3508	-9.56942e-05
2	0	0	1	0	1	85.9757	0.390178	0.390442	-0.248701	4	0.0192638	12	0	5.7008	-9.71032e-05
2	0	0	1	0	1	86.3257	0.386678	0.387013	-0.250478	4	0.0191773	12	0	6.0508	-9.69381e-05
2	0	0	1	0	1	86.6757	0.383177	0.383523	-0.25343	4	0.0190893	12	0	6.4008	-9.71963e-05
2	0	0	1	0	1	87.0259	0.379677	0.380034	-0.254269	4	0.0189998	12	0	6.751	-9.66308e-05
2	0	0	1	0	1	87.3759	0.376177	0.376563	-0.258912	4	0.0189089	12	0	7.101	-9.74969e-05
2	0	0	1	0	1	87.7259	0.372676	0.372983	-0.263693	4	0.0188164	12	0	7.451	-9.83531e-05
2	0	0	1	0	1	88.0759	0.369176	0.369509	-0.271311	4	0.0187222	12	0	7.801	-0.000100252
2	0	0	1	0	1	88.4259	0.365675	0.365966	-0.278083	4	0.0186264	12	0	8.151	-0.000101769
2	0	0	1	0	1	88.7761	0.362175	0.362483	-0.284898	4	0.0185288	12	0	8.5012	-0.00010327
2	0	0	1	0	1	89.1261	0.358674	0.358951	-0.288587	4	0.0184296	12	0	8.8512	-0.000103589
2	0	0	1	0	1	89.4761	0.355174	0.355399	-0.291636	4	0.0183287	12	0	9.2012	-0.000103647
2	0	0	1	0	1	89.8261	0.351673	0.351993	-0.293627	4	0.0182262	12	0	9.5512	-0.000103355
2	0	0	1	0	0	90.1189	0.351273	0.351582	-0.106388	5	0.0181526	12	0	9.844	-3.7404e-05
2	1	0	1	0	0	90.4689	0.354774	0.355075	0.152391	5	0.018168	12	0	0.2	5.41104e-05
2	1	0	1	0	0	90.8189	0.358274	0.358677	0.241788	5	0.0182387	12	0	0.55	8.67239e-05
2	1	0	1	0	0	91.1689	0.361775	0.362017	0.271638	5	0.0183292	12	0	0.9	9.83378e-05
2	1	0	1	0	0	91.519	0.365275	0.365596	0.281444	5	0.0184267	12	0	1.2501	0.000102895
2	1	0	1	0	0	91.8691	0.368776	0.369044	0.283313	5	0.0185267	12	0	1.6002	0.000104555
2	1	0	1	0	0	92.2191	0.372276	0.372566	0.285666	5	0.0186274	12	0	1.9502	0.000106429
2	1	0	1	0	0	92.5691	0.375777	0.376095	0.28616	5	0.0187281	12	0	2.3002	0.000107623
2	1	0	1	0	0	92.9191	0.379277	0.379618	0.288249	5	0.0188284	12	0	2.6502	0.000109425
2	1	0	1	0	0	93.2693	0.382777	0.383048	0.28718	5	0.0189282	12	0	3.0004	0.000110004
2	1	0	1	0	0	93.6193	0.386278	0.386632	0.285895	5	0.0190273	12	0	3.3504	0.000110536
2	1	0	1	0	0	93.9693	0.389778	0.390111	0.281041	5	0.0191258	12	0	3.7004	0.000109637
2	1	0	1	0	0	94.3193	0.393279	0.393595	0.277473	5	0.0192235	12	0	4.0504	0.000109212
2	1	0	1	0	0	94.6695	0.396779	0.3971	0.272035	5	0.0193205	12	0	4.4006	0.000108025
2	1	0	1	0	0	95.0195	0.40028	0.400605	0.270841	5	0.0194168	12	0	4.7506	0.0001085
2	1	0	1	0	0	95.3695	0.40378	0.40415	0.26965	5	0.0195123	12	0	5.1006	0.000108979
2	1	0	1	0	0	95.7195	0.407281	0.407607	0.271537	5	0.0196074	12	0	5.4506	0.00011068
2	1	0	1	0	0	96.0695	0.410781	0.411139	0.27181	5	0.019702	12	0	5.8006	0.000111752
2	1	0	1	0	0	96.4197	0.414281	0.414738	0.272109	5	0.0197963	12	0	6.1508	0.000112854
2	1	0	1	0	0	96.7697	0.417782	0.418046	0.269121	5	0.0198899	12	0	6.5008	0.000112505
2	1	0	1	0	0	97.1197	0.421282	0.421533	0.267192	5	0.0199833	12	0	6.8508	0.00011263
2	1	0	1	0	0	97.4697	0.424783	0.425036	0.262822	5	0.0200762	12	0	7.2008	0.000111709
2	1	0	1	0	0	97.8199	0.428283	0.428582	0.261876	5	0.020169	12	0	7.551	0.000112235
2	1	0	1	0	0	98.1699	0.431784	0.432051	0.261	5	0.0202616	12	0	7.901	0.000112765
2	1	0	1	0	0	98.5199	0.435284	0.435595	0.264177	5	0.0203543	12	0	8.251	0.000115074
2	1	0	1	0	0	98.8699	0.438785	0.439118	0.266354	5	0.0204471	12	0	8.601	0.000116961
2	1	0	1	0	0	99.22	0.442285	0.442549	0.270058	5	0.0205404	12	0	8.9511	0.000119514
2	1	0	1	0	0	99.5701	0.445785	0.446096	0.271388	5	0.020634	12	0	9.3012	0.000121065
2	1	0	1	0	0	99.9201	0.449286	0.449533	0.272821	5	0.0207282	12	0	9.6512	0.000122642
2	1	0	1	0	0	100.171	0.448186	0.448487	0.04625	5	0.0207721	12	0	9.9026	2.07425e-05
2	0	0	1	0	0	100.521	0.444685	0.445004	-0.108386	5	0.0207539	12	0	0.25	-4.82323e-05
2	0	0	1	0	0	100.872	0.441185	0.441493	-0.15414	5	0.0207055	12	0	0.6002	-6.80518e-05
2	0	0	1	0	0	101.222	0.437684	0.437967	-0.174144	5	0.0206474	12	0	0.9502	-7.62693e-05
2	0	0	1	0	0	101.572	0.434184	0.434488	-0.186949	5	0.0205845	12	0	1.3002	-8.12271e-05
2	0	0	1	0	0	101.922	0.430684	0.430936	-0.195443	5	0.0205186	12	0	1.6502	-8.42234e-05
2	0	0	1	0	0	102.272	0.427183	0.427503	-0.201422	5	0.0204503	12	0	2.0002	-8.61086e-05
2	0	0	1	0	0	102.622	0.423683	0.423909	-0.204936	5	0.0203799	12	0	2.3504	-8.68742e-05
2	0	0	1	0	0	102.972	0.420182	0.420397	-0.207331	5	0.0203077	12	0	2.7004	-8.71611e-05
2	0	0	1	0	0	103.322	0.416682	0.417011	-0.210351	5	0.0202339	12	0	3.0504	-8.77185e-05
2	0	0	1	0	0	103.672	0.413181	0.413476	-0.214127	5	0.0201584	12	0	3.4004	-8.85363e-05
2	0	0	1	0	0	104.022	0.409681	0.410006	-0.220118	5	0.0200814	12	0	3.7506	-9.02498e-05
2	0	0	1	0	0	104.372	0.40618	0.406488	-0.226548	5	0.0200028	12	0	4.1006	-9.20888e-05
2	0	0	1	0	0	104.722	0.40268	0.40303	-0.233465	5	0.0199228	12	0	4.4506	-9.40935e-05
2	0	0	1	0	0	105.072	0.39918	0.399498	-0.238126	5	0.0198412	12	0	4.8006	-9.51311e-05
2	0	0	1	0	0	105.422	0.395679	0.395982	-0.241654	5	0.0197582	12	0	5.1508	-9.56905e-05
2	0	0	1	0	0	105.772	0.392179	0.392514	-0.243013	5	0.0196739	12	0	5.5008	-9.53862e-05
2	0	0	1	0	0	106.122	0.388678	0.389	-0.245491	5	0.0195881	12	0	5.8508	-9.5496e-05
2	0	0	1	0	0	106.472	0.385178	0.38546	-0.247145	5	0.019501	12	0	6.2008	-9.52646e-05
2	0	0	1	0	0	106.822	0.381677	0.381916	-0.252599	5	0.0194124	12	0	6.5508	-9.64716e-05
2	0	0	1	0	0	107.172	0.378177	0.378444	-0.25778	5	0.0193222	12	0	6.901	-9.75553e-05
2	0	0	1	0	0	107.522	0.374676	0.374947	-0.265505	5	0.0192305	12	0	7.251	-9.95501e-05
2	0	0	1	0	0	107.872	0.371176	0.371315	-0.271214	5	0.0191373	12	0	7.601	-0.000100706
2	0	0	1	0	0	108.222	0.367675	0.368023	-0.277041	5	0.0190424	12	0	7.951	-0.000101958
2	0	0	1	0	0	108.573	0.364175	0.364433	-0.27971	5	0.018946	12	0	8.3012	-0.000101935
2	0	0	1	0	0	108.923	0.360675	0.360882	-0.283534	5	0.0188479	12	0	8.6512	-0.000102323
2	0	0	1	0	0	109.273	0.357174	0.357395	-0.284919	5	0.0187482	12	0	9.0012	-0.000101829
2	0	0	1	0	0	109.623	0.353674	0.353855	-0.28953	5	0.0186469	12	0	9.3512	-0.000102452
2	0	0	1	0	0	109.968	0.350223	0.350532	-0.293149	5	0.0185453	12	0	9.6962	-0.000102758
2	0	0	1	0	1	110.265	0.352774	0.353025	0.0367008	6	0.0185102	12	0	0.000000000000000E+000	1.29563e-05
2	1	0	1	0	1	110.615	0.356274	0.356603	0.197669	6	0.018556	12	0	0.35	7.04894e-05
2	1	0	1	0	1	110.965	0.359774	0.360105	0.251909	6	0.0186367	12	0	0.7	9.07135e-05
2	1	0	1	0	1	111.315	0.363275	0.363592	0.271632	6	0.0187299	12	0	1.05	9.87634e-05
2	1	0	1	0	1	111.666	0.366775	0.367102	0.278484	6	0.0188276	12	0	1.4002	0.000102232
2	1	0	1	0	1	112.016	0.370276	0.370449	0.282197	6	0.0189268	12	0	1.7502	0.00010454
2	1	0	1	0	1	112.366	0.373776	0.374009	0.28412	6	0.0190262	12	0	2.1002	0.000106264
2	1	0	1	0	1	112.716	0.377277	0.377476	0.285277	6	0.0191254	12	0	2.4502	0.000107685
2	1	0	1	0	1	113.066	0.380777	0.381186	0.284242	6	0.0192241	12	0	2.8003	0.000108349
2	1	0	1	0	1	113.416	0.384278	0.384521	0.281803	6	0.0193222	12	0	3.1504	0.000108359
2	1	0	1	0	1	113.766	0.387778	0.388098	0.278048	6	0.0194195	12	0	3.5004	0.00010791
2	1	0	1	0	1	114.116	0.391278	0.391574	0.273908	6	0.0195162	12	0	3.8504	0.000107255
2	1	0	1	0	1	114.466	0.394779	0.395078	0.269898	6	0.019612	12	0	4.2004	0.000106631
2	1	0	1	0	1	114.816	0.398279	0.398661	0.267074	6	0.0197071	12	0	4.5506	0.000106472
2	1	0	1	0	1	115.166	0.40178	0.402075	0.267139	6	0.0198015	12	0	4.9006	0.00010741
2	1	0	1	0	1	115.516	0.40528	0.405673	0.26714	6	0.0198953	12	0	5.2506	0.000108371
2	1	0	1	0	1	115.866	0.408781	0.40916	0.268576	6	0.0199885	12	0	5.6006	0.00010989
2	1	0	1	0	1	116.216	0.412281	0.41259	0.267321	6	0.0200813	12	0	5.9508	0.000110294
2	1	0	1	0	1	116.566	0.415782	0.416164	0.266472	6	0.0201735	12	0	6.3008	0.000110896
2	1	0	1	0	1	116.916	0.419282	0.419606	0.262601	6	0.0202653	12	0	6.6508	0.000110189
2	1	0	1	0	1	117.266	0.422783	0.423059	0.260194	6	0.0203567	12	0	7.0008	0.000110077
2	1	0	1	0	1	117.616	0.426283	0.426534	0.256087	6	0.0204477	12	0	7.3508	0.00010923
2	1	0	1	0	1	117.966	0.429783	0.430147	0.256268	6	0.0205386	12	0	7.701	0.000110233
2	1	0	1	0	1	118.316	0.433284	0.433611	0.256209	6	0.0206293	12	0	8.051	0.000111095
2	1	0	1	0	1	118.666	0.436784	0.437008	0.259417	6	0.0207201	12	0	8.401	0.000113367
2	1	0	1	0	1	119.016	0.440285	0.440639	0.261022	6	0.020811	12	0	8.751	0.000115016
2	1	0	1	0	1	119.367	0.443785	0.444112	0.264561	6	0.0209022	12	0	9.1012	0.000117495
2	1	0	1	0	1	119.717	0.447286	0.447641	0.265038	6	0.0209937	12	0	9.4512	0.000118642
2	1	0	1	0	1	119.991	0.449961	0.450445	0.244892	6	0.0210655	12	0	9.7251	0.000110311
2	0	0	1	0	1	120.318	0.446686	0.446961	-0.0521998	6	0.0210861	12	0	0.05	-2.33312e-05
2	0	0	1	0	1	120.668	0.443185	0.443507	-0.138106	6	0.0210484	12	0	0.4	-6.1251e-05
2	0	0	1	0	1	121.018	0.439685	0.440034	-0.167519	6	0.0209932	12	0	0.7502	-7.37139e-05
2	0	0	1	0	1	121.368	0.436184	0.436301	-0.1821	6	0.0209316	12	0	1.1002	-7.94504e-05
2	0	0	1	0	1	121.718	0.432684	0.432987	-0.193019	6	0.0208663	12	0	1.4502	-8.35747e-05
2	0	0	1	0	1	122.068	0.429183	0.429497	-0.200553	6	0.0207984	12	0	1.8002	-8.61369e-05
2	0	0	1	0	1	122.418	0.425683	0.425937	-0.205434	6	0.0207285	12	0	2.1504	-8.7502e-05
2	0	0	1	0	1	122.768	0.422182	0.422571	-0.208909	6	0.0206566	12	0	2.5004	-8.82788e-05
2	0	0	1	0	1	123.118	0.418682	0.418947	-0.21047	6	0.0205832	12	0	2.8504	-8.81756e-05
2	0	0	1	0	1	123.468	0.415182	0.415502	-0.213825	6	0.0205082	12	0	3.2004	-8.88447e-05
2	0	0	1	0	1	123.818	0.411681	0.411987	-0.216427	6	0.0204317	12	0	3.5504	-8.9165e-05
2	0	0	1	0	1	124.169	0.408181	0.408467	-0.222939	6	0.0203537	12	0	3.9006	-9.10634e-05
2	0	0	1	0	1	124.519	0.40468	0.40499	-0.228229	6	0.0202742	12	0	4.2506	-9.24304e-05
2	0	0	1	0	1	124.869	0.40118	0.40148	-0.23548	6	0.0201934	12	0	4.6006	-9.45406e-05
2	0	0	1	0	1	125.219	0.397679	0.397901	-0.239926	6	0.0201112	12	0	4.9506	-9.54668e-05
2	0	0	1	0	1	125.569	0.394179	0.394516	-0.244569	6	0.0200275	12	0	5.3008	-9.64864e-05
2	0	0	1	0	1	125.919	0.390678	0.390922	-0.245851	6	0.0199426	12	0	5.6508	-9.61086e-05
2	0	0	1	0	1	126.269	0.387178	0.387505	-0.248646	6	0.0198562	12	0	6.0008	-9.63516e-05
2	0	0	1	0	1	126.619	0.383678	0.384007	-0.249176	6	0.0197685	12	0	6.3508	-9.56853e-05
2	0	0	1	0	1	126.969	0.380177	0.380512	-0.253525	6	0.0196792	12	0	6.701	-9.64692e-05
2	0	0	1	0	1	127.319	0.376677	0.376936	-0.257666	6	0.0195886	12	0	7.051	-9.71237e-05
2	0	0	1	0	1	127.669	0.373176	0.373508	-0.264827	6	0.0194965	12	0	7.401	-9.89148e-05
2	0	0	1	0	1	128.019	0.369676	0.369964	-0.270809	6	0.0194028	12	0	7.751	-0.00010019
2	0	0	1	0	1	128.369	0.366175	0.366464	-0.278096	6	0.0193075	12	0	8.101	-0.000101912
2	0	0	1	0	1	128.719	0.362675	0.362856	-0.282408	6	0.0192106	12	0	8.4512	-0.000102474
2	0	0	1	0	1	129.069	0.359174	0.35938	-0.28658	6	0.0191121	12	0	8.8012	-0.000102991
2	0	0	1	0	1	129.419	0.355674	0.355927	-0.288788	6	0.019012	12	0	9.1512	-0.000102787
2	0	0	1	0	1	129.769	0.352173	0.352444	-0.291695	6	0.0189101	12	0	9.5012	-0.000102806
2	0	0	1	0	0	130.062	0.350773	0.351034	-0.171683	7	0.0188292	12	0	9.794	-6.02665e-05
2	1	0	1	0	0	130.412	0.354274	0.354534	0.12921	7	0.0188307	12	0	0.15	4.58093e-05
2	1	0	1	0	0	130.762	0.357774	0.358079	0.229572	7	0.0188956	12	0	0.5	8.22051e-05
2	1	0	1	0	0	131.112	0.361275	0.361672	0.265531	7	0.0189828	12	0	0.85	9.6035e-05
2	1	0	1	0	0	131.462	0.364775	0.364963	0.274859	7	0.0190778	12	0	1.2	0.000100313
2	1	0	1	0	0	131.812	0.368276	0.368638	0.278348	7	0.0191756	12	0	1.5502	0.00010261
2	1	0	1	0	0	132.162	0.371776	0.372043	0.27709	7	0.0192741	12	0	1.9002	0.00010309
2	1	0	1	0	0	132.512	0.375276	0.375482	0.278453	7	0.0193723	12	0	2.2502	0.000104554
2	1	0	1	0	0	132.862	0.378777	0.37897	0.278184	7	0.0194702	12	0	2.6002	0.000105423
2	1	0	1	0	0	133.212	0.382277	0.382562	0.279067	7	0.0195676	12	0	2.9504	0.00010676
2	1	0	1	0	0	133.562	0.385778	0.386077	0.277898	7	0.0196642	12	0	3.3004	0.00010729
2	1	0	1	0	0	133.912	0.389278	0.389551	0.276453	7	0.0197601	12	0	3.6504	0.000107693
2	1	0	1	0	0	134.262	0.392779	0.393013	0.272518	7	0.0198552	12	0	4.0004	0.000107103
2	1	0	1	0	0	134.613	0.396279	0.396592	0.268772	7	0.0199496	12	0	4.3505	0.000106593
2	1	0	1	0	0	134.963	0.39978	0.400034	0.264341	7	0.0200432	12	0	4.7006	0.000105745
2	1	0	1	0	0	135.313	0.40328	0.403522	0.260665	7	0.0201361	12	0	5.0506	0.000105184
2	1	0	1	0	0	135.663	0.406781	0.40716	0.259527	7	0.0202282	12	0	5.4006	0.000105669
2	1	0	1	0	0	136.013	0.410281	0.410563	0.25934	7	0.0203199	12	0	5.7506	0.000106475
2	1	0	1	0	0	136.363	0.413781	0.414047	0.260256	7	0.0204111	12	0	6.1008	0.000107758
2	1	0	1	0	0	136.713	0.417282	0.417629	0.260315	7	0.0205017	12	0	6.4508	0.000108715
2	1	0	1	0	0	137.063	0.420782	0.421101	0.260915	7	0.0205919	12	0	6.8008	0.000109871
2	1	0	1	0	0	137.413	0.424283	0.424624	0.259268	7	0.0206817	12	0	7.1508	0.000110092
2	1	0	1	0	0	137.763	0.427783	0.428096	0.25758	7	0.0207713	12	0	7.501	0.000110269
2	1	0	1	0	0	138.113	0.431284	0.43164	0.253675	7	0.0208606	12	0	7.851	0.000109496
2	1	0	1	0	0	138.463	0.434784	0.43509	0.252591	7	0.0209497	12	0	8.201	0.0001099
2	1	0	1	0	0	138.813	0.438285	0.438615	0.25039	7	0.0210388	12	0	8.551	0.000109825
2	1	0	1	0	0	139.163	0.441785	0.442103	0.252369	7	0.021128	12	0	8.901	0.000111573
2	1	0	1	0	0	139.513	0.445286	0.445621	0.254124	7	0.0212174	12	0	9.2512	0.000113243
2	1	0	1	0	0	139.863	0.448786	0.449029	0.258829	7	0.0213072	12	0	9.6012	0.000116222
2	1	0	1	0	0	140.115	0.448686	0.448976	0.0742815	7	0.0213585	12	0	9.8526	3.33506e-05
2	0	0	1	0	0	140.465	0.445185	0.445529	-0.110436	7	0.0213451	12	0	0.2	-4.92025e-05
2	0	0	1	0	0	140.815	0.441685	0.441941	-0.1592	7	0.0212962	12	0	0.5502	-7.03572e-05
2	0	0	1	0	0	141.165	0.438185	0.438523	-0.175062	7	0.0212368	12	0	0.9002	-7.67688e-05
2	0	0	1	0	0	141.515	0.434684	0.434976	-0.184475	7	0.0211726	12	0	1.2502	-8.02422e-05
2	0	0	1	0	0	141.865	0.431184	0.431463	-0.191876	7	0.0211056	12	0	1.6002	-8.27875e-05
2	0	0	1	0	0	142.215	0.427683	0.427986	-0.199678	7	0.0210364	12	0	1.9502	-8.54592e-05
2	0	0	1	0	0	142.565	0.424183	0.424505	-0.206857	7	0.0209652	12	0	2.3004	-8.7812e-05
2	0	0	1	0	0	142.915	0.420682	0.420846	-0.213415	7	0.0208923	12	0	2.6504	-8.98147e-05
2	0	0	1	0	0	143.265	0.417182	0.417512	-0.218596	7	0.0208179	12	0	3.0004	-9.12664e-05
2	0	0	1	0	0	143.615	0.413681	0.414016	-0.221878	7	0.0207419	12	0	3.3504	-9.18609e-05
2	0	0	1	0	0	143.965	0.410181	0.410486	-0.224335	7	0.0206645	12	0	3.7006	-9.20866e-05
2	0	0	1	0	0	144.315	0.40668	0.407053	-0.225526	7	0.0205856	12	0	4.0506	-9.1801e-05
2	0	0	1	0	0	144.665	0.40318	0.403539	-0.227972	7	0.0205055	12	0	4.4006	-9.19958e-05
2	0	0	1	0	0	145.015	0.39968	0.400078	-0.230501	7	0.0204241	12	0	4.7506	-9.22185e-05
2	0	0	1	0	0	145.365	0.396179	0.396463	-0.235907	7	0.0203413	12	0	5.1007	-9.35285e-05
2	0	0	1	0	0	145.715	0.392679	0.392984	-0.241223	7	0.0202572	12	0	5.4508	-9.47967e-05
2	0	0	1	0	0	146.065	0.389178	0.389497	-0.248334	7	0.0201717	12	0	5.8008	-9.67254e-05
2	0	0	1	0	0	146.415	0.385678	0.38594	-0.25317	7	0.0200847	12	0	6.1508	-9.77086e-05
2	0	0	1	0	0	146.765	0.382177	0.382466	-0.258189	7	0.0199963	12	0	6.5008	-9.87488e-05
2	0	0	1	0	0	147.116	0.378677	0.379024	-0.260205	7	0.0199065	12	0	6.851	-9.8624e-05
2	0	0	1	0	0	147.466	0.375176	0.375471	-0.26334	7	0.0198153	12	0	7.201	-9.88765e-05
2	0	0	1	0	0	147.816	0.371676	0.371841	-0.264648	7	0.0197227	12	0	7.551	-9.84069e-05
2	0	0	1	0	0	148.166	0.368176	0.368415	-0.268429	7	0.0196285	12	0	7.901	-9.88932e-05
2	0	0	1	0	0	148.516	0.364675	0.36492	-0.271786	7	0.0195328	12	0	8.2512	-9.91801e-05
2	0	0	1	0	0	148.866	0.361175	0.361455	-0.279012	7	0.0194355	12	0	8.6012	-0.00010085
2	0	0	1	0	0	149.216	0.357674	0.357957	-0.28505	7	0.0193365	12	0	8.9512	-0.000102036
2	0	0	1	0	0	149.566	0.354174	0.354481	-0.292909	7	0.0192359	12	0	9.3012	-0.000103831
2	0	0	1	0	0	149.916	0.350673	0.350926	-0.297984	7	0.0191335	12	0	9.6512	-0.00010457
2	0	0	1	0	1	150.209	0.352273	0.352544	-0.00906148	8	0.0190846	12	0	9.944	-3.19457e-06
2	1	0	1	0	1	150.559	0.355774	0.356032	0.179533	8	0.0191215	12	0	0.3	6.39195e-05
2	1	0	1	0	1	150.909	0.359274	0.359569	0.245491	8	0.0191983	12	0	0.65	8.82711e-05
2	1	0	1	0	1	151.259	0.362775	0.363051	0.271645	8	0.0192893	12	0	1	9.8621e-05
2	1	0	1	0	1	151.609	0.366275	0.366555	0.279995	8	0.0193852	12	0	1.3502	0.000102633
2	1	0	1	0	1	151.959	0.369776	0.369955	0.282578	8	0.0194827	12	0	1.7002	0.000104541
2	1	0	1	0	1	152.309	0.373276	0.373511	0.28068	8	0.0195804	12	0	2.0502	0.000104837
2	1	0	1	0	1	152.659	0.376777	0.377087	0.277521	8	0.0196778	12	0	2.4002	0.00010465
2	1	0	1	0	1	153.009	0.380277	0.380525	0.273182	8	0.0197746	12	0	2.7502	0.000103953
2	1	0	1	0	1	153.359	0.383778	0.384104	0.270027	8	0.0198708	12	0	3.1004	0.000103718
2	1	0	1	0	1	153.709	0.387278	0.387657	0.267936	8	0.0199661	12	0	3.4504	0.000103867
2	1	0	1	0	1	154.059	0.390778	0.39108	0.26775	8	0.0200607	12	0	3.8004	0.000104712
2	1	0	1	0	1	154.409	0.394279	0.394504	0.267522	8	0.0201545	12	0	4.1504	0.000105539
2	1	0	1	0	1	154.759	0.397779	0.397987	0.267356	8	0.0202477	12	0	4.5006	0.000106404
2	1	0	1	0	1	155.109	0.40128	0.40158	0.266277	8	0.0203401	12	0	4.8506	0.000106931
2	1	0	1	0	1	155.459	0.40478	0.405053	0.263898	8	0.0204318	12	0	5.2006	0.000106893
2	1	0	1	0	1	155.809	0.408281	0.408598	0.261	8	0.0205229	12	0	5.5506	0.000106644
2	1	0	1	0	1	156.159	0.411781	0.411974	0.256876	8	0.0206136	12	0	5.9008	0.000105826
2	1	0	1	0	1	156.509	0.415282	0.415546	0.253575	8	0.0207035	12	0	6.2508	0.000105372
2	1	0	1	0	1	156.859	0.418782	0.419044	0.251038	8	0.0207929	12	0	6.6008	0.000105196
2	1	0	1	0	1	157.209	0.422282	0.422585	0.250532	8	0.0208818	12	0	6.9508	0.000105871
2	1	0	1	0	1	157.559	0.425783	0.426099	0.251203	8	0.0209703	12	0	7.3008	0.000107038
2	1	0	1	0	1	157.91	0.429283	0.429639	0.252985	8	0.0210586	12	0	7.651	0.000108692
2	1	0	1	0	1	158.26	0.432784	0.433039	0.254018	8	0.0211466	12	0	8.001	0.000109999
2	1	0	1	0	1	158.61	0.436284	0.436545	0.255136	8	0.0212346	12	0	8.351	0.000111378
2	1	0	1	0	1	158.96	0.439785	0.440156	0.253833	8	0.0213226	12	0	8.701	0.000111726
2	1	0	1	0	1	159.31	0.443285	0.443571	0.252861	8	0.0214107	12	0	9.0512	0.000112162
2	1	0	1	0	1	159.66	0.446786	0.447144	0.251182	8	0.021499	12	0	9.4012	0.000112315
2	1	0	1	0	1	159.979	0.450011	0.450159	0.261883	8	0.0215798	12	0	9.7201	0.000117889
2	0	0	1	0	1	160.261	0.447186	0.44746	-0.0377886	8	0.0216013	12	0	0.000000000000000E+000	-1.69089e-05
2	0	0	1	0	1	160.611	0.443685	0.443999	-0.141173	8	0.0215658	12	0	0.35	-6.26809e-05
2	0	0	1	0	1	160.961	0.440185	0.440467	-0.174324	8	0.0215102	12	0	0.7002	-7.6784e-05
2	0	0	1	0	1	161.311	0.436684	0.436991	-0.187651	8	0.0214477	12	0	1.0502	-8.20018e-05
2	0	0	1	0	1	161.661	0.433184	0.433478	-0.195789	8	0.0213816	12	0	1.4002	-8.48702e-05
2	0	0	1	0	1	162.011	0.429683	0.430035	-0.19946	8	0.0213131	12	0	1.7502	-8.5775e-05
2	0	0	1	0	1	162.362	0.426183	0.426523	-0.203328	8	0.0212426	12	0	2.1004	-8.67243e-05
2	0	0	1	0	1	162.712	0.422683	0.423042	-0.205296	8	0.0211704	12	0	2.4504	-8.6849e-05
2	0	0	1	0	1	163.062	0.419182	0.419506	-0.2098	8	0.0210967	12	0	2.8004	-8.80126e-05
2	0	0	1	0	1	163.412	0.415682	0.415969	-0.213575	8	0.0210216	12	0	3.1504	-8.88405e-05
2	0	0	1	0	1	163.762	0.412181	0.412502	-0.220445	8	0.0209449	12	0	3.5004	-9.09342e-05
2	0	0	1	0	1	164.112	0.408681	0.408993	-0.225426	8	0.0208669	12	0	3.8506	-9.21978e-05
2	0	0	1	0	1	164.462	0.40518	0.405395	-0.232295	8	0.0207874	12	0	4.2006	-9.41714e-05
2	0	0	1	0	1	164.812	0.40168	0.401995	-0.235789	8	0.0207067	12	0	4.5506	-9.47861e-05
2	0	0	1	0	1	165.162	0.398179	0.398645	-0.239629	8	0.0206246	12	0	4.9006	-9.55271e-05
2	0	0	1	0	1	165.512	0.394679	0.395096	-0.240199	8	0.0205412	12	0	5.2508	-9.49016e-05
2	0	0	1	0	1	165.862	0.391178	0.391485	-0.243127	8	0.0204566	12	0	5.6008	-9.51808e-05
2	0	0	1	0	1	166.212	0.387678	0.388022	-0.243965	8	0.0203707	12	0	5.9508	-9.46636e-05
2	0	0	1	0	1	166.562	0.384178	0.384499	-0.248437	8	0.0202834	12	0	6.3008	-9.55237e-05
2	0	0	1	0	1	166.912	0.380677	0.381025	-0.25228	8	0.0201947	12	0	6.6509	-9.61251e-05
2	0	0	1	0	1	167.262	0.377177	0.377466	-0.259314	8	0.0201046	12	0	7.001	-9.78823e-05
2	0	0	1	0	1	167.612	0.373676	0.37405	-0.264821	8	0.0200131	12	0	7.351	-9.90565e-05
2	0	0	1	0	1	167.962	0.370176	0.370396	-0.271984	8	0.01992	12	0	7.701	-0.000100742
2	0	0	1	0	1	168.312	0.366675	0.367001	-0.275445	8	0.0198254	12	0	8.051	-0.000101089
2	0	0	1	0	1	168.662	0.363175	0.363513	-0.280158	8	0.0197291	12	0	8.4012	-0.000101841
2	0	0	1	0	1	169.012	0.359674	0.359979	-0.281554	8	0.0196315	12	0	8.7512	-0.000101354
2	0	0	1	0	1	169.362	0.356174	0.356449	-0.285088	8	0.0195321	12	0	9.1012	-0.000101619
2	0	0	1	0	1	169.712	0.352673	0.353106	-0.287425	8	0.0194313	12	0	9.4512	-0.000101492
2	0	0	1	0	0	170.005	0.350273	0.3505	-0.246044	9	0.0193466	12	0	9.744	-8.62384e-05
2	1	0	1	0	0	170.355	0.353774	0.354003	0.103691	9	0.0193324	12	0	0.1	3.67071e-05
2	1	0	1	0	0	170.705	0.357274	0.357575	0.218437	9	0.0193917	12	0	0.45	7.81077e-05
2	1	0	1	0	0	171.055	0.360775	0.361068	0.257946	9	0.0194761	12	0	0.8	9.31361e-05
2	1	0	1	0	0	171.405	0.364275	0.364552	0.269686	9	0.0195693	12	0	1.15	9.83146e-05
2	1	0	1	0	0	171.755	0.367775	0.36817	0.273468	9	0.0196656	12	0	1.5002	0.000100683
2	1	0	1	0	0	172.105	0.371276	0.371521	0.273489	9	0.0197625	12	0	1.8502	0.000101607
2	1	0	1	0	0	172.455	0.374776	0.375084	0.274745	9	0.0198594	12	0	2.2002	0.000103053
2	1	0	1	0	0	172.805	0.378277	0.378628	0.274519	9	0.0199558	12	0	2.5502	0.000103941
2	1	0	1	0	0	173.156	0.381777	0.382112	0.274997	9	0.0200516	12	0	2.9004	0.00010508
2	1	0	1	0	0	173.506	0.385278	0.385649	0.273697	9	0.0201467	12	0	3.2504	0.000105551
2	1	0	1	0	0	173.856	0.388778	0.389077	0.272095	9	0.0202411	12	0	3.6004	0.000105866
2	1	0	1	0	0	174.206	0.392279	0.392562	0.268104	9	0.0203347	12	0	3.9504	0.000105248
2	1	0	1	0	0	174.556	0.39578	0.396069	0.264278	9	0.0204275	12	0	4.3005	0.000104672
2	1	0	1	0	0	174.906	0.39928	0.399584	0.259459	9	0.0205195	12	0	4.6506	0.000103676
2	1	0	1	0	0	175.256	0.40278	0.403041	0.256737	9	0.0206108	12	0	5.0006	0.000103476
2	1	0	1	0	0	175.606	0.40628	0.406549	0.253814	9	0.0207012	12	0	5.3506	0.000103188
2	1	0	1	0	0	175.956	0.409781	0.410212	0.253651	9	0.0207911	12	0	5.7006	0.000104051
2	1	0	1	0	0	176.306	0.413281	0.413601	0.253169	9	0.0208805	12	0	6.0508	0.000104711
2	1	0	1	0	0	176.656	0.416782	0.417004	0.254023	9	0.0209693	12	0	6.4008	0.000105929
2	1	0	1	0	0	177.006	0.420282	0.420494	0.254185	9	0.0210576	12	0	6.7508	0.000106883
2	1	0	1	0	0	177.356	0.423783	0.424051	0.254234	9	0.0211455	12	0	7.1008	0.000107808
2	1	0	1	0	0	177.706	0.427283	0.427574	0.252176	9	0.021233	12	0	7.451	0.000107824
2	1	0	1	0	0	178.056	0.430784	0.431124	0.250509	9	0.0213203	12	0	7.801	0.000108
2	1	0	1	0	0	178.406	0.434284	0.434622	0.247504	9	0.0214073	12	0	8.151	0.000107571
2	1	0	1	0	0	178.756	0.437785	0.438089	0.245779	9	0.0214943	12	0	8.501	0.000107673
2	1	0	1	0	0	179.106	0.441285	0.441575	0.244678	9	0.0215811	12	0	8.851	0.000108044
2	1	0	1	0	0	179.456	0.444785	0.445058	0.245537	9	0.0216682	12	0	9.2012	0.000109278
2	1	0	1	0	0	179.806	0.448286	0.448529	0.247766	9	0.0217554	12	0	9.5512	0.00011113
2	1	0	1	0	0	180.058	0.449186	0.449533	0.124016	9	0.0218125	12	0	9.8026	5.57494e-05
2	0	0	1	0	0	180.408	0.445686	0.446071	-0.105571	9	0.021807	12	0	0.15	-4.70924e-05
2	0	0	1	0	0	180.758	0.442185	0.442499	-0.162481	9	0.021759	12	0	0.5001	-7.18978e-05
2	0	0	1	0	0	181.108	0.438685	0.438896	-0.180266	9	0.0216991	12	0	0.8502	-7.91182e-05
2	0	0	1	0	0	181.458	0.435184	0.435509	-0.188383	9	0.0216345	12	0	1.2002	-8.20424e-05
2	0	0	1	0	0	181.808	0.431684	0.431959	-0.193175	9	0.021567	12	0	1.5502	-8.34436e-05
2	0	0	1	0	0	182.158	0.428183	0.428534	-0.198085	9	0.0214975	12	0	1.9002	-8.48863e-05
2	0	0	1	0	0	182.508	0.424683	0.424823	-0.203185	9	0.0214261	12	0	2.2504	-8.63176e-05
2	0	0	1	0	0	182.858	0.421182	0.421481	-0.209274	9	0.0213532	12	0	2.6004	-8.8205e-05
2	0	0	1	0	0	183.208	0.417682	0.417999	-0.21559	9	0.0212787	12	0	2.9504	-9.01167e-05
2	0	0	1	0	0	183.558	0.414181	0.414489	-0.221659	9	0.0212028	12	0	3.3004	-9.18754e-05
2	0	0	1	0	0	183.908	0.410681	0.410877	-0.226034	9	0.0211254	12	0	3.6506	-9.28724e-05
2	0	0	1	0	0	184.258	0.407181	0.407469	-0.230492	9	0.0210467	12	0	4.0006	-9.39184e-05
2	0	0	1	0	0	184.608	0.40368	0.404008	-0.231952	9	0.0209667	12	0	4.3506	-9.37106e-05
2	0	0	1	0	0	184.958	0.40018	0.400384	-0.233962	9	0.0208855	12	0	4.7006	-9.36748e-05
2	0	0	1	0	0	185.308	0.396679	0.396953	-0.23529	9	0.020803	12	0	5.0506	-9.33988e-05
2	0	0	1	0	0	185.659	0.393179	0.393367	-0.237727	9	0.0207193	12	0	5.4008	-9.35141e-05
2	0	0	1	0	0	186.009	0.389678	0.390038	-0.241407	9	0.0206342	12	0	5.7508	-9.41578e-05
2	0	0	1	0	0	186.359	0.386178	0.386371	-0.24641	9	0.0205479	12	0	6.1008	-9.52056e-05
2	0	0	1	0	0	186.709	0.382677	0.382956	-0.251987	9	0.0204601	12	0	6.4508	-9.65e-05
2	0	0	1	0	0	187.059	0.379177	0.379522	-0.258498	9	0.020371	12	0	6.801	-9.81059e-05
2	0	0	1	0	0	187.409	0.375676	0.375959	-0.263781	9	0.0202803	12	0	7.151	-9.91708e-05
2	0	0	1	0	0	187.759	0.372176	0.37251	-0.26902	9	0.0201883	12	0	7.501	-0.000100212
2	0	0	1	0	0	188.109	0.368676	0.368977	-0.27212	9	0.0200947	12	0	7.851	-0.000100406
2	0	0	1	0	0	188.459	0.365176	0.365484	-0.275128	9	0.0199996	12	0	8.2011	-0.000100555
2	0	0	1	0	0	188.809	0.361675	0.362013	-0.277406	9	0.019903	12	0	8.5512	-0.000100425
2	0	0	1	0	0	189.159	0.358174	0.358523	-0.280426	9	0.0198049	12	0	8.9012	-0.000100539
2	0	0	1	0	0	189.509	0.354674	0.355	-0.283588	9	0.0197051	12	0	9.2512	-0.000100674
2	0	0	1	0	0	189.859	0.351173	0.351424	-0.289387	9	0.0196037	12	0	9.6012	-0.000101697
2	0	0	1	0	1	190.152	0.351773	0.35206	-0.0480855	10	0.019542	12	0	9.894	-1.6929e-05
2	1	0	1	0	1	190.502	0.355274	0.355568	0.165274	10	0.0195692	12	0	0.25	5.87662e-05
2	1	0	1	0	1	190.852	0.358774	0.359079	0.237869	10	0.0196422	12	0	0.6	8.54138e-05
2	1	0	1	0	1	191.202	0.362275	0.36255	0.261027	10	0.0197311	12	0	0.95	9.46354e-05
2	1	0	1	0	1	191.552	0.365775	0.366065	0.269892	10	0.0198256	12	0	1.3002	9.8798e-05
2	1	0	1	0	1	191.902	0.369276	0.369547	0.271981	10	0.0199217	12	0	1.6502	0.00010051
2	1	0	1	0	1	192.252	0.372776	0.37314	0.274135	10	0.0200181	12	0	2.0002	0.000102291
2	1	0	1	0	1	192.602	0.376277	0.376591	0.273961	10	0.0201143	12	0	2.3502	0.000103171
2	1	0	1	0	1	192.952	0.379777	0.380019	0.275038	10	0.0202099	12	0	2.7002	0.00010452
2	1	0	1	0	1	193.302	0.383277	0.383474	0.272985	10	0.0203048	12	0	3.0504	0.000104683
2	1	0	1	0	1	193.652	0.386778	0.387118	0.271966	10	0.020399	12	0	3.4004	0.000105283
2	1	0	1	0	1	194.002	0.390278	0.390645	0.267395	10	0.0204924	12	0	3.7504	0.000104456
2	1	0	1	0	1	194.352	0.393779	0.39411	0.264111	10	0.020585	12	0	4.1004	0.000104089
2	1	0	1	0	1	194.702	0.397279	0.39759	0.25875	10	0.0206768	12	0	4.4506	0.000102876
2	1	0	1	0	1	195.052	0.40078	0.401177	0.255983	10	0.0207678	12	0	4.8006	0.000102694
2	1	0	1	0	1	195.402	0.40428	0.404518	0.252816	10	0.020858	12	0	5.1506	0.000102268
2	1	0	1	0	1	195.752	0.407781	0.408075	0.252665	10	0.0209475	12	0	5.5006	0.000103107
2	1	0	1	0	1	196.103	0.411281	0.41157	0.251572	10	0.0210366	12	0	5.8507	0.00010354
2	1	0	1	0	1	196.453	0.414781	0.415157	0.25293	10	0.021125	12	0	6.2008	0.000105006
2	1	0	1	0	1	196.803	0.418282	0.418635	0.252043	10	0.0212128	12	0	6.5508	0.000105514
2	1	0	1	0	1	197.153	0.421782	0.422171	0.252732	10	0.0213002	12	0	6.9008	0.000106696
2	1	0	1	0	1	197.503	0.425283	0.425544	0.250848	10	0.0213871	12	0	7.2508	0.000106747
2	1	0	1	0	1	197.853	0.428783	0.428971	0.249593	10	0.0214737	12	0	7.601	0.000107068
2	1	0	1	0	1	198.203	0.432284	0.432523	0.246389	10	0.02156	12	0	7.951	0.000106569
2	1	0	1	0	1	198.553	0.435784	0.436075	0.245007	10	0.0216461	12	0	8.301	0.000106841
2	1	0	1	0	1	198.903	0.439285	0.439558	0.242418	10	0.0217322	12	0	8.651	0.000106557
2	1	0	1	0	1	199.253	0.442785	0.443012	0.24277	10	0.0218183	12	0	9.0012	0.00010755
2	1	0	1	0	1	199.603	0.446286	0.446681	0.242573	10	0.0219044	12	0	9.3512	0.000108353
2	1	0	1	0	1	199.951	0.449761	0.450099	0.245972	10	0.0219902	12	0	9.6987	0.000110712
2	0	0	1	0	1	200.204	0.447686	0.447935	-0.0184024	10	0.0220171	12	0	9.9526	-8.24308e-06
2	0	0	1	0	1	200.554	0.444185	0.444535	-0.14022	10	0.0219855	12	0	0.3	-6.23326e-05
2	0	0	1	0	1	200.905	0.440685	0.440908	-0.174945	10	0.0219303	12	0	0.6502	-7.71344e-05
2	0	0	1	0	1	201.255	0.437184	0.437375	-0.185818	10	0.0218676	12	0	1.0002	-8.12719e-05
2	0	0	1	0	1	201.605	0.433684	0.433932	-0.19328	10	0.0218013	12	0	1.3502	-8.38704e-05
2	0	0	1	0	1	201.955	0.430184	0.430505	-0.196281	10	0.0217326	12	0	1.7002	-8.45e-05
2	0	0	1	0	1	202.305	0.426684	0.427006	-0.201133	10	0.0216621	12	0	2.0503	-8.58851e-05
2	0	0	1	0	1	202.655	0.423183	0.423417	-0.204703	10	0.0215899	12	0	2.4004	-8.66749e-05
2	0	0	1	0	1	203.005	0.419682	0.41987	-0.210683	10	0.0215163	12	0	2.7504	-8.84594e-05
2	0	0	1	0	1	203.355	0.416182	0.416418	-0.215332	10	0.0214412	12	0	3.1004	-8.96683e-05
2	0	0	1	0	1	203.705	0.412681	0.412945	-0.222389	10	0.0213647	12	0	3.4504	-9.18345e-05
2	0	0	1	0	1	204.055	0.409181	0.40935	-0.226358	10	0.0212868	12	0	3.8006	-9.26596e-05
2	0	0	1	0	1	204.405	0.40568	0.406039	-0.232324	10	0.0212076	12	0	4.1506	-9.43329e-05
2	0	0	1	0	1	204.755	0.40218	0.402499	-0.234354	10	0.0211271	12	0	4.5006	-9.43271e-05
2	0	0	1	0	1	205.105	0.398679	0.398922	-0.237587	10	0.0210454	12	0	4.8506	-9.47788e-05
2	0	0	1	0	1	205.455	0.395179	0.395501	-0.238312	10	0.0209625	12	0	5.2008	-9.42526e-05
2	0	0	1	0	1	205.805	0.391679	0.392044	-0.24141	10	0.0208783	12	0	5.5508	-9.46433e-05
2	0	0	1	0	1	206.155	0.388178	0.388427	-0.242764	10	0.0207928	12	0	5.9008	-9.4296e-05
2	0	0	1	0	1	206.505	0.384678	0.384957	-0.247413	10	0.0207059	12	0	6.2508	-9.52433e-05
2	0	0	1	0	1	206.855	0.381177	0.381468	-0.250771	10	0.0206177	12	0	6.6008	-9.56612e-05
2	0	0	1	0	1	207.205	0.377677	0.378026	-0.257567	10	0.020528	12	0	6.951	-9.73668e-05
2	0	0	1	0	1	207.555	0.374176	0.374453	-0.262501	10	0.020437	12	0	7.301	-9.82944e-05
2	0	0	1	0	1	207.905	0.370676	0.371103	-0.269562	10	0.0203444	12	0	7.651	-0.000100035
2	0	0	1	0	1	208.255	0.367175	0.367446	-0.273819	10	0.0202504	12	0	8.001	-0.000100614
2	0	0	1	0	1	208.606	0.363675	0.364	-0.278835	10	0.0201548	12	0	8.3512	-0.000101496
2	0	0	1	0	1	208.956	0.360174	0.36049	-0.281076	10	0.0200577	12	0	8.7012	-0.000101325
2	0	0	1	0	1	209.306	0.356674	0.356964	-0.284817	10	0.0199588	12	0	9.0512	-0.00010167
2	0	0	1	0	1	209.656	0.353174	0.353561	-0.286514	10	0.0198585	12	0	9.4012	-0.0001013
2	0	0	0	0	1	209.971	0.349998	0.35018	-0.301433	10	0.0197668	12	0	9.7163	-0.000105556