File: ACS_Catal_2026/Figures_Na_K/main_figures/data/EC/20240126_2-102_Add_Na/20240201_2-102_014_preconditioning_elctrode6_02_PEIS_C02.mpt
EC-Lab ASCII FILE
Nb header lines : 63

Potentio Electrochemical Impedance Spectroscopy

Run on channel : 2 (SN 66414)
User :
CE vs. WE compliance from -10 V to 10 V
Electrode connection : standard
Potential control : Ewe
Ewe ctrl range : min = -1.00 V, max = 1.00 V
Safety Limits :
	Do not start on E overload
Acquisition started on : 02/01/2024 14:41:57.621
Loaded Setting File :  C:\Users\NakamuraT\Documents\EC-Lab\Data\Yatsuzuka\20240126_2-102_Add_Na\20240125_2-102_001_preconditioning_elctrode1.mps
Saved on :
	File : 20240201_2-102_014_preconditioning_elctrode6_02_PEIS_C02.mpr
	Directory : C:\Users\NakamuraT\Documents\EC-Lab\Data\Yatsuzuka\20240126_2-102_Add_Na\
	Host : 192.109.209.100
Device : SP-150e (SN .003411)
Address : 192.109.209.236
EC-Lab for windows v11.50 (software)
Internet server v11.50 (firmware)
Command interpretor v11.50 (firmware)
Electrode material :
Initial state :
Electrolyte :
Comments :
Electrode surface area : 0.001 cm2
Characteristic mass : 0.001 g
Equivalent Weight : 0.000 g/eq.
Density : 0.000 g/cm3
Volume (V) : 0.001 cm3
Cycle Definition : Charge/Discharge alternance
Mode                Single sine
E (V)               0.4000
vs.                 Eoc
tE (h:m:s)          0:00:0.0000
record              0
dI                  0.000
unit dI             mA
dt (s)              0.000
fi                  500.000
unit fi             kHz
ff                  1.000
unit ff             Hz
Nd                  6
Points              per decade
spacing             Logarithmic
Va (mV)             10.0
pw                  0.10
Na                  2
corr                0
E range min (V)     -1.000
E range max (V)     1.000
I Range             Auto
Bandwidth           5
nc cycles           0
goto Ns'            0
nr cycles           0
inc. cycle          0

freq/Hz	Re(Z)/Ohm	-Im(Z)/Ohm	|Z|/Ohm	Phase(Z)/deg	time/s	<Ewe>/V	<I>/mA	Cs/uF	Cp/uF	cycle number	I Range	|Ewe|/V	|I|/A	Ns	(Q-Qo)/mA.h	Re(Y)/Ohm-1	Im(Y)/Ohm-1	|Y|/Ohm-1	Phase(Y)/deg	Re(C)/nF	Im(C)/nF	|C|/nF	Phase(C)/deg	Re(M)	Im(M)	|M|	Phase(M)/deg	Re(Permittivity)	Im(Permittivity)	|Permittivity|	Phase(Permittivity)/deg	Re(Resistivity)/Ohm.cm	Im(Resistivity)/Ohm.cm	|Resistivity|/Ohm.cm	Phase(Resistivity)/deg	Re(Conductivity)/mS/cm	Im(Conductivity)/mS/cm	|Conductivity|/mS/cm	Phase(Conductivity)/deg	Tan(Delta)	Loss Angle(Delta)/deg	dq/mA.h
500019	23.3438	-4.91079	23.8548	11.88	211.053	0.379407	0.168857	-0.064816	-0.00274685	1	10	0.0095722	0.00040127	0	0.000101105	0.0410225	-0.00862982	0.0419204	-11.88	-2.74685	13.0574	13.3432	-101.88	0.0000000E+000	0.0000000E+000	0.0000000E+000	101.88	0.0000000E+000	0.0000000E+000	0.0000000E+000	-101.88	0.0000000E+000	0.0000000E+000	0.0000000E+000	11.88	0.0000000E+000	0.0000000E+000	0.0000000E+000	-11.88	4.75357	78.12	0.000101105
339899	16.4693	-3.51569	16.8404	12.05	211.475	0.379292	0.0534282	-0.133186	-0.00580466	1	10	0.0104524	0.000620676	0	0.000110024	0.0580726	-0.0123967	0.0593811	-12.05	-5.80466	27.192	27.8047	-102.05	0.0000000E+000	0.0000000E+000	0.0000000E+000	102.05	0.0000000E+000	0.0000000E+000	0.0000000E+000	-102.05	0.0000000E+000	0.0000000E+000	0.0000000E+000	12.05	0.0000000E+000	0.0000000E+000	0.0000000E+000	-12.05	4.68451	77.95	8.91922e-06
231063	14.1734	-2.02446	14.3173	8.12885	211.897	0.379257	0.0216159	-0.340238	-0.00680267	1	10	0.0109525	0.000764986	0	0.000113768	0.069144	-0.00987618	0.0698458	-8.12885	-6.80267	47.6261	48.1095	-98.1289	0.0000000E+000	0.0000000E+000	0.0000000E+000	98.1289	0.0000000E+000	0.0000000E+000	0.0000000E+000	-98.1289	0.0000000E+000	0.0000000E+000	0.0000000E+000	8.12885	0.0000000E+000	0.0000000E+000	0.0000000E+000	-8.12885	7.00109	81.8711	3.74358e-06
157076	13.4022	-1.11651	13.4487	4.76217	212.455	0.379268	0.0070351	-0.907507	-0.0062548	1	10	0.010098	0.000750853	0	0.000117222	0.0741001	-0.00617309	0.0743568	-4.76217	-6.2548	75.081	75.341	-94.7622	0.0000000E+000	0.0000000E+000	0.0000000E+000	94.7622	0.0000000E+000	0.0000000E+000	0.0000000E+000	-94.7622	0.0000000E+000	0.0000000E+000	0.0000000E+000	4.76217	0.0000000E+000	0.0000000E+000	0.0000000E+000	-4.76217	12.0037	85.2378	3.4538e-06
106786	13.1901	-0.641923	13.2057	2.78622	212.877	0.379282	0.0027305	-2.32179	-0.00548613	1	10	0.0106907	0.00080955	0	0.000117543	0.0756355	-0.00368096	0.075725	-2.78622	-5.48613	112.728	112.861	-92.7862	0.0000000E+000	0.0000000E+000	0.0000000E+000	92.7862	0.0000000E+000	0.0000000E+000	0.0000000E+000	-92.7862	0.0000000E+000	0.0000000E+000	0.0000000E+000	2.78622	0.0000000E+000	0.0000000E+000	0.0000000E+000	-2.78622	20.5478	87.2138	3.21308e-07
72595	13.1017	-0.396241	13.1077	1.7323	213.299	0.379288	0.00317478	-5.53291	-0.00505616	1	10	0.0106082	0.000809309	0	0.000117136	0.0762563	-0.00230626	0.0762911	-1.7323	-5.05617	167.182	167.258	-91.7323	0.0000000E+000	0.0000000E+000	0.0000000E+000	91.7323	0.0000000E+000	0.0000000E+000	0.0000000E+000	-91.7323	0.0000000E+000	0.0000000E+000	0.0000000E+000	1.7323	0.0000000E+000	0.0000000E+000	0.0000000E+000	-1.7323	33.0649	88.2677	-4.06897e-07
49352.4	13.0489	-0.249343	13.0513	1.09469	213.721	0.379295	0.000654736	-12.9335	-0.00472063	1	10	0.0104676	0.000802033	0	0.000117336	0.0766066	-0.00146382	0.0766205	-1.09469	-4.72062	247.046	247.091	-91.0947	0.0000000E+000	0.0000000E+000	0.0000000E+000	91.0947	0.0000000E+000	0.0000000E+000	0.0000000E+000	-91.0947	0.0000000E+000	0.0000000E+000	0.0000000E+000	1.09469	0.0000000E+000	0.0000000E+000	0.0000000E+000	-1.09469	52.3333	88.9053	1.99512e-07
33551.1	13.0281	-0.160884	13.0291	0.70751	214.143	0.379286	0.000615534	-29.485	-0.00449571	1	10	0.0103927	0.000797655	0	0.000116666	0.0767455	-0.00094773	0.0767513	-0.70751	-4.49572	364.055	364.082	-90.7075	0.0000000E+000	0.0000000E+000	0.0000000E+000	90.7075	0.0000000E+000	0.0000000E+000	0.0000000E+000	-90.7075	0.0000000E+000	0.0000000E+000	0.0000000E+000	0.70751	0.0000000E+000	0.0000000E+000	0.0000000E+000	-0.70751	80.9782	89.2925	-6.69373e-07
22806.6	13.013	-0.109686	13.0135	0.482932	214.565	0.37929	0.000721937	-63.6222	-0.00451986	1	10	0.0103865	0.000798135	0	0.000116068	0.0768406	-0.000647686	0.0768433	-0.482932	-4.51987	536.23	536.249	-90.4829	0.0000000E+000	0.0000000E+000	0.0000000E+000	90.4829	0.0000000E+000	0.0000000E+000	0.0000000E+000	-90.4829	0.0000000E+000	0.0000000E+000	0.0000000E+000	0.482932	0.0000000E+000	0.0000000E+000	0.0000000E+000	-0.482932	118.639	89.5171	-5.98661e-07
15504.4	12.9913	-0.0844292	12.9916	0.372355	214.988	0.379297	-0.00139303	-121.583	-0.00513494	1	10	0.0102407	0.00078826	0	0.000117246	0.0769714	-0.00050023	0.076973	-0.372355	-5.13491	790.124	790.14	-90.3724	0.0000000E+000	0.0000000E+000	0.0000000E+000	90.3724	0.0000000E+000	0.0000000E+000	0.0000000E+000	-90.3724	0.0000000E+000	0.0000000E+000	0.0000000E+000	0.372355	0.0000000E+000	0.0000000E+000	0.0000000E+000	-0.372355	153.872	89.6276	1.17834e-06
10540.4	12.9637	0.0152155	12.9637	-0.0672483	215.41	0.379287	0.00022726	992.376	0.00136708	1	10	0.0101501	0.000782961	0	0.000116729	0.0771385	9.05378e-05	0.0771385	0.0672483	1.36702	1164.76	1164.76	-89.9328	0.0000000E+000	0.0000000E+000	0.0000000E+000	89.9328	0.0000000E+000	0.0000000E+000	0.0000000E+000	-89.9328	0.0000000E+000	0.0000000E+000	0.0000000E+000	-0.0672483	0.0000000E+000	0.0000000E+000	0.0000000E+000	0.0672483	852.003	89.9328	-5.16613e-07
7163.78	12.9469	-0.0419691	12.9469	0.185732	215.767	0.37929	-0.000605285	-529.357	-0.00556254	1	10	0.010748	0.000830156	0	0.000117029	0.077238	-0.000250378	0.0772384	-0.185732	-5.56249	1715.97	1715.97	-90.1857	0.0000000E+000	0.0000000E+000	0.0000000E+000	90.1857	0.0000000E+000	0.0000000E+000	0.0000000E+000	-90.1857	0.0000000E+000	0.0000000E+000	0.0000000E+000	0.185732	0.0000000E+000	0.0000000E+000	0.0000000E+000	-0.185732	308.486	89.8143	3.0009e-07
4871.56	12.9596	-0.0232974	12.9596	0.103	216.457	0.379313	-8.82123e-05	-1402.31	-0.00453183	1	10	0.010121	0.000780959	0	0.000116221	0.0771625	-0.000138714	0.0771626	-0.103	-4.53169	2520.91	2520.92	-90.103	0.0000000E+000	0.0000000E+000	0.0000000E+000	90.103	0.0000000E+000	0.0000000E+000	0.0000000E+000	-90.103	0.0000000E+000	0.0000000E+000	0.0000000E+000	0.103	0.0000000E+000	0.0000000E+000	0.0000000E+000	-0.103	556.268	89.897	-8.08727e-07
3311.06	12.9586	-0.00845149	12.9586	0.037368	216.921	0.37931	0.000214194	-5687.48	-0.00241921	1	10	0.010266	0.00079222	0	0.000116335	0.0771691	-5.03292e-05	0.0771691	-0.037368	-2.41926	3709.34	3709.34	-90.0374	0.0000000E+000	0.0000000E+000	0.0000000E+000	90.0374	0.0000000E+000	0.0000000E+000	0.0000000E+000	-90.0374	0.0000000E+000	0.0000000E+000	0.0000000E+000	0.037368	0.0000000E+000	0.0000000E+000	0.0000000E+000	-0.037368	1533.29	89.9626	1.14136e-07
2250.72	12.9413	-0.0103513	12.9413	0.0458286	217.386	0.37931	-0.00027488	-6831.33	-0.00437053	1	10	0.010332	0.000798371	0	0.000116414	0.0772718	-6.18067e-05	0.0772718	-0.0458286	-4.37064	5464.11	5464.11	-90.0458	0.0000000E+000	0.0000000E+000	0.0000000E+000	90.0458	0.0000000E+000	0.0000000E+000	0.0000000E+000	-90.0458	0.0000000E+000	0.0000000E+000	0.0000000E+000	0.0458286	0.0000000E+000	0.0000000E+000	0.0000000E+000	-0.0458286	1250.22	89.9542	7.88643e-08
1530.49	12.9318	-0.00678801	12.9318	0.030075	217.851	0.379314	-0.000595953	-15319.6	-0.00422099	1	10	0.0103697	0.000801877	0	0.000116134	0.0773288	-4.05905e-05	0.0773288	-0.030075	-4.221	8041.38	8041.38	-90.0301	0.0000000E+000	0.0000000E+000	0.0000000E+000	90.0301	0.0000000E+000	0.0000000E+000	0.0000000E+000	-90.0301	0.0000000E+000	0.0000000E+000	0.0000000E+000	0.030075	0.0000000E+000	0.0000000E+000	0.0000000E+000	-0.030075	1905.09	89.9699	-2.79888e-07
1040.33	12.9236	0.000395167	12.9236	-0.00175194	218.316	0.379312	-0.00070982	387139	0.000361961	1	10	0.0103844	0.00080352	0	0.000115924	0.0773779	2.366e-06	0.0773779	0.00175194	0.362543	11837.6	11837.6	-89.9982	0.0000000E+000	0.0000000E+000	0.0000000E+000	89.9982	0.0000000E+000	0.0000000E+000	0.0000000E+000	-89.9982	0.0000000E+000	0.0000000E+000	0.0000000E+000	-0.00175194	0.0000000E+000	0.0000000E+000	0.0000000E+000	0.00175194	32704.1	89.9982	-2.09355e-07
707.036	12.9218	0.00780908	12.9218	-0.0346256	218.781	0.379306	-9.00774e-05	28825.6	0.0105276	1	10	0.0103995	0.000804801	0	0.000115574	0.0773883	4.67682e-05	0.0773883	0.0346256	10.5265	17420.2	17420.2	-89.9654	0.0000000E+000	0.0000000E+000	0.0000000E+000	89.9654	0.0000000E+000	0.0000000E+000	0.0000000E+000	-89.9654	0.0000000E+000	0.0000000E+000	0.0000000E+000	-0.0346256	0.0000000E+000	0.0000000E+000	0.0000000E+000	0.0346256	1654.72	89.9654	-3.5001e-07
480.769	12.9097	0.00770401	12.9097	-0.0341919	219.246	0.379309	-0.00133516	42970.1	0.0153027	1	10	0.0103969	0.000805357	0	0.000115404	0.0774612	4.62259e-05	0.0774612	0.0341919	15.3041	25642.9	25642.9	-89.9658	0.0000000E+000	0.0000000E+000	0.0000000E+000	89.9658	0.0000000E+000	0.0000000E+000	0.0000000E+000	-89.9658	0.0000000E+000	0.0000000E+000	0.0000000E+000	-0.0341919	0.0000000E+000	0.0000000E+000	0.0000000E+000	0.0341919	1675.71	89.9658	-1.70914e-07
326.778	12.9013	0.0177892	12.9013	-0.0790031	219.709	0.379306	-0.0016637	27378.6	0.052054	1	10	0.0104015	0.000806236	0	0.000114803	0.0775112	0.000106877	0.0775113	0.0790031	52.0535	37751.3	37751.4	-89.921	0.0000000E+000	0.0000000E+000	0.0000000E+000	89.921	0.0000000E+000	0.0000000E+000	0.0000000E+000	-89.921	0.0000000E+000	0.0000000E+000	0.0000000E+000	-0.0790031	0.0000000E+000	0.0000000E+000	0.0000000E+000	0.0790031	725.234	89.921	-6.0072e-07
222.061	12.9058	0.0276272	12.9059	-0.122651	220.17	0.379298	-0.000741555	25942.5	0.118881	1	10	0.0104072	0.000806397	0	0.000115479	0.077484	0.000165868	0.0774842	0.122651	118.879	55534.2	55534.3	-89.8774	0.0000000E+000	0.0000000E+000	0.0000000E+000	89.8774	0.0000000E+000	0.0000000E+000	0.0000000E+000	-89.8774	0.0000000E+000	0.0000000E+000	0.0000000E+000	-0.122651	0.0000000E+000	0.0000000E+000	0.0000000E+000	0.122651	467.143	89.8774	6.76003e-07
151.015	12.8969	0.0487131	12.897	-0.216412	220.632	0.379304	-0.000803155	21634.9	0.308651	1	10	0.0104056	0.000806826	0	0.000114903	0.0775368	0.000292865	0.0775373	0.216412	308.646	81716.2	81716.8	-89.7836	0.0000000E+000	0.0000000E+000	0.0000000E+000	89.7836	0.0000000E+000	0.0000000E+000	0.0000000E+000	-89.7836	0.0000000E+000	0.0000000E+000	0.0000000E+000	-0.216412	0.0000000E+000	0.0000000E+000	0.0000000E+000	0.216412	264.753	89.7836	-5.76293e-07
102.667	12.9017	0.0659077	12.9018	-0.292691	221.107	0.379312	-0.000903957	23520.8	0.61379	1	10	0.0104069	0.000806621	0	0.000114387	0.0775073	0.000395943	0.0775083	0.292691	613.798	120152	120153	-89.7073	0.0000000E+000	0.0000000E+000	0.0000000E+000	89.7073	0.0000000E+000	0.0000000E+000	0.0000000E+000	-89.7073	0.0000000E+000	0.0000000E+000	0.0000000E+000	-0.292691	0.0000000E+000	0.0000000E+000	0.0000000E+000	0.292691	195.754	89.7073	-5.15626e-07
69.7545	12.8955	0.0936205	12.8959	-0.415956	221.575	0.379305	0.000206729	24371.2	1.28445	1	10	0.0104072	0.000807017	0	0.000114332	0.0775422	0.00056295	0.0775442	0.415956	1284.45	176924	176928	-89.584	0.0000000E+000	0.0000000E+000	0.0000000E+000	89.584	0.0000000E+000	0.0000000E+000	0.0000000E+000	-89.584	0.0000000E+000	0.0000000E+000	0.0000000E+000	-0.415956	0.0000000E+000	0.0000000E+000	0.0000000E+000	0.415956	137.743	89.584	-5.46758e-08
47.4443	12.9042	0.121999	12.9047	-0.541673	222.019	0.379297	-0.00269412	27496.6	2.45751	1	10	0.0104104	0.000806709	0	0.00011375	0.0774874	0.000732586	0.0774909	0.541673	2457.5	259936	259948	-89.4583	0.0000000E+000	0.0000000E+000	0.0000000E+000	89.4583	0.0000000E+000	0.0000000E+000	0.0000000E+000	-89.4583	0.0000000E+000	0.0000000E+000	0.0000000E+000	-0.541673	0.0000000E+000	0.0000000E+000	0.0000000E+000	0.541673	105.772	89.4583	-5.82565e-07
32.2387	12.9096	0.183276	12.9109	-0.813363	222.456	0.379288	-0.00212478	26936.3	5.42791	1	10	0.0104146	0.00080665	0	0.00011292	0.077446	0.00109949	0.0774538	0.813363	5427.91	382333	382372	-89.1866	0.0000000E+000	0.0000000E+000	0.0000000E+000	89.1866	0.0000000E+000	0.0000000E+000	0.0000000E+000	-89.1866	0.0000000E+000	0.0000000E+000	0.0000000E+000	-0.813363	0.0000000E+000	0.0000000E+000	0.0000000E+000	0.813363	70.4383	89.1866	-8.30031e-07
21.9144	12.9244	0.256777	12.9269	-1.13818	222.887	0.379288	0.000652869	28283.6	11.1597	1	10	0.0104125	0.000805487	0	0.000111727	0.0773425	0.00153661	0.0773578	1.13818	11159.7	561705	561816	-88.8618	0.0000000E+000	0.0000000E+000	0.0000000E+000	88.8618	0.0000000E+000	0.0000000E+000	0.0000000E+000	-88.8618	0.0000000E+000	0.0000000E+000	0.0000000E+000	-1.13818	0.0000000E+000	0.0000000E+000	0.0000000E+000	1.13818	50.3332	88.8618	-1.19247e-06
14.9093	13.0021	0.462236	13.0103	-2.03605	223.354	0.379308	-0.00287706	23093.9	29.1506	1	10	0.0104087	0.000800035	0	0.000112715	0.0768134	0.00273078	0.076862	2.03605	29150.7	819971	820489	-87.9639	0.0000000E+000	0.0000000E+000	0.0000000E+000	87.9639	0.0000000E+000	0.0000000E+000	0.0000000E+000	-87.9639	0.0000000E+000	0.0000000E+000	0.0000000E+000	-2.03605	0.0000000E+000	0.0000000E+000	0.0000000E+000	2.03605	28.1287	87.9639	9.87616e-07
10.1329	12.9477	0.584303	12.9609	-2.58388	224.064	0.3793	8.07323e-05	26881.1	54.6324	1	11	0.0104213	0.000804056	0	0.000109762	0.0770766	0.00347829	0.077155	2.58388	54632.4	1.21062e+06	1.21185e+06	-87.4161	0.0000000E+000	0.0000000E+000	0.0000000E+000	87.4161	0.0000000E+000	0.0000000E+000	0.0000000E+000	-87.4161	0.0000000E+000	0.0000000E+000	0.0000000E+000	-2.58388	0.0000000E+000	0.0000000E+000	0.0000000E+000	2.58388	22.1593	87.4161	-2.95301e-06
6.88933	12.9441	0.865936	12.973	-3.82729	224.417	0.379298	-0.00681405	26678.2	118.863	1	11	0.0104158	0.000802882	0	0.000118135	0.0769113	0.00514524	0.0770832	3.82729	118863	1.77678e+06	1.78075e+06	-86.1727	0.0000000E+000	0.0000000E+000	0.0000000E+000	86.1727	0.0000000E+000	0.0000000E+000	0.0000000E+000	-86.1727	0.0000000E+000	0.0000000E+000	0.0000000E+000	-3.82729	0.0000000E+000	0.0000000E+000	0.0000000E+000	3.82729	14.9481	86.1727	8.37335e-06
4.68375	12.95	1.26918	13.0121	-5.59748	224.914	0.379308	0.00796366	26773.3	254.718	1	11	0.0104196	0.000800768	0	0.000108715	0.0764853	0.00749606	0.0768518	5.59748	254718	2.59899e+06	2.61144e+06	-84.4025	0.0000000E+000	0.0000000E+000	0.0000000E+000	84.4025	0.0000000E+000	0.0000000E+000	0.0000000E+000	-84.4025	0.0000000E+000	0.0000000E+000	0.0000000E+000	-5.59748	0.0000000E+000	0.0000000E+000	0.0000000E+000	5.59748	10.2034	84.4025	-9.42013e-06
3.18099	12.9949	1.8386	13.1243	-8.05315	225.616	0.379312	-0.00415337	27212.6	534.065	1	11	0.0104185	0.00079383	0	0.000106374	0.0754431	0.0106742	0.0761945	8.05315	534065	3.77466e+06	3.81226e+06	-81.9469	0.0000000E+000	0.0000000E+000	0.0000000E+000	81.9469	0.0000000E+000	0.0000000E+000	0.0000000E+000	-81.9469	0.0000000E+000	0.0000000E+000	0.0000000E+000	-8.05315	0.0000000E+000	0.0000000E+000	0.0000000E+000	8.05315	7.06779	81.9469	-2.34132e-06
2.16533	12.9527	2.75224	13.2419	-11.996	226.627	0.37932	-0.000928016	26706	1153.68	1	11	0.0104219	0.00078704	0	0.000120668	0.0738688	0.015696	0.075518	11.996	1.15368e+06	5.42947e+06	5.55069e+06	-78.004	0.0000000E+000	0.0000000E+000	0.0000000E+000	78.004	0.0000000E+000	0.0000000E+000	0.0000000E+000	-78.004	0.0000000E+000	0.0000000E+000	0.0000000E+000	-11.996	0.0000000E+000	0.0000000E+000	0.0000000E+000	11.996	4.70623	78.004	1.42948e-05
1.46962	13.0877	3.91653	13.6612	-16.6599	228.097	0.37932	0.00537812	27651.2	2272.68	1	11	0.0104195	0.000762712	0	0.000136652	0.0701274	0.0209857	0.0732001	16.6599	2.27268e+06	7.59456e+06	7.92732e+06	-73.3401	0.0000000E+000	0.0000000E+000	0.0000000E+000	73.3401	0.0000000E+000	0.0000000E+000	0.0000000E+000	-73.3401	0.0000000E+000	0.0000000E+000	0.0000000E+000	-16.6599	0.0000000E+000	0.0000000E+000	0.0000000E+000	16.6599	3.34167	73.3401	1.59835e-05
1.00006	13.1604	5.91378	14.4281	-24.1973	230.237	0.379323	0.00452015	26910.8	4521.06	1	11	0.0104246	0.000722523	0	0.000132666	0.0632197	0.0284084	0.0693093	24.1973	4.52106e+06	1.00611e+07	1.10302e+07	-65.8027	0.0000000E+000	0.0000000E+000	0.0000000E+000	65.8027	0.0000000E+000	0.0000000E+000	0.0000000E+000	-65.8027	0.0000000E+000	0.0000000E+000	0.0000000E+000	-24.1973	0.0000000E+000	0.0000000E+000	0.0000000E+000	24.1973	2.22538	65.8027	-3.98603e-06