File: ACS_Catal_2026/Figures_Na_K/main_figures/data/EC/20240126_2-102_Add_Na/20240125_2-102_005_add_Na_5mL_elctrode1_C01.mpt
EC-Lab ASCII FILE
Nb header lines : 66

Cyclic Voltammetry Advanced

Run on channel : 1 (SN 66412)
User :
CE vs. WE compliance from -10 V to 10 V
Electrode connection : standard
Potential control : Ewe
Ewe ctrl range : min = -1.00 V, max = 1.00 V
Safety Limits :
	Do not start on E overload
Acquisition started on : 01/26/2024 16:16:32.098
Loaded Setting File :  C:\Users\NakamuraT\Documents\EC-Lab\Data\Yatsuzuka\20240125_2-101_K_new_condition\20240125_2-101_004_reused_solution_30min_wait_elctrode1_C01.mpr
Saved on :
	File : 20240125_2-102_003_add_Na_5mL_elctrode1_C01.mpr
	Directory : C:\Users\NakamuraT\Documents\EC-Lab\Data\Yatsuzuka\20240126_2-102_Add_Na\
	Host : 192.109.209.100
Device : SP-150e (SN .003411)
Address : 192.109.209.236
EC-Lab for windows v11.50 (software)
Internet server v11.50 (firmware)
Command interpretor v11.50 (firmware)
Electrode material :
Initial state :
Electrolyte :
Comments :
Electrode surface area : 0.001 cm2
Characteristic mass : 0.001 g
Equivalent Weight : 0.000 g/eq.
Density : 0.000 g/cm3
Volume (V) : 0.001 cm3
Cycle Definition : Charge/Discharge alternance
Ei (V)              0.450
vs.                 Ref
ti (h:m:s)          0:00:10.0000
dti (s)             0.0000
dE/dt               5.000
dE/dt unit          mV/s
E1 (V)              0.700
vs.                 Ref
t1 (h:m:s)          0:00:0.0000
dt1 (s)             0.1000
Step percent        50
N                   10
E range min (V)     -1.000
E range max (V)     1.000
I Range             10 mA
I Range min         Unset
I Range max         Unset
I Range init        Unset
Bandwidth           5
E2 (V)              0.450
vs.                 Ref
t2 (h:m:s)          0:00:0.0000
dt2 (s)             0.1000
nc cycles           14
nr                  1
Reverse Scan        0
Ef (V)              0.000
vs.                 Eoc
tf (h:m:s)          0:00:0.0000
dtf (s)             0.1000

mode	ox/red	error	control changes	Ns changes	counter inc.	time/s	control/V	Ewe/V	<I>/mA	cycle number	(Q-Qo)/C	I Range	Ns	step time/s	P/W
2	1	0	1	0	0	0.000000000000000E+000	0.44994	0.45018	5.52691e-05	1	0.0000000E+000	11	0	0.000000000000000E+000	2.48811e-08
2	1	0	1	0	0	2.4554	0.462217	0.46254	0.098868	1	0.000214092	11	0	2.4004	4.57304e-05
2	1	0	1	0	0	4.9558	0.47472	0.475049	0.0987832	1	0.000458645	11	0	4.9008	4.69268e-05
2	1	0	1	0	0	7.4562	0.487222	0.487533	0.0971013	1	0.00070352	11	0	7.4012	4.73401e-05
2	1	0	1	0	0	9.9566	0.499724	0.499958	0.0987971	1	0.000950284	11	0	9.9016	4.93944e-05
2	1	0	0	0	0	12.4572	0.512226	0.512593	0.1041	1	0.00120343	11	0	12.4022	5.33607e-05
2	1	0	0	0	0	14.9576	0.524729	0.524971	0.111982	1	0.00147058	11	0	14.9026	5.87871e-05
2	1	0	0	0	0	17.458	0.537231	0.537504	0.125599	1	0.00176555	11	0	17.403	6.75101e-05
2	1	0	0	0	0	19.9584	0.549733	0.549983	0.153312	1	0.00211334	11	0	19.9034	8.43192e-05
2	1	0	1	0	0	22.4589	0.562236	0.562611	0.205016	1	0.00255632	11	0	22.4039	0.000115344
2	1	0	1	0	0	24.9594	0.574737	0.575041	0.289967	1	0.00316484	11	0	24.9044	0.000166743
2	1	0	1	0	0	27.4598	0.58724	0.587535	0.425854	1	0.00404801	11	0	27.4048	0.000250204
2	1	0	1	0	0	29.9602	0.599742	0.600043	0.634873	1	0.0053611	11	0	29.9052	0.000380951
2	1	0	1	0	0	32.4606	0.612244	0.612524	0.931844	1	0.00730276	11	0	32.4056	0.000570777
2	1	0	0	0	0	34.9612	0.624746	0.625103	1.32006	1	0.0100999	11	0	34.9062	0.000825172
2	1	0	0	0	0	37.4616	0.637249	0.63749	1.79519	1	0.0139794	11	0	37.4066	0.00114442
2	1	0	0	0	0	39.962	0.649751	0.650042	2.35072	1	0.0191524	11	0	39.907	0.00152807
2	1	0	0	0	0	42.4624	0.662253	0.662519	2.97471	1	0.0258013	11	0	42.4074	0.0019708
2	1	0	1	0	0	44.9629	0.674755	0.675023	3.65178	1	0.0340775	11	0	44.9079	0.00246504
2	1	0	1	0	0	47.4634	0.687257	0.687494	4.37005	1	0.0441018	11	0	47.4084	0.00300439
2	1	0	1	0	0	49.9588	0.699735	0.70005	5.12434	1	0.0559451	11	0	49.9038	0.00358729
2	1	0	1	0	0	52.2722	0.688658	0.688954	4.37279	1	0.0669381	11	0	52.2172	0.00301265
2	1	0	1	0	0	54.7726	0.676155	0.676456	3.59676	1	0.0768836	11	0	54.7176	0.00243305
2	1	0	1	0	0	57.2731	0.663653	0.664004	2.88702	1	0.0849752	11	0	57.2181	0.00191699
2	1	0	0	0	0	59.7736	0.651151	0.651423	2.25245	1	0.091384	11	0	59.7186	0.0014673
2	1	0	0	0	0	62.274	0.638649	0.638909	1.68607	1	0.0962876	11	0	62.219	0.00107725
2	1	0	0	0	0	64.7744	0.626147	0.626486	1.20004	1	0.0998746	11	0	64.7194	0.000751811
2	1	0	0	0	0	67.2748	0.613644	0.613911	0.804706	1	0.102362	11	0	67.2198	0.000494018
2	1	0	1	0	0	69.7754	0.601142	0.601451	0.502303	1	0.103978	11	0	69.7204	0.00030211
2	1	0	1	0	0	72.2758	0.58864	0.588958	0.285892	1	0.104945	11	0	72.2208	0.000168378
2	1	0	1	0	0	74.7762	0.576138	0.576501	0.138369	1	0.10546	11	0	74.7212	7.97698e-05
2	1	0	1	0	0	77.2766	0.563635	0.563933	0.0429386	1	0.105677	11	0	77.2216	2.42145e-05
2	0	0	1	0	0	79.7771	0.551133	0.55146	-0.0145684	1	0.105709	11	0	0.6001	-8.03389e-06
2	0	0	0	0	0	82.2776	0.538631	0.538936	-0.0479839	1	0.105629	11	0	3.1006	-2.58603e-05
2	0	0	0	0	0	84.778	0.526129	0.526401	-0.066928	1	0.105481	11	0	5.601	-3.5231e-05
2	0	0	0	0	0	87.2784	0.513627	0.514	-0.0798133	1	0.105294	11	0	8.1014	-4.1024e-05
2	0	0	0	0	0	89.7788	0.501124	0.501453	-0.0894484	1	0.105081	11	0	10.6018	-4.48542e-05
2	0	0	1	0	0	92.2794	0.488622	0.488972	-0.0961496	1	0.10485	11	0	13.1024	-4.70145e-05
2	0	0	1	0	0	94.7798	0.47612	0.476405	-0.100414	1	0.104605	11	0	15.6028	-4.78376e-05
2	0	0	1	0	0	97.2802	0.463618	0.463891	-0.103282	1	0.10435	11	0	18.1032	-4.79116e-05
2	0	0	1	0	0	99.7806	0.451115	0.451393	-0.107563	1	0.104083	11	0	20.6036	-4.85531e-05
2	1	0	0	0	1	102.154	0.460767	0.461091	0.0897863	2	0.104202	11	0	1.9002	4.13996e-05
2	1	0	1	0	1	104.655	0.473269	0.473568	0.0923377	2	0.104433	11	0	4.4008	4.37282e-05
2	1	0	1	0	1	107.155	0.485772	0.486148	0.0943547	2	0.104669	11	0	6.9012	4.58704e-05
2	1	0	1	0	1	109.656	0.498274	0.498563	0.0969019	2	0.104908	11	0	9.4016	4.83117e-05
2	1	0	1	0	1	112.156	0.510776	0.511078	0.100383	2	0.105152	11	0	11.902	5.13037e-05
2	1	0	1	0	1	114.656	0.523278	0.523571	0.106141	2	0.105408	11	0	14.4025	5.55725e-05
2	1	0	0	0	1	117.157	0.53578	0.536145	0.117769	2	0.105686	11	0	16.903	6.31412e-05
2	1	0	0	0	1	119.657	0.548283	0.548592	0.140637	2	0.106009	11	0	19.4034	7.71525e-05
2	1	0	0	0	1	122.158	0.560785	0.56108	0.183787	2	0.106413	11	0	21.9038	0.000103119
2	1	0	0	0	1	124.658	0.573287	0.573616	0.258963	2	0.10696	11	0	24.4042	0.000148545
2	1	0	1	0	1	127.159	0.585789	0.58607	0.382001	2	0.107748	11	0	26.9048	0.000223879
2	1	0	1	0	1	129.659	0.598292	0.598608	0.570673	2	0.108921	11	0	29.4052	0.00034161
2	1	0	1	0	1	132.16	0.610794	0.611052	0.842627	2	0.110669	11	0	31.9056	0.000514889
2	1	0	1	0	1	134.66	0.623296	0.623533	1.20839	2	0.113218	11	0	34.406	0.000753467
2	1	0	0	0	1	137.161	0.635798	0.636098	1.66724	2	0.116799	11	0	36.9066	0.00106053
2	1	0	0	0	1	139.661	0.648301	0.648651	2.20983	2	0.121633	11	0	39.407	0.00143341
2	1	0	0	0	1	142.161	0.660803	0.661088	2.82242	2	0.127912	11	0	41.9074	0.00186587
2	1	0	0	0	1	144.662	0.673305	0.673646	3.48983	2	0.135794	11	0	44.4078	0.00235091
2	1	0	1	0	1	147.162	0.685808	0.686078	4.20299	2	0.145406	11	0	46.9083	0.00288358
2	1	0	1	0	1	149.663	0.698309	0.698642	4.95489	2	0.156854	11	0	49.4088	0.00346169
2	1	0	1	0	1	151.961	0.690158	0.690457	4.38885	2	0.167784	11	0	51.7072	0.00303031
2	1	0	1	0	1	154.462	0.677656	0.677887	3.61572	2	0.177773	11	0	54.2076	0.00245105
2	1	0	1	0	1	156.962	0.665153	0.665459	2.9081	2	0.185907	11	0	56.708	0.00193522
2	1	0	1	0	1	159.462	0.652651	0.652903	2.26915	2	0.192362	11	0	59.2084	0.00148154
2	1	0	0	0	1	161.963	0.640149	0.640447	1.70037	2	0.197309	11	0	61.709	0.001089
2	1	0	0	0	1	164.463	0.627647	0.627919	1.21241	2	0.200932	11	0	64.2094	0.000761296
2	1	0	0	0	1	166.964	0.615145	0.615436	0.816853	2	0.203448	11	0	66.7098	0.000502721
2	1	0	0	0	1	169.464	0.602642	0.602869	0.513733	2	0.205089	11	0	69.2102	0.000309714
2	1	0	1	0	1	171.965	0.59014	0.590476	0.292534	2	0.206078	11	0	71.7108	0.000172734
2	1	0	1	0	1	174.465	0.577638	0.577918	0.141474	2	0.206606	11	0	74.2112	8.17604e-05
2	1	0	1	0	1	176.966	0.565136	0.565458	0.0461482	2	0.206834	11	0	76.7116	2.60949e-05
2	0	0	1	0	1	179.466	0.552633	0.552964	-0.0108662	2	0.206872	11	0	0.5	-6.0086e-06
2	0	0	1	0	1	181.966	0.540131	0.540466	-0.0447064	2	0.206797	11	0	3.0004	-2.41623e-05
2	0	0	0	0	1	184.467	0.527629	0.527979	-0.0660931	2	0.206653	11	0	5.501	-3.48958e-05
2	0	0	0	0	1	186.967	0.515127	0.515447	-0.0802024	2	0.206469	11	0	8.0014	-4.13401e-05
2	0	0	0	0	1	189.468	0.502625	0.502915	-0.089158	2	0.206258	11	0	10.5018	-4.48389e-05
2	0	0	0	0	1	191.968	0.490122	0.49039	-0.0940948	2	0.20603	11	0	13.0022	-4.61431e-05
2	0	0	1	0	1	194.469	0.47762	0.477886	-0.0978058	2	0.205788	11	0	15.5028	-4.674e-05
2	0	0	1	0	1	196.969	0.465118	0.465494	-0.102948	2	0.205534	11	0	18.0032	-4.79215e-05
2	0	0	1	0	1	199.47	0.452616	0.452865	-0.109076	2	0.205269	11	0	20.5036	-4.93966e-05
2	1	0	0	0	0	201.843	0.459267	0.459536	0.0887299	3	0.205328	11	0	1.6002	4.07746e-05
2	1	0	0	0	0	204.344	0.471769	0.472064	0.0938845	3	0.205557	11	0	4.1006	4.43195e-05
2	1	0	1	0	0	206.844	0.484271	0.484568	0.094968	3	0.205792	11	0	6.6012	4.60185e-05
2	1	0	1	0	0	209.345	0.496774	0.497069	0.0954516	3	0.206028	11	0	9.1016	4.7446e-05
2	1	0	1	0	0	211.845	0.509276	0.509558	0.0975139	3	0.20627	11	0	11.602	4.9689e-05
2	1	0	1	0	0	214.345	0.521778	0.522065	0.102458	3	0.206521	11	0	14.1024	5.34896e-05
2	1	0	1	0	0	216.846	0.53428	0.534567	0.115088	3	0.206793	11	0	16.6029	6.15224e-05
2	1	0	0	0	0	219.346	0.546782	0.547095	0.137484	3	0.207104	11	0	19.1034	7.5217e-05
2	1	0	0	0	0	221.847	0.559285	0.559584	0.175658	3	0.207489	11	0	21.6038	9.82955e-05
2	1	0	0	0	0	224.347	0.571787	0.572127	0.241475	3	0.208004	11	0	24.1042	0.000138154
2	1	0	0	0	0	226.848	0.584289	0.584622	0.353177	3	0.208739	11	0	26.6046	0.000206475
2	1	0	1	0	0	229.348	0.596791	0.597071	0.530521	3	0.209831	11	0	29.1052	0.000316759
2	1	0	1	0	0	231.849	0.609294	0.609573	0.78978	3	0.211462	11	0	31.6056	0.000481428
2	1	0	1	0	0	234.349	0.621796	0.622126	1.14009	3	0.213855	11	0	34.106	0.00070928
2	1	0	1	0	0	236.849	0.634298	0.634585	1.58318	3	0.217242	11	0	36.6064	0.00100467
2	1	0	1	0	0	239.35	0.6468	0.647059	2.11242	3	0.221852	11	0	39.1069	0.00136686
2	1	0	0	0	0	241.85	0.659302	0.659631	2.71661	3	0.227881	11	0	41.6074	0.00179196
2	1	0	0	0	0	244.351	0.671805	0.672095	3.38157	3	0.235496	11	0	44.1078	0.00227273
2	1	0	0	0	0	246.851	0.684307	0.684571	4.09436	3	0.244834	11	0	46.6082	0.00280288
2	1	0	0	0	0	249.352	0.696809	0.69712	4.84371	3	0.256005	11	0	49.1086	0.00337664
2	1	0	1	0	0	251.65	0.691658	0.691929	4.47093	3	0.267038	11	0	51.4071	0.00309356
2	1	0	1	0	0	254.151	0.679156	0.679492	3.68985	3	0.277227	11	0	53.9076	0.00250722
2	1	0	1	0	0	256.651	0.666654	0.666994	2.97256	3	0.285538	11	0	56.408	0.00198268
2	1	0	1	0	0	259.151	0.654152	0.65442	2.3267	3	0.292141	11	0	58.9084	0.00152264
2	1	0	1	0	0	261.652	0.641649	0.641983	1.7514	3	0.297219	11	0	61.4088	0.00112437
2	1	0	0	0	0	264.152	0.629147	0.629456	1.25768	3	0.300964	11	0	63.9094	0.000791654
2	1	0	0	0	0	266.653	0.616645	0.616957	0.851613	3	0.303582	11	0	66.4098	0.000525409
2	1	0	0	0	0	269.153	0.604143	0.604407	0.537459	3	0.305297	11	0	68.9102	0.000324844
2	1	0	0	0	0	271.654	0.59164	0.591913	0.309094	3	0.306335	11	0	71.4106	0.000182957
2	1	0	1	0	0	274.154	0.579138	0.579439	0.152614	3	0.306897	11	0	73.9111	8.84307e-05
2	1	0	1	0	0	276.655	0.566636	0.566948	0.0528082	3	0.307145	11	0	76.4116	2.99395e-05
2	0	0	1	0	0	279.155	0.554134	0.554483	-0.00704884	3	0.307196	11	0	0.2	-3.90846e-06
2	0	0	1	0	0	281.655	0.541632	0.541915	-0.0424225	3	0.307129	11	0	2.7004	-2.29894e-05
2	0	0	1	0	0	284.156	0.529129	0.529451	-0.0646377	3	0.30699	11	0	5.2008	-3.42225e-05
2	0	0	0	0	0	286.656	0.516627	0.516922	-0.0795884	3	0.306809	11	0	7.7014	-4.1141e-05
2	0	0	0	0	0	289.157	0.504125	0.504429	-0.0881371	3	0.306601	11	0	10.2018	-4.4459e-05
2	0	0	0	0	0	291.657	0.491623	0.491967	-0.0929815	3	0.306374	11	0	12.7022	-4.57438e-05
2	0	0	0	0	0	294.158	0.47912	0.479399	-0.0970374	3	0.306135	11	0	15.2026	-4.65196e-05
2	0	0	1	0	0	296.658	0.466618	0.466941	-0.102598	3	0.305883	11	0	17.7031	-4.79071e-05
2	0	0	1	0	0	299.159	0.454116	0.454373	-0.108386	3	0.305621	11	0	20.2036	-4.92478e-05
2	1	0	0	0	1	301.532	0.457767	0.458069	0.0871059	4	0.305621	11	0	1.3002	3.99005e-05
2	1	0	0	0	1	304.033	0.470269	0.470638	0.0934033	4	0.305848	11	0	3.8006	4.39591e-05
2	1	0	0	0	1	306.533	0.482771	0.483105	0.0948598	4	0.306081	11	0	6.301	4.58273e-05
2	1	0	1	0	1	309.034	0.495273	0.495592	0.0951804	4	0.306317	11	0	8.8016	4.71706e-05
2	1	0	1	0	1	311.534	0.507776	0.508077	0.0960831	4	0.306556	11	0	11.302	4.88176e-05
2	1	0	1	0	1	314.034	0.520278	0.520602	0.101122	4	0.306805	11	0	13.8024	5.26444e-05
2	1	0	1	0	1	316.535	0.53278	0.53302	0.112817	4	0.307072	11	0	16.3028	6.01338e-05
2	1	0	1	0	1	319.035	0.545282	0.545582	0.133095	4	0.307374	11	0	18.8033	7.26143e-05
2	1	0	0	0	1	321.536	0.557784	0.558126	0.167223	4	0.307744	11	0	21.3038	9.33312e-05
2	1	0	0	0	1	324.036	0.570287	0.570634	0.227624	4	0.308232	11	0	23.8042	0.00012989
2	1	0	0	0	1	326.537	0.582789	0.583122	0.331551	4	0.308923	11	0	26.3046	0.000193335
2	1	0	0	0	1	329.037	0.595291	0.595596	0.497959	4	0.309946	11	0	28.805	0.000296582
2	1	0	1	0	1	331.538	0.607793	0.608094	0.742123	4	0.311478	11	0	31.3056	0.00045128
2	1	0	1	0	1	334.038	0.620296	0.620602	1.07709	4	0.313734	11	0	33.806	0.000668442
2	1	0	1	0	1	336.538	0.632798	0.633047	1.50704	4	0.31695	11	0	36.3064	0.000954027
2	1	0	1	0	1	339.039	0.6453	0.645617	2.02603	4	0.321354	11	0	38.8068	0.00130804
2	1	0	1	0	1	341.539	0.657802	0.658132	2.62038	4	0.32715	11	0	41.3072	0.00172456
2	1	0	0	0	1	344.04	0.670304	0.670605	3.27447	4	0.334511	11	0	43.8078	0.00219587
2	1	0	0	0	1	346.54	0.682807	0.683127	3.97711	4	0.343574	11	0	46.3082	0.00271687
2	1	0	0	0	1	349.041	0.695309	0.69561	4.71939	4	0.354445	11	0	48.8086	0.00328285
2	1	0	0	0	1	351.339	0.693158	0.69344	4.5372	4	0.365484	11	0	51.107	0.00314628
2	1	0	0	0	1	353.839	0.680656	0.680986	3.75096	4	0.375827	11	0	53.6074	0.00255435
2	1	0	1	0	1	356.34	0.668154	0.668433	3.02867	4	0.384286	11	0	56.108	0.00202446
2	1	0	1	0	1	358.84	0.655652	0.655925	2.37265	4	0.391022	11	0	58.6084	0.00155628
2	1	0	1	0	1	361.341	0.64315	0.643427	1.7935	4	0.396211	11	0	61.1088	0.00115399
2	1	0	0	0	1	363.841	0.630647	0.63095	1.29348	4	0.400048	11	0	63.6092	0.000816123
2	1	0	1	0	1	366.342	0.618145	0.618466	0.880685	4	0.402744	11	0	66.1098	0.000544674
2	1	0	1	0	1	368.842	0.605643	0.605972	0.557542	4	0.404523	11	0	68.6102	0.000337854
2	1	0	1	0	1	371.343	0.593141	0.593423	0.323751	4	0.405609	11	0	71.1106	0.000192121
2	1	0	1	0	1	373.843	0.580638	0.580936	0.165171	4	0.406204	11	0	73.611	9.59537e-05
2	1	0	1	0	1	376.343	0.568136	0.568414	0.0618012	4	0.406475	11	0	76.1115	3.51286e-05
2	1	0	0	0	1	378.844	0.555634	0.555973	-0.0030781	4	0.406541	11	0	0.000000000000000E+000	-1.71134e-06
2	0	0	0	0	1	381.344	0.543132	0.543435	-0.0417531	4	0.406483	11	0	2.5004	-2.26901e-05
2	0	0	0	0	1	383.845	0.53063	0.530927	-0.0634865	4	0.406351	11	0	5.0008	-3.37067e-05
2	0	0	0	0	1	386.345	0.518127	0.518404	-0.0763551	4	0.406174	11	0	7.5012	-3.95828e-05
2	0	0	1	0	1	388.846	0.505625	0.505918	-0.0850607	4	0.405969	11	0	10.0018	-4.30338e-05
2	0	0	1	0	1	391.346	0.493123	0.493446	-0.0925587	4	0.405745	11	0	12.5022	-4.56727e-05
2	0	0	1	0	1	393.847	0.480621	0.480907	-0.0987868	4	0.405507	11	0	15.0026	-4.75073e-05
2	0	0	1	0	1	396.347	0.468119	0.468436	-0.102847	4	0.405258	11	0	17.503	-4.81773e-05
2	0	0	1	0	1	398.847	0.455616	0.455886	-0.106015	4	0.404997	11	0	20.0035	-4.83306e-05
2	1	0	1	0	0	401.221	0.456266	0.45658	0.0863427	5	0.404939	11	0	1.0002	3.94224e-05
2	1	0	1	0	0	403.722	0.468769	0.469072	0.0918759	5	0.405164	11	0	3.5006	4.30964e-05
2	1	0	1	0	0	406.222	0.481271	0.48159	0.0921931	5	0.405396	11	0	6.001	4.43993e-05
2	1	0	1	0	0	408.722	0.493773	0.494061	0.0937453	5	0.40563	11	0	8.5014	4.63159e-05
2	1	0	1	0	0	411.223	0.506275	0.506596	0.097224	5	0.405868	11	0	11.0019	4.92532e-05
2	1	0	0	0	0	413.723	0.518777	0.519104	0.102032	5	0.406114	11	0	13.5024	5.29655e-05
2	1	0	0	0	0	416.224	0.53128	0.531527	0.11019	5	0.406377	11	0	16.0028	5.85689e-05
2	1	0	0	0	0	418.724	0.543782	0.5441	0.126883	5	0.406672	11	0	18.5032	6.9037e-05
2	1	0	0	0	0	421.225	0.556284	0.556593	0.159349	5	0.407029	11	0	21.0036	8.86924e-05
2	1	0	1	0	0	423.725	0.568786	0.569147	0.218033	5	0.407496	11	0	23.5042	0.000124093
2	1	0	1	0	0	426.226	0.581289	0.581627	0.316108	5	0.408153	11	0	26.0046	0.000183857
2	1	0	1	0	0	428.726	0.593791	0.59409	0.470675	5	0.409121	11	0	28.505	0.000279623
2	1	0	1	0	0	431.226	0.606293	0.60667	0.701984	5	0.410571	11	0	31.0054	0.000425872
2	1	0	1	0	0	433.727	0.618795	0.619123	1.02484	5	0.412715	11	0	33.5059	0.000634503
2	1	0	0	0	0	436.227	0.631297	0.631642	1.44354	5	0.415786	11	0	36.0064	0.000911801
2	1	0	0	0	0	438.728	0.6438	0.644052	1.95117	5	0.420016	11	0	38.5068	0.00125665
2	1	0	0	0	0	441.228	0.656302	0.656594	2.5344	5	0.42561	11	0	41.0072	0.00166407
2	1	0	1	0	0	443.729	0.668805	0.669101	3.18005	5	0.432743	11	0	43.5077	0.00212778
2	1	0	1	0	0	446.229	0.681306	0.681589	3.87879	5	0.441561	11	0	46.0082	0.00264374
2	1	0	1	0	0	448.73	0.693809	0.694067	4.61834	5	0.452184	11	0	48.5086	0.00320544
2	1	0	1	0	0	451.028	0.694659	0.694973	4.62729	5	0.463228	11	0	50.807	0.00321584
2	1	0	1	0	0	453.528	0.682157	0.682478	3.84515	5	0.473804	11	0	53.3074	0.00262423
2	1	0	1	0	0	456.029	0.669654	0.669934	3.11497	5	0.482488	11	0	55.8078	0.00208682
2	1	0	0	0	0	458.529	0.657152	0.657443	2.44544	5	0.489421	11	0	58.3084	0.00160774
2	1	0	0	0	0	461.03	0.64465	0.644965	1.8532	5	0.494775	11	0	60.8088	0.00119525
2	1	0	0	0	0	463.53	0.632148	0.632444	1.34271	5	0.498754	11	0	63.3092	0.000849188
2	1	0	0	0	0	466.031	0.619645	0.619971	0.919783	5	0.501562	11	0	65.8096	0.000570238
2	1	0	1	0	0	468.531	0.607143	0.607423	0.590095	5	0.503429	11	0	68.3102	0.000358437
2	1	0	1	0	0	471.032	0.594641	0.594941	0.346384	5	0.504578	11	0	70.8106	0.000206078
2	1	0	1	0	0	473.532	0.582139	0.582435	0.177913	5	0.505218	11	0	73.311	0.000103623
2	1	0	1	0	0	476.032	0.569637	0.569912	0.0685658	5	0.505518	11	0	75.8114	3.90764e-05
2	0	0	1	0	0	478.533	0.557134	0.557464	0.00214059	5	0.505602	11	0	78.3118	1.1933e-06
2	0	0	0	0	0	481.033	0.544632	0.544949	-0.0366765	5	0.505554	11	0	2.3004	-1.99868e-05
2	0	0	0	0	0	483.534	0.53213	0.53243	-0.0600337	5	0.505428	11	0	4.8008	-3.19637e-05
2	0	0	0	0	0	486.034	0.519628	0.519953	-0.0750365	5	0.505255	11	0	7.3012	-3.90155e-05
2	0	0	0	0	0	488.535	0.507125	0.507429	-0.0854007	5	0.505053	11	0	9.8016	-4.33348e-05
2	0	0	1	0	0	491.035	0.494624	0.494942	-0.0927439	5	0.504831	11	0	12.3021	-4.59029e-05
2	0	0	1	0	0	493.536	0.482121	0.482408	-0.0976503	5	0.504596	11	0	14.8026	-4.71073e-05
2	0	0	1	0	0	496.036	0.469619	0.469942	-0.101089	5	0.504348	11	0	17.303	-4.7506e-05
2	0	0	1	0	0	498.536	0.457117	0.457419	-0.104533	5	0.504089	11	0	19.8034	-4.78156e-05
2	1	0	0	0	1	500.91	0.454766	0.455045	0.0812196	6	0.503974	11	0	0.7	3.69586e-05
2	1	0	1	0	1	503.411	0.467268	0.46761	0.0905584	6	0.504196	11	0	3.2006	4.2346e-05
2	1	0	1	0	1	505.911	0.479771	0.480088	0.0915346	6	0.504427	11	0	5.701	4.39447e-05
2	1	0	1	0	1	508.411	0.492273	0.492554	0.0933855	6	0.50466	11	0	8.2014	4.59974e-05
2	1	0	1	0	1	510.912	0.504775	0.505097	0.0964271	6	0.504897	11	0	10.7018	4.8705e-05
2	1	0	1	0	1	513.412	0.517278	0.517577	0.100647	6	0.50514	11	0	13.2023	5.20927e-05
2	1	0	0	0	1	515.913	0.529779	0.530108	0.107794	6	0.505399	11	0	15.7028	5.71425e-05
2	1	0	0	0	1	518.413	0.542282	0.542542	0.122931	6	0.505687	11	0	18.2032	6.66952e-05
2	1	0	0	0	1	520.914	0.554784	0.555103	0.15312	6	0.506032	11	0	20.7036	8.49972e-05
2	1	0	0	0	1	523.414	0.567286	0.567574	0.207386	6	0.506478	11	0	23.204	0.000117707
2	1	0	1	0	1	525.915	0.579788	0.580111	0.29849	6	0.5071	11	0	25.7046	0.000173157
2	1	0	1	0	1	528.415	0.592291	0.592611	0.442865	6	0.508012	11	0	28.205	0.000262447
2	1	0	1	0	1	530.915	0.604793	0.605074	0.662222	6	0.509379	11	0	30.7054	0.000400693
2	1	0	1	0	1	533.416	0.617295	0.617576	0.972715	6	0.511407	11	0	33.2058	0.000600726
2	1	0	1	0	1	535.916	0.629797	0.630062	1.37827	6	0.514329	11	0	35.7063	0.000868394
2	1	0	0	0	1	538.417	0.642299	0.642591	1.8728	6	0.518377	11	0	38.2068	0.00120345
2	1	0	0	0	1	540.917	0.654802	0.655144	2.44474	6	0.523761	11	0	40.7072	0.00160165
2	1	0	0	0	1	543.418	0.667304	0.667595	3.08102	6	0.530661	11	0	43.2076	0.00205687
2	1	0	0	0	1	545.918	0.679806	0.680134	3.77214	6	0.539224	11	0	45.708	0.00256556
2	1	0	1	0	1	548.419	0.692308	0.69264	4.50431	6	0.549568	11	0	48.2086	0.00311987
2	1	0	1	0	1	550.717	0.696159	0.696425	4.69827	6	0.560523	11	0	50.507	0.00327199
2	1	0	1	0	1	553.217	0.683657	0.683904	3.89583	6	0.571246	11	0	53.0074	0.00266437
2	1	0	1	0	1	555.718	0.671155	0.671416	3.15689	6	0.580048	11	0	55.5078	0.00211959
2	1	0	1	0	1	558.218	0.658652	0.658922	2.48717	6	0.58709	11	0	58.0082	0.00163885
2	1	0	0	0	1	560.719	0.64615	0.646438	1.89208	6	0.592546	11	0	60.5088	0.00122311
2	1	0	0	0	1	563.219	0.633648	0.633911	1.37808	6	0.596614	11	0	63.0092	0.000873583
2	1	0	0	0	1	565.72	0.621146	0.621438	0.947354	6	0.599498	11	0	65.5096	0.000588722
2	1	0	0	0	1	568.22	0.608643	0.608853	0.608029	6	0.601421	11	0	68.01	0.0003702
2	1	0	1	0	1	570.72	0.596141	0.596427	0.358862	6	0.602614	11	0	70.5105	0.000214035
2	1	0	1	0	1	573.221	0.583639	0.583927	0.187979	6	0.603284	11	0	73.011	0.000109766
2	1	0	1	0	1	575.721	0.571137	0.571449	0.0773655	6	0.603604	11	0	75.5114	4.42104e-05
2	1	0	1	0	1	578.222	0.558635	0.558958	0.00785977	6	0.6037	11	0	78.0118	4.39327e-06
2	0	0	1	0	1	580.722	0.546132	0.546478	-0.0354405	6	0.60366	11	0	2.0002	-1.93675e-05
2	0	0	0	0	1	583.223	0.53363	0.533913	-0.0608689	6	0.603538	11	0	4.5008	-3.24987e-05
2	0	0	0	0	1	585.723	0.521128	0.521513	-0.0752001	6	0.603368	11	0	7.0012	-3.92178e-05
2	0	0	0	0	1	588.224	0.508626	0.508928	-0.0832768	6	0.603168	11	0	9.5016	-4.23819e-05
2	0	0	0	0	1	590.724	0.496123	0.496435	-0.0895002	6	0.602948	11	0	12.002	-4.4431e-05
2	0	0	1	0	1	593.224	0.483621	0.483913	-0.0960453	6	0.602714	11	0	14.5025	-4.64776e-05
2	0	0	1	0	1	595.725	0.471119	0.471477	-0.101901	6	0.602468	11	0	17.003	-4.8044e-05
2	0	0	1	0	1	598.225	0.458617	0.458906	-0.105623	6	0.60221	11	0	19.5034	-4.84711e-05
2	1	0	0	0	0	600.599	0.453266	0.453567	0.0725502	7	0.602041	11	0	0.4	3.29064e-05
2	1	0	0	0	0	603.099	0.465768	0.466101	0.0909366	7	0.602258	11	0	2.9004	4.23856e-05
2	1	0	1	0	0	605.6	0.47827	0.478564	0.091186	7	0.602487	11	0	5.401	4.36383e-05
2	1	0	1	0	0	608.1	0.490773	0.491052	0.0920928	7	0.60272	11	0	7.9014	4.52224e-05
2	1	0	1	0	0	610.601	0.503275	0.503617	0.0950047	7	0.602955	11	0	10.4018	4.7846e-05
2	1	0	1	0	0	613.101	0.515777	0.516076	0.0996085	7	0.603196	11	0	12.9022	5.14056e-05
2	1	0	1	0	0	615.602	0.528279	0.528602	0.107051	7	0.603451	11	0	15.4026	5.65872e-05
2	1	0	0	0	0	618.102	0.540781	0.54109	0.120565	7	0.603733	11	0	17.9032	6.52363e-05
2	1	0	0	0	0	620.603	0.553284	0.553563	0.147141	7	0.604067	11	0	20.4036	8.1452e-05
2	1	0	0	0	0	623.103	0.565786	0.566121	0.196324	7	0.604494	11	0	22.904	0.000111143
2	1	0	0	0	0	625.603	0.578288	0.578648	0.280823	7	0.605083	11	0	25.4044	0.000162498
2	1	0	1	0	0	628.104	0.59079	0.591116	0.418455	7	0.605944	11	0	27.905	0.000247355
2	1	0	1	0	0	630.604	0.603293	0.603625	0.627939	7	0.607234	11	0	30.4054	0.000379039
2	1	0	1	0	0	633.105	0.615795	0.616139	0.924135	7	0.609154	11	0	32.9058	0.000569396
2	1	0	1	0	0	635.605	0.628297	0.628615	1.31435	7	0.611935	11	0	35.4062	0.000826219
2	1	0	1	0	0	638.106	0.640799	0.641126	1.79587	7	0.615811	11	0	37.9066	0.00115138
2	1	0	0	0	0	640.606	0.653301	0.653625	2.35968	7	0.620995	11	0	40.4072	0.00154235
2	1	0	0	0	0	643.107	0.665804	0.6661	2.99193	7	0.627674	11	0	42.9076	0.00199292
2	1	0	0	0	0	645.607	0.678306	0.678668	3.67736	7	0.636004	11	0	45.408	0.00249571
2	1	0	0	0	0	648.107	0.690808	0.691117	4.40374	7	0.646104	11	0	47.9084	0.0030435
2	1	0	0	0	0	650.406	0.697659	0.697916	4.7864	7	0.656949	11	0	50.2068	0.0033405
2	1	0	1	0	0	652.906	0.685157	0.685457	3.9791	7	0.667892	11	0	52.7074	0.00272751
2	1	0	1	0	0	655.407	0.672655	0.672935	3.23805	7	0.676898	11	0	55.2078	0.00217899
2	1	0	1	0	0	657.907	0.660153	0.660467	2.56307	7	0.684131	11	0	57.7082	0.00169282
2	1	0	1	0	0	660.408	0.64765	0.647955	1.95689	7	0.689761	11	0	60.2086	0.00126798
2	1	0	0	0	0	662.908	0.635148	0.635457	1.43155	7	0.693978	11	0	62.7092	0.000909689
2	1	0	0	0	0	665.409	0.622646	0.622945	0.993209	7	0.696991	11	0	65.2096	0.000618714
2	1	0	0	0	0	667.909	0.610144	0.610459	0.646212	7	0.699021	11	0	67.71	0.000394486
2	1	0	0	0	0	670.409	0.597642	0.597962	0.388112	7	0.700292	11	0	70.2104	0.000232076
2	1	0	0	0	0	672.91	0.585139	0.585446	0.205765	7	0.701017	11	0	72.7108	0.000120464
2	1	0	1	0	0	675.41	0.572637	0.57295	0.0865462	7	0.701372	11	0	75.2114	4.95867e-05
2	1	0	1	0	0	677.911	0.560135	0.560439	0.0140573	7	0.701491	11	0	77.7118	7.87826e-06
2	0	0	1	0	0	680.411	0.547633	0.54797	-0.0289362	7	0.701465	11	0	1.7002	-1.58562e-05
2	0	0	1	0	0	682.912	0.53513	0.535454	-0.0563017	7	0.701353	11	0	4.2006	-3.0147e-05
2	0	0	0	0	0	685.412	0.522628	0.522968	-0.0740378	7	0.701189	11	0	6.7012	-3.87193e-05
2	0	0	0	0	0	687.913	0.510126	0.510487	-0.0840456	7	0.700992	11	0	9.2016	-4.29042e-05
2	0	0	0	0	0	690.413	0.497624	0.497959	-0.0895015	7	0.700775	11	0	11.702	-4.45681e-05
2	0	0	0	0	0	692.913	0.485122	0.485419	-0.0939498	7	0.700544	11	0	14.2024	-4.5605e-05
2	0	0	0	0	0	695.414	0.472619	0.472969	-0.0995305	7	0.7003	11	0	16.7028	-4.70748e-05
2	0	0	1	0	0	697.914	0.460117	0.460407	-0.105709	7	0.700045	11	0	19.2034	-4.86692e-05
2	1	0	0	0	1	700.288	0.451766	0.452048	0.0419564	8	0.699827	11	0	0.1	1.89663e-05
2	1	0	0	0	1	702.788	0.464268	0.464575	0.0915652	8	0.700034	11	0	2.6004	4.25389e-05
2	1	0	0	0	1	705.289	0.47677	0.477092	0.0927436	8	0.700263	11	0	5.1008	4.42473e-05
2	1	0	1	0	1	707.789	0.489272	0.489602	0.0919411	8	0.700495	11	0	7.6013	4.50146e-05
2	1	0	1	0	1	710.29	0.501774	0.502035	0.0935844	8	0.700729	11	0	10.1018	4.69826e-05
2	1	0	1	0	1	712.79	0.514277	0.514559	0.0985835	8	0.700969	11	0	12.6022	5.0727e-05
2	1	0	1	0	1	715.291	0.526779	0.52702	0.106008	8	0.701222	11	0	15.1026	5.58681e-05
2	1	0	1	0	1	717.791	0.539281	0.539649	0.118629	8	0.7015	11	0	17.603	6.4018e-05
2	1	0	0	0	1	720.292	0.551783	0.552047	0.142911	8	0.701825	11	0	20.1036	7.88935e-05
2	1	0	0	0	1	722.792	0.564286	0.564608	0.189857	8	0.702238	11	0	22.604	0.000107195
2	1	0	0	0	1	725.292	0.576788	0.57713	0.270132	8	0.702803	11	0	25.1044	0.000155901
2	1	0	0	0	1	727.793	0.58929	0.589605	0.398861	8	0.703626	11	0	27.6048	0.000235171
2	1	0	1	0	1	730.293	0.601792	0.602141	0.5965	8	0.704855	11	0	30.1053	0.000359177
2	1	0	1	0	1	732.794	0.614294	0.61457	0.882136	8	0.706688	11	0	32.6058	0.000542134
2	1	0	1	0	1	735.294	0.626797	0.627062	1.26353	8	0.709355	11	0	35.1062	0.00079231
2	1	0	1	0	1	737.795	0.639299	0.639556	1.73759	8	0.71309	11	0	37.6066	0.00111129
2	1	0	1	0	1	740.295	0.651801	0.652038	2.29203	8	0.718112	11	0	40.107	0.00149449
2	1	0	0	0	1	742.796	0.664303	0.664618	2.91378	8	0.724611	11	0	42.6076	0.00193655
2	1	0	0	0	1	745.296	0.676806	0.677086	3.59299	8	0.732741	11	0	45.108	0.00243276
2	1	0	0	0	1	747.796	0.689308	0.689615	4.31906	8	0.742631	11	0	47.6084	0.00297849
2	1	0	0	0	1	750.095	0.69916	0.699445	4.8972	8	0.753345	11	0	49.9068	0.00342532
2	1	0	0	0	1	752.595	0.686657	0.686955	4.07852	8	0.764544	11	0	52.4072	0.00280176
2	1	0	1	0	1	755.096	0.674155	0.674439	3.33055	8	0.773786	11	0	54.9078	0.00224626
2	1	0	1	0	1	757.596	0.661653	0.661969	2.65036	8	0.781246	11	0	57.4082	0.00175446
2	1	0	1	0	1	760.097	0.649151	0.649429	2.03819	8	0.787091	11	0	59.9086	0.00132366
2	1	0	1	0	1	762.597	0.636648	0.637008	1.50325	8	0.791501	11	0	62.409	0.000957584
2	1	0	1	0	1	765.097	0.624146	0.624424	1.05028	8	0.794671	11	0	64.9095	0.000655817
2	1	0	0	0	1	767.598	0.611644	0.611921	0.687855	8	0.79682	11	0	67.41	0.000420913
2	1	0	0	0	1	770.098	0.599142	0.599489	0.415282	8	0.798179	11	0	69.9104	0.000248957
2	1	0	0	0	1	772.599	0.58664	0.586965	0.224553	8	0.798965	11	0	72.4108	0.000131805
2	1	0	0	0	1	775.099	0.574137	0.574451	0.0999435	8	0.799361	11	0	74.9112	5.74126e-05
2	1	0	1	0	1	777.6	0.561635	0.561908	0.022407	8	0.799504	11	0	77.4118	1.25907e-05
2	0	0	1	0	1	780.1	0.549133	0.549418	-0.0250383	8	0.799493	11	0	1.5003	-1.37565e-05
2	0	0	1	0	1	782.601	0.536631	0.536942	-0.0544884	8	0.79939	11	0	4.0007	-2.92571e-05
2	0	0	1	0	1	785.101	0.524128	0.524406	-0.0726734	8	0.799231	11	0	6.5011	-3.81104e-05
2	0	0	1	0	1	787.601	0.511626	0.511957	-0.0824121	8	0.799038	11	0	9.0016	-4.21914e-05
2	0	0	0	0	1	790.102	0.499124	0.499439	-0.0882763	8	0.798824	11	0	11.5021	-4.40886e-05
2	0	0	0	0	1	792.602	0.486622	0.486942	-0.0933489	8	0.798594	11	0	14.0025	-4.54555e-05
2	0	0	0	0	1	795.103	0.47412	0.474409	-0.0997794	8	0.798352	11	0	16.5029	-4.73362e-05
2	0	0	0	0	1	797.603	0.461617	0.461986	-0.104866	8	0.798098	11	0	19.0033	-4.84469e-05
2	0	0	0	0	0	799.977	0.450265	0.450588	-0.0671315	9	0.797849	11	0	21.3771	-3.02486e-05
2	1	0	0	0	0	802.477	0.462768	0.463061	0.0905667	9	0.798029	11	0	2.3004	4.19379e-05
2	1	0	0	0	0	804.978	0.47527	0.475575	0.0915078	9	0.798257	11	0	4.8008	4.35188e-05
2	1	0	0	0	0	807.478	0.487772	0.488144	0.0917825	9	0.798488	11	0	7.3012	4.4803e-05
2	1	0	1	0	0	809.979	0.500274	0.500608	0.0948987	9	0.798722	11	0	9.8017	4.7507e-05
2	1	0	1	0	0	812.479	0.512776	0.513041	0.098435	9	0.798961	11	0	12.3022	5.05011e-05
2	1	0	1	0	0	814.98	0.525279	0.525571	0.103679	9	0.799211	11	0	14.8026	5.44909e-05
2	1	0	1	0	0	817.48	0.537781	0.538098	0.115156	9	0.799484	11	0	17.303	6.19651e-05
2	1	0	1	0	0	819.98	0.550283	0.550573	0.139268	9	0.799802	11	0	19.8034	7.66773e-05
2	1	0	0	0	0	822.481	0.562785	0.563137	0.183361	9	0.8002	11	0	22.304	0.000103257
2	1	0	0	0	0	824.981	0.575287	0.575585	0.2574	9	0.800742	11	0	24.8044	0.000148155
2	1	0	0	0	0	827.482	0.58779	0.588127	0.37779	9	0.801524	11	0	27.3048	0.000222189
2	1	0	0	0	0	829.982	0.600292	0.600571	0.566742	9	0.802692	11	0	29.8052	0.000340369
2	1	0	0	0	0	832.483	0.612794	0.613119	0.842532	9	0.804438	11	0	32.3056	0.000516572
2	1	0	1	0	0	834.983	0.625296	0.625632	1.21249	9	0.806988	11	0	34.8062	0.000758573
2	1	0	1	0	0	837.484	0.637799	0.638109	1.67278	9	0.810578	11	0	37.3066	0.00106741
2	1	0	1	0	0	839.984	0.650301	0.650631	2.21645	9	0.815428	11	0	39.807	0.00144209
2	1	0	1	0	0	842.484	0.662803	0.663099	2.83405	9	0.821735	11	0	42.3074	0.00187925
2	1	0	0	0	0	844.985	0.675305	0.675621	3.50855	9	0.829657	11	0	44.808	0.00237045
2	1	0	0	0	0	847.485	0.687808	0.688105	4.22686	9	0.839319	11	0	47.3084	0.00290853
2	1	0	0	0	0	849.919	0.699985	0.700389	4.97357	9	0.850498	11	0	49.7418	0.00348344
2	1	0	0	0	0	852.284	0.688158	0.688428	4.1731	9	0.861275	11	0	52.1072	0.00287288
2	1	0	0	0	0	854.785	0.675655	0.675969	3.41752	9	0.870747	11	0	54.6076	0.00231014
2	1	0	1	0	0	857.285	0.663153	0.663416	2.72477	9	0.878409	11	0	57.1082	0.00180766
2	1	0	1	0	0	859.786	0.650651	0.650928	2.10009	9	0.884421	11	0	59.6086	0.00136701
2	1	0	1	0	0	862.286	0.638149	0.638452	1.5518	9	0.888968	11	0	62.109	0.000990747
2	1	0	1	0	0	864.786	0.625646	0.62591	1.09205	9	0.892255	11	0	64.6094	0.000683527
2	1	0	1	0	0	867.287	0.613144	0.613424	0.722204	9	0.894501	11	0	67.1099	0.000443017
2	1	0	0	0	0	869.787	0.600642	0.600943	0.441195	9	0.895934	11	0	69.6104	0.000265133
2	1	0	0	0	0	872.288	0.58814	0.588433	0.24179	9	0.896773	11	0	72.1108	0.000142277
2	1	0	0	0	0	874.788	0.575638	0.575951	0.110861	9	0.897203	11	0	74.6112	6.38504e-05
2	1	0	0	0	0	877.289	0.563135	0.563437	0.0295388	9	0.89737	11	0	77.1116	1.66432e-05
2	0	0	1	0	0	879.789	0.550633	0.550965	-0.02125	9	0.897373	11	0	1.1002	-1.1708e-05
2	0	0	1	0	0	882.29	0.538131	0.538402	-0.0528967	9	0.897278	11	0	3.6006	-2.84797e-05
2	0	0	1	0	0	884.79	0.525629	0.525909	-0.0701148	9	0.897124	11	0	6.101	-3.6874e-05
2	0	0	1	0	0	887.29	0.513127	0.513424	-0.0797105	9	0.896935	11	0	8.6014	-4.09253e-05
2	0	0	1	0	0	889.791	0.500624	0.500916	-0.0874768	9	0.896723	11	0	11.1019	-4.38185e-05
2	0	0	0	0	0	892.291	0.488122	0.488429	-0.0947976	9	0.896495	11	0	13.6024	-4.63019e-05
2	0	0	0	0	0	894.792	0.47562	0.475962	-0.0983266	9	0.896255	11	0	16.1028	-4.67997e-05
2	0	0	0	0	0	897.292	0.463118	0.463415	-0.101349	9	0.896004	11	0	18.6032	-4.69665e-05
2	0	0	0	0	0	899.793	0.450615	0.450899	-0.107183	9	0.895741	11	0	21.1036	-4.83285e-05
2	1	0	1	0	1	902.166	0.461267	0.461564	0.088087	10	0.895877	11	0	2.0003	4.06578e-05
2	1	0	0	0	1	904.667	0.47377	0.474101	0.0929389	10	0.896104	11	0	4.5008	4.40624e-05
2	1	0	0	0	1	907.167	0.486272	0.486528	0.0931466	10	0.896335	11	0	7.0012	4.53184e-05
2	1	0	0	0	1	909.668	0.498774	0.499054	0.0923726	10	0.896568	11	0	9.5016	4.6099e-05
2	1	0	0	0	1	912.168	0.511276	0.511615	0.0961254	10	0.896806	11	0	12.002	4.91792e-05
2	1	0	1	0	1	914.669	0.523778	0.524132	0.103508	10	0.897054	11	0	14.5026	5.42519e-05
2	1	0	1	0	1	917.169	0.536281	0.536565	0.113791	10	0.897322	11	0	17.003	6.10561e-05
2	1	0	1	0	1	919.669	0.548783	0.549121	0.134534	10	0.897632	11	0	19.5034	7.38753e-05
2	1	0	1	0	1	922.17	0.561285	0.561547	0.175315	10	0.898017	11	0	22.0038	9.84475e-05
2	1	0	1	0	1	924.67	0.573787	0.574108	0.245056	10	0.898534	11	0	24.5043	0.000140688
2	1	0	0	0	1	927.171	0.586289	0.58662	0.358057	10	0.899277	11	0	27.0048	0.000210043
2	1	0	0	0	1	929.671	0.598792	0.599127	0.536832	10	0.900383	11	0	29.5052	0.00032163
2	1	0	0	0	1	932.172	0.611294	0.611583	0.800796	10	0.902039	11	0	32.0056	0.000489754
2	1	0	0	0	1	934.672	0.623796	0.624127	1.15775	10	0.904467	11	0	34.506	0.000722581
2	1	0	1	0	1	937.173	0.636298	0.636617	1.60479	10	0.907904	11	0	37.0066	0.00102164
2	1	0	1	0	1	939.673	0.648801	0.649047	2.13937	10	0.912573	11	0	39.507	0.00138855
2	1	0	1	0	1	942.173	0.661303	0.661619	2.74752	10	0.918671	11	0	42.0074	0.00181781
2	1	0	1	0	1	944.674	0.673805	0.674096	3.41417	10	0.926365	11	0	44.5078	0.00230148
2	1	0	0	0	1	947.174	0.686307	0.686599	4.12557	10	0.935787	11	0	47.0084	0.00283261
2	1	0	0	0	1	949.675	0.698809	0.699117	4.87526	10	0.947039	11	0	49.5088	0.00340838
2	1	0	0	0	1	951.973	0.689658	0.689967	4.25682	10	0.957662	11	0	51.8072	0.00293706
2	1	0	0	0	1	954.474	0.677156	0.677468	3.4954	10	0.967336	11	0	54.3076	0.00236802
2	1	0	0	0	1	956.974	0.664653	0.664982	2.79685	10	0.975188	11	0	56.808	0.00185985
2	1	0	1	0	1	959.475	0.652151	0.65241	2.16728	10	0.981377	11	0	59.3086	0.00141396
2	1	0	1	0	1	961.975	0.639649	0.639928	1.60881	10	0.986077	11	0	61.809	0.00102952
2	1	0	1	0	1	964.475	0.627147	0.627447	1.13616	10	0.989489	11	0	64.3094	0.00071288
2	1	0	1	0	1	966.976	0.614645	0.614923	0.755998	10	0.991836	11	0	66.8098	0.000464881
2	1	0	1	0	1	969.476	0.602142	0.602446	0.466691	10	0.993343	11	0	69.3102	0.000281156
2	1	0	0	0	1	971.977	0.58964	0.590017	0.258549	10	0.994232	11	0	71.8108	0.000152548
2	1	0	0	0	1	974.477	0.577138	0.577469	0.121375	10	0.994696	11	0	74.3112	7.00905e-05
2	1	0	0	0	1	976.978	0.564636	0.564935	0.0367057	10	0.994884	11	0	76.8116	2.07364e-05
2	0	0	0	0	1	979.478	0.552133	0.552461	-0.0174461	10	0.9949	11	0	0.9001	-9.63831e-06
2	0	0	1	0	1	981.978	0.539631	0.539936	-0.0500527	10	0.994813	11	0	3.4006	-2.70252e-05
2	0	0	1	0	1	984.479	0.527129	0.527424	-0.0666632	10	0.994665	11	0	5.9011	-3.51598e-05
2	0	0	1	0	1	986.979	0.514627	0.514909	-0.0792114	10	0.994479	11	0	8.4015	-4.07866e-05
2	0	0	1	0	1	989.48	0.502125	0.502453	-0.088453	10	0.99427	11	0	10.9019	-4.44434e-05
2	0	0	1	0	1	991.98	0.489622	0.489932	-0.0920719	10	0.994044	11	0	13.4023	-4.51089e-05
2	0	0	0	0	1	994.481	0.47712	0.477417	-0.0964493	10	0.993806	11	0	15.9029	-4.60465e-05
2	0	0	0	0	1	996.981	0.464618	0.46491	-0.102909	10	0.993556	11	0	18.4033	-4.78437e-05
2	0	0	0	0	1	999.482	0.452116	0.452369	-0.105886	10	0.993295	11	0	20.9037	-4.78997e-05
2	1	0	1	0	0	1001.86	0.459767	0.460011	0.0881258	11	0.993374	11	0	1.7002	4.05388e-05
2	1	0	1	0	0	1004.36	0.472269	0.472605	0.0899447	11	0.993599	11	0	4.2007	4.25084e-05
2	1	0	0	0	0	1006.86	0.484771	0.485056	0.0928588	11	0.99383	11	0	6.7012	4.50417e-05
2	1	0	0	0	0	1009.36	0.497274	0.497638	0.0941077	11	0.994062	11	0	9.2016	4.68316e-05
2	1	0	0	0	0	1011.86	0.509776	0.510088	0.0945476	11	0.994299	11	0	11.702	4.82276e-05
2	1	0	0	0	0	1014.36	0.522278	0.522537	0.100797	11	0.994545	11	0	14.2024	5.26701e-05
2	1	0	1	0	0	1016.86	0.53478	0.535113	0.113208	11	0.99481	11	0	16.703	6.05792e-05
2	1	0	1	0	0	1019.36	0.547283	0.547632	0.131755	11	0.995112	11	0	19.2034	7.21534e-05
2	1	0	1	0	0	1021.86	0.559785	0.560072	0.167486	11	0.995484	11	0	21.7038	9.38042e-05
2	1	0	1	0	0	1024.36	0.572287	0.572612	0.233113	11	0.995978	11	0	24.2042	0.000133483
2	1	0	1	0	0	1026.86	0.584789	0.585131	0.339779	11	0.996683	11	0	26.7047	0.000198815
2	1	0	0	0	0	1029.36	0.597291	0.597604	0.507518	11	0.997729	11	0	29.2052	0.000303295
2	1	0	0	0	0	1031.86	0.609794	0.610108	0.759748	11	0.999297	11	0	31.7056	0.000463529
2	1	0	0	0	0	1034.36	0.622296	0.622574	1.1032	11	1.00161	11	0	34.206	0.000686826
2	1	0	0	0	0	1036.86	0.634798	0.635095	1.53813	11	1.00489	11	0	36.7064	0.00097686
2	1	0	1	0	0	1039.36	0.6473	0.647609	2.06261	11	1.00938	11	0	39.207	0.00133577
2	1	0	1	0	0	1041.86	0.659802	0.660089	2.66072	11	1.01527	11	0	41.7074	0.00175631
2	1	0	1	0	0	1044.36	0.672305	0.672612	3.31923	11	1.02274	11	0	44.2078	0.00223255
2	1	0	1	0	0	1046.86	0.684807	0.685104	4.02627	11	1.03192	11	0	46.7082	0.00275841
2	1	0	1	0	0	1049.36	0.697309	0.697625	4.77448	11	1.04292	11	0	49.2087	0.0033308
2	1	0	0	0	0	1051.66	0.691158	0.691486	4.34099	11	1.05368	11	0	51.5072	0.00300174
2	1	0	0	0	0	1054.16	0.678656	0.678946	3.57273	11	1.06356	11	0	54.0076	0.00242569
2	1	0	0	0	0	1056.66	0.666154	0.666447	2.86686	11	1.07159	11	0	56.508	0.00191061
2	1	0	0	0	0	1059.16	0.653651	0.653935	2.22568	11	1.07794	11	0	59.0084	0.00145545
2	1	0	1	0	0	1061.66	0.641149	0.641434	1.6602	11	1.08278	11	0	61.5089	0.00106491
2	1	0	1	0	0	1064.16	0.628647	0.628949	1.18062	11	1.08631	11	0	64.0094	0.000742552
2	1	0	1	0	0	1066.66	0.616145	0.616441	0.791977	11	1.08876	11	0	66.5098	0.000488207
2	1	0	1	0	0	1069.17	0.603643	0.603958	0.494121	11	1.09034	11	0	69.0102	0.000298428
2	1	0	1	0	0	1071.67	0.59114	0.591461	0.278446	11	1.09129	11	0	71.5106	0.00016469
2	1	0	0	0	0	1074.17	0.578638	0.578986	0.133682	11	1.09179	11	0	74.0112	7.74003e-05
2	1	0	0	0	0	1076.67	0.566136	0.566429	0.0438299	11	1.09201	11	0	76.5116	2.48266e-05
2	0	0	0	0	0	1079.17	0.553634	0.553908	-0.0112423	11	1.09204	11	0	0.5	-6.22718e-06
2	0	0	0	0	0	1081.67	0.541131	0.541409	-0.0462875	11	1.09196	11	0	3.0004	-2.50605e-05
2	0	0	1	0	0	1084.17	0.52863	0.528946	-0.0667987	11	1.09182	11	0	5.5009	-3.53329e-05
2	0	0	1	0	0	1086.67	0.516127	0.516426	-0.0777829	11	1.09164	11	0	8.0014	-4.01691e-05
2	0	0	1	0	0	1089.17	0.503625	0.503951	-0.0851627	11	1.09143	11	0	10.5018	-4.29178e-05
2	0	0	1	0	0	1091.67	0.491123	0.491415	-0.0925591	11	1.09121	11	0	13.0022	-4.54849e-05
2	0	0	1	0	0	1094.17	0.47862	0.478939	-0.0979382	11	1.09097	11	0	15.5026	-4.69065e-05
2	0	0	0	0	0	1096.67	0.466118	0.466445	-0.100541	11	1.09072	11	0	18.0032	-4.68969e-05
2	0	0	0	0	0	1099.17	0.453616	0.45393	-0.104461	11	1.09046	11	0	20.5036	-4.74179e-05
2	1	0	1	0	1	1101.54	0.458267	0.458601	0.0853398	12	1.09048	11	0	1.4002	3.91369e-05
2	1	0	1	0	1	1104.04	0.470769	0.471092	0.0911808	12	1.09071	11	0	3.9006	4.29546e-05
2	1	0	1	0	1	1106.54	0.483271	0.483609	0.0934599	12	1.09094	11	0	6.401	4.5198e-05
2	1	0	0	0	1	1109.05	0.495773	0.496095	0.0928652	12	1.09117	11	0	8.9016	4.60699e-05
2	1	0	0	0	1	1111.55	0.508276	0.508607	0.0938164	12	1.0914	11	0	11.402	4.77156e-05
2	1	0	0	0	1	1114.05	0.520778	0.52109	0.100104	12	1.09165	11	0	13.9024	5.21631e-05
2	1	0	0	0	1	1116.55	0.53328	0.533617	0.111046	12	1.09191	11	0	16.4028	5.92562e-05
2	1	0	1	0	1	1119.05	0.545782	0.546109	0.128611	12	1.0922	11	0	18.9034	7.02354e-05
2	1	0	1	0	1	1121.55	0.558285	0.558566	0.16081	12	1.09256	11	0	21.4038	8.98232e-05
2	1	0	1	0	1	1124.05	0.570787	0.571119	0.220511	12	1.09303	11	0	23.9042	0.000125938
2	1	0	1	0	1	1126.55	0.583289	0.583595	0.322703	12	1.0937	11	0	26.4046	0.000188328
2	1	0	1	0	1	1129.05	0.595791	0.596134	0.481959	12	1.09469	11	0	28.905	0.000287312
2	1	0	0	0	1	1131.55	0.608293	0.608601	0.718361	12	1.09618	11	0	31.4056	0.000437195
2	1	0	0	0	1	1134.05	0.620796	0.621125	1.04822	12	1.09837	11	0	33.906	0.000651076
2	1	0	0	0	1	1136.55	0.633298	0.633623	1.47382	12	1.10151	11	0	36.4064	0.000933846
2	1	0	0	0	1	1139.05	0.6458	0.646052	1.98623	12	1.10581	11	0	38.9068	0.00128321
2	1	0	1	0	1	1141.55	0.658302	0.65856	2.57281	12	1.1115	11	0	41.4074	0.00169435
2	1	0	1	0	1	1144.05	0.670804	0.671099	3.22413	12	1.11874	11	0	43.9078	0.00216371
2	1	0	1	0	1	1146.55	0.683307	0.683578	3.92639	12	1.12768	11	0	46.4082	0.00268399
2	1	0	1	0	1	1149.05	0.695809	0.696109	4.66999	12	1.13842	11	0	48.9086	0.00325082
2	1	0	1	0	1	1151.35	0.692658	0.692963	4.42233	12	1.14925	11	0	51.207	0.00306451
2	1	0	0	0	1	1153.85	0.680156	0.680422	3.64523	12	1.15932	11	0	53.7076	0.00248029
2	1	0	0	0	1	1156.35	0.667654	0.667998	2.93351	12	1.16753	11	0	56.208	0.00195958
2	1	0	0	0	1	1158.85	0.655152	0.655454	2.28565	12	1.17403	11	0	58.7084	0.00149814
2	1	0	0	0	1	1161.35	0.642649	0.642971	1.7139	12	1.17902	11	0	61.2088	0.00110199
2	1	0	0	0	1	1163.85	0.630147	0.630445	1.22687	12	1.18267	11	0	63.7092	0.000773474
2	1	0	1	0	1	1166.35	0.617645	0.618008	0.829165	12	1.18522	11	0	66.2098	0.000512431
2	1	0	1	0	1	1168.85	0.605143	0.605482	0.520971	12	1.18689	11	0	68.7102	0.000315439
2	1	0	1	0	1	1171.35	0.592641	0.592915	0.296506	12	1.18789	11	0	71.2106	0.000175803
2	1	0	1	0	1	1173.85	0.580138	0.580436	0.145876	12	1.18843	11	0	73.711	8.46719e-05
2	1	0	0	0	1	1176.36	0.567636	0.567907	0.0507947	12	1.18867	11	0	76.2116	2.88467e-05
2	1	0	0	0	1	1178.86	0.555134	0.555459	-0.00690058	12	1.18872	11	0	0.3001	-3.83299e-06
2	0	0	0	0	1	1181.36	0.542632	0.542933	-0.0432343	12	1.18865	11	0	2.8005	-2.34733e-05
2	0	0	0	0	1	1183.86	0.530129	0.53041	-0.0656837	12	1.18851	11	0	5.3009	-3.48393e-05
2	0	0	1	0	1	1186.36	0.517627	0.51794	-0.0772171	12	1.18833	11	0	7.8014	-3.99938e-05
2	0	0	1	0	1	1188.86	0.505125	0.505413	-0.0842075	12	1.18813	11	0	10.3019	-4.25596e-05
2	0	0	1	0	1	1191.36	0.492623	0.492924	-0.0909522	12	1.18791	11	0	12.8023	-4.48325e-05
2	0	0	1	0	1	1193.86	0.480121	0.480428	-0.0972837	12	1.18767	11	0	15.3027	-4.67378e-05
2	0	0	1	0	1	1196.36	0.467618	0.46795	-0.101667	12	1.18743	11	0	17.8031	-4.75752e-05
2	0	0	0	0	1	1198.86	0.455116	0.455449	-0.10419	12	1.18717	11	0	20.3037	-4.74533e-05
2	1	0	1	0	0	1201.23	0.456766	0.457105	0.0855001	13	1.18713	11	0	1.1002	3.90825e-05
2	1	0	1	0	0	1203.73	0.469269	0.469601	0.0896235	13	1.18735	11	0	3.6006	4.20873e-05
2	1	0	1	0	0	1206.23	0.481771	0.482148	0.0915139	13	1.18758	11	0	6.101	4.41232e-05
2	1	0	1	0	0	1208.73	0.494273	0.494543	0.0940058	13	1.18781	11	0	8.6014	4.64899e-05
2	1	0	0	0	0	1211.23	0.506775	0.507078	0.0953321	13	1.18805	11	0	11.102	4.83408e-05
2	1	0	0	0	0	1213.74	0.519278	0.519649	0.0982448	13	1.18829	11	0	13.6024	5.10528e-05
2	1	0	0	0	0	1216.24	0.53178	0.532124	0.106923	13	1.18855	11	0	16.1028	5.68962e-05
2	1	0	0	0	0	1218.74	0.544282	0.544583	0.124988	13	1.18883	11	0	18.6032	6.80664e-05
2	1	0	1	0	0	1221.24	0.556784	0.557141	0.156953	13	1.18918	11	0	21.1037	8.74449e-05
2	1	0	1	0	0	1223.74	0.569286	0.569595	0.2107	13	1.18963	11	0	23.6042	0.000120014
2	1	0	1	0	0	1226.24	0.581789	0.582086	0.302889	13	1.19027	11	0	26.1046	0.000176307
2	1	0	1	0	0	1228.74	0.594291	0.594642	0.453069	13	1.1912	11	0	28.605	0.000269414
2	1	0	1	0	0	1231.24	0.606793	0.607135	0.68115	13	1.1926	11	0	31.1054	0.00041355
2	1	0	0	0	0	1233.74	0.619295	0.619626	0.998792	13	1.19468	11	0	33.606	0.000618877
2	1	0	0	0	0	1236.24	0.631798	0.632112	1.4093	13	1.19768	11	0	36.1064	0.000890836
2	1	0	0	0	0	1238.74	0.6443	0.644641	1.90907	13	1.20181	11	0	38.6068	0.00123066
2	1	0	0	0	0	1241.24	0.656802	0.657089	2.4876	13	1.2073	11	0	41.1072	0.00163457
2	1	0	1	0	0	1243.74	0.669304	0.66955	3.13208	13	1.21432	11	0	43.6078	0.00209708
2	1	0	1	0	0	1246.24	0.681806	0.682095	3.82793	13	1.22301	11	0	46.1082	0.00261101
2	1	0	1	0	0	1248.74	0.694309	0.694623	4.56103	13	1.23349	11	0	48.6086	0.0031682
2	1	0	1	0	0	1251.04	0.694159	0.694426	4.50176	13	1.24433	11	0	50.907	0.00312614
2	1	0	1	0	0	1253.54	0.681656	0.68195	3.71859	13	1.25459	11	0	53.4074	0.00253589
2	1	0	1	0	0	1256.04	0.669154	0.669465	3.00486	13	1.26298	11	0	55.9079	0.00201165
2	1	0	0	0	0	1258.54	0.656652	0.656977	2.3507	13	1.26965	11	0	58.4084	0.00154436
2	1	0	0	0	0	1261.04	0.64415	0.64445	1.76668	13	1.27478	11	0	60.9088	0.00113854
2	1	0	0	0	0	1263.54	0.631647	0.631963	1.27083	13	1.27856	11	0	63.4092	0.000803118
2	1	0	0	0	0	1266.04	0.619145	0.619453	0.862653	13	1.28121	11	0	65.9096	0.000534373
2	1	0	1	0	0	1268.54	0.606643	0.606936	0.546892	13	1.28295	11	0	68.4102	0.000331928
2	1	0	1	0	0	1271.04	0.594141	0.594432	0.316779	13	1.28401	11	0	70.9106	0.000188303
2	1	0	1	0	0	1273.54	0.581639	0.581946	0.158262	13	1.28459	11	0	73.411	9.21001e-05
2	1	0	1	0	0	1276.04	0.569136	0.569439	0.0575847	13	1.28485	11	0	75.9114	3.2791e-05
2	1	0	1	0	0	1278.54	0.556634	0.556992	-0.00289221	13	1.28491	11	0	0.000000000000000E+000	-1.61094e-06
2	0	0	0	0	0	1281.05	0.544132	0.544446	-0.0394627	13	1.28485	11	0	2.5005	-2.14853e-05
2	0	0	0	0	0	1283.55	0.53163	0.531927	-0.0629427	13	1.28472	11	0	5.0009	-3.34809e-05
2	0	0	0	0	0	1286.05	0.519127	0.519409	-0.0772436	13	1.28455	11	0	7.5013	-4.0121e-05
2	0	0	0	0	0	1288.55	0.506625	0.506958	-0.0847072	13	1.28435	11	0	10.0017	-4.2943e-05
2	0	0	1	0	0	1291.05	0.494123	0.494423	-0.0895113	13	1.28413	11	0	12.5023	-4.42564e-05
2	0	0	1	0	0	1293.55	0.481621	0.481916	-0.0950593	13	1.28389	11	0	15.0027	-4.58106e-05
2	0	0	1	0	0	1296.05	0.469119	0.46941	-0.100947	13	1.28365	11	0	17.5031	-4.73855e-05
2	0	0	1	0	0	1298.55	0.456616	0.456934	-0.104922	13	1.28339	11	0	20.0035	-4.79426e-05
2	1	0	1	0	1	1300.92	0.455267	0.455578	0.0834092	14	1.2833	11	0	0.8001	3.79994e-05
2	1	0	1	0	1	1303.42	0.467768	0.468137	0.0910018	14	1.28352	11	0	3.3006	4.26013e-05
2	1	0	1	0	1	1305.92	0.480271	0.480547	0.0907125	14	1.28375	11	0	5.801	4.35916e-05
2	1	0	1	0	1	1308.42	0.492773	0.493081	0.0913959	14	1.28398	11	0	8.3014	4.50656e-05
2	1	0	1	0	1	1310.92	0.505275	0.505629	0.094643	14	1.28421	11	0	10.8018	4.78543e-05
2	1	0	0	0	1	1313.42	0.517777	0.51807	0.0988068	14	1.28445	11	0	13.3024	5.11888e-05
2	1	0	0	0	1	1315.92	0.53028	0.530598	0.105528	14	1.2847	11	0	15.8028	5.5993e-05
2	1	0	0	0	1	1318.43	0.542782	0.543015	0.120112	14	1.28499	11	0	18.3032	6.52225e-05
2	1	0	0	0	1	1320.93	0.555284	0.555684	0.150223	14	1.28532	11	0	20.8036	8.34766e-05
2	1	0	0	0	1	1323.43	0.567786	0.568124	0.202049	14	1.28576	11	0	23.304	0.000114789
2	1	0	1	0	1	1325.93	0.580288	0.580631	0.287967	14	1.28636	11	0	25.8046	0.000167202
2	1	0	1	0	1	1328.43	0.592791	0.593123	0.427729	14	1.28724	11	0	28.305	0.000253696
2	1	0	1	0	1	1330.93	0.605293	0.605587	0.643833	14	1.28857	11	0	30.8054	0.000389897
2	1	0	1	0	1	1333.43	0.617795	0.618071	0.949621	14	1.29054	11	0	33.3058	0.000586933
2	1	0	0	0	1	1335.93	0.630297	0.630675	1.34804	14	1.29339	11	0	35.8064	0.000850178
2	1	0	0	0	1	1338.43	0.642799	0.643032	1.83534	14	1.29736	11	0	38.3068	0.00118018
2	1	0	0	0	1	1340.93	0.655302	0.655551	2.40529	14	1.30265	11	0	40.8072	0.00157679
2	1	0	0	0	1	1343.43	0.667804	0.667994	3.04602	14	1.30946	11	0	43.3076	0.00203473
2	1	0	1	0	1	1345.93	0.680306	0.680617	3.73823	14	1.31793	11	0	45.8081	0.0025443
2	1	0	1	0	1	1348.43	0.692808	0.693055	4.46708	14	1.32818	11	0	48.3086	0.00309593
2	1	0	1	0	1	1350.73	0.695659	0.695889	4.60257	14	1.33901	11	0	50.607	0.00320288
2	1	0	1	0	1	1353.23	0.683157	0.683485	3.81165	14	1.34951	11	0	53.1074	0.00260521
2	1	0	1	0	1	1355.73	0.670654	0.67096	3.08964	14	1.35812	11	0	55.6078	0.00207303
2	1	0	1	0	1	1358.23	0.658152	0.658453	2.42511	14	1.365	11	0	58.1083	0.00159682
2	1	0	0	0	1	1360.73	0.64565	0.645901	1.83392	14	1.3703	11	0	60.6088	0.00118453
2	1	0	0	0	1	1363.23	0.633148	0.633453	1.3229	14	1.37423	11	0	63.1092	0.000837993
2	1	0	0	0	1	1365.73	0.620646	0.620957	0.904902	14	1.377	11	0	65.6096	0.000561905
2	1	0	0	0	1	1368.23	0.608143	0.608424	0.577413	14	1.37883	11	0	68.11	0.000351312
2	1	0	1	0	1	1370.73	0.595641	0.595928	0.336432	14	1.37995	11	0	70.6106	0.000200489
2	1	0	1	0	1	1373.23	0.583139	0.583445	0.172148	14	1.38057	11	0	73.111	0.000100439
2	1	0	1	0	1	1375.73	0.570637	0.570907	0.0671136	14	1.38086	11	0	75.6114	3.83156e-05
2	1	0	1	0	1	1378.23	0.558134	0.558466	0.00310493	14	1.38094	11	0	78.1118	1.734e-06
2	0	0	1	0	1	1380.73	0.545632	0.545965	-0.0360006	14	1.38089	11	0	2.3005	-1.9655e-05
2	0	0	0	0	1	1383.23	0.53313	0.533429	-0.0608571	14	1.38077	11	0	4.801	-3.2463e-05
2	0	0	0	0	1	1385.74	0.520628	0.520958	-0.0756669	14	1.3806	11	0	7.3014	-3.94193e-05
2	0	0	0	0	1	1388.24	0.508126	0.508431	-0.083431	14	1.3804	11	0	9.8018	-4.24189e-05
2	0	0	0	0	1	1390.74	0.495623	0.495909	-0.0883935	14	1.38018	11	0	12.3022	-4.38352e-05
2	0	0	1	0	1	1393.24	0.483121	0.483425	-0.0938493	14	1.37995	11	0	14.8028	-4.53691e-05
2	0	0	1	0	1	1395.74	0.470619	0.470876	-0.0995558	14	1.37971	11	0	17.3032	-4.68784e-05
2	0	0	1	0	1	1398.24	0.458117	0.458352	-0.104605	14	1.37946	11	0	19.8036	-4.79461e-05
2	1	0	0	0	0	1400.61	0.453766	0.454023	0.0758696	15	1.37931	11	0	0.5	3.44466e-05
2	1	0	0	0	0	1403.11	0.466268	0.466569	0.0910031	15	1.37952	11	0	3.0004	4.24592e-05
2	1	0	1	0	0	1405.61	0.47877	0.479053	0.0912639	15	1.37975	11	0	5.501	4.37202e-05
2	1	0	1	0	0	1408.11	0.491273	0.491585	0.0912155	15	1.37998	11	0	8.0014	4.48401e-05
2	1	0	1	0	0	1410.61	0.503775	0.504081	0.0923785	15	1.38021	11	0	10.5018	4.65663e-05
2	1	0	1	0	0	1413.11	0.516277	0.516581	0.0973993	15	1.38045	11	0	13.0022	5.03147e-05
2	1	0	1	0	0	1415.61	0.528779	0.529035	0.10532	15	1.3807	11	0	15.5027	5.57182e-05
2	1	0	0	0	0	1418.11	0.541281	0.541575	0.118689	15	1.38098	11	0	18.0032	6.42788e-05
2	1	0	0	0	0	1420.61	0.553784	0.554086	0.143734	15	1.3813	11	0	20.5036	7.96408e-05
2	1	0	0	0	0	1423.11	0.566286	0.566624	0.191193	15	1.38172	11	0	23.004	0.000108335
2	1	0	0	0	0	1425.62	0.578788	0.5791	0.273478	15	1.38229	11	0	25.5044	0.000158371
2	1	0	1	0	0	1428.12	0.59129	0.591597	0.406349	15	1.38313	11	0	28.005	0.000240395
2	1	0	1	0	0	1430.62	0.603793	0.604151	0.608779	15	1.38438	11	0	30.5054	0.000367794
2	1	0	1	0	0	1433.12	0.616295	0.616608	0.898833	15	1.38625	11	0	33.0058	0.000554228
2	1	0	1	0	0	1435.62	0.628797	0.629102	1.28482	15	1.38896	11	0	35.5062	0.00080828
2	1	0	0	0	0	1438.12	0.641299	0.641527	1.76356	15	1.39276	11	0	38.0068	0.00113137
2	1	0	0	0	0	1440.62	0.653802	0.654085	2.324	15	1.39786	11	0	40.5072	0.00152009
2	1	0	0	0	0	1443.12	0.666304	0.666577	2.95011	15	1.40444	11	0	43.0076	0.00196648
2	1	0	0	0	0	1445.62	0.678806	0.679094	3.63148	15	1.41266	11	0	45.508	0.00246612
2	1	0	0	0	0	1448.12	0.691308	0.691632	4.3617	15	1.42265	11	0	48.0084	0.00301669
2	1	0	1	0	0	1450.42	0.697159	0.697472	4.68824	15	1.43337	11	0	50.307	0.00326992
2	1	0	1	0	0	1452.92	0.684657	0.684977	3.88978	15	1.44408	11	0	52.8074	0.00266441
2	1	0	1	0	0	1455.42	0.672155	0.672425	3.15839	15	1.45287	11	0	55.3078	0.00212378
2	1	0	1	0	0	1457.92	0.659653	0.659954	2.48576	15	1.45991	11	0	57.8082	0.00164049
2	1	0	1	0	0	1460.42	0.64715	0.647475	1.88608	15	1.46536	11	0	60.3086	0.00122119
2	1	0	0	0	0	1462.92	0.634648	0.634928	1.37017	15	1.46941	11	0	62.8092	0.000869957
2	1	0	0	0	0	1465.42	0.622146	0.622458	0.943199	15	1.47228	11	0	65.3096	0.000587102
2	1	0	0	0	0	1467.92	0.609644	0.609957	0.60668	15	1.47419	11	0	67.81	0.000370049
2	1	0	0	0	0	1470.42	0.597141	0.597475	0.357857	15	1.47538	11	0	70.3104	0.00021381
2	1	0	1	0	0	1472.92	0.584639	0.58494	0.185566	15	1.47604	11	0	72.8109	0.000108545
2	1	0	1	0	0	1475.42	0.572137	0.572429	0.0749818	15	1.47636	11	0	75.3114	4.29218e-05
2	1	0	1	0	0	1477.92	0.559635	0.559888	0.00766074	15	1.47646	11	0	77.8118	4.28916e-06
2	0	0	1	0	0	1480.42	0.547132	0.54746	-0.0327113	15	1.47642	11	0	2.0004	-1.79081e-05
2	0	0	1	0	0	1482.92	0.53463	0.534943	-0.058089	15	1.4763	11	0	4.5008	-3.10743e-05
2	0	0	0	0	0	1485.42	0.522128	0.522438	-0.0742133	15	1.47613	11	0	7.0014	-3.87719e-05
2	0	0	0	0	0	1487.92	0.509626	0.509933	-0.0831008	15	1.47594	11	0	9.5018	-4.23758e-05
2	0	0	0	0	0	1490.42	0.497124	0.497401	-0.0880562	15	1.47572	11	0	12.0022	-4.37992e-05
2	0	0	0	0	0	1492.93	0.484621	0.484946	-0.0930536	15	1.47549	11	0	14.5026	-4.5126e-05
2	0	0	1	0	0	1495.43	0.47212	0.472412	-0.0991792	15	1.47525	11	0	17.0031	-4.68535e-05
2	0	0	1	0	0	1497.93	0.459617	0.459936	-0.104133	15	1.475	11	0	19.5036	-4.78946e-05
2	0	0	0	0	0	1499.84	0.44999	0.450257	-0.110667	15	1.4748	11	0	21.422	-4.98287e-05