File: ACS_Catal_2026/Figures_Na_K/main_figures/data/EC/20240126_2-102_Add_Na/20240125_2-102_002_preconditioning_elctrode2_02_PEIS_C02.mpt
EC-Lab ASCII FILE
Nb header lines : 63

Potentio Electrochemical Impedance Spectroscopy

Run on channel : 2 (SN 66414)
User :
CE vs. WE compliance from -10 V to 10 V
Electrode connection : standard
Potential control : Ewe
Ewe ctrl range : min = -1.00 V, max = 1.00 V
Safety Limits :
	Do not start on E overload
Acquisition started on : 01/26/2024 15:49:20.433
Loaded Setting File :  C:\Users\NakamuraT\Documents\EC-Lab\Data\Yatsuzuka\20240126_2-102_Add_Na\20240125_2-102_001_preconditioning_elctrode1.mps
Saved on :
	File : 20240125_2-102_002_preconditioning_elctrode2_02_PEIS_C02.mpr
	Directory : C:\Users\NakamuraT\Documents\EC-Lab\Data\Yatsuzuka\20240126_2-102_Add_Na\
	Host : 192.109.209.100
Device : SP-150e (SN .003411)
Address : 192.109.209.236
EC-Lab for windows v11.50 (software)
Internet server v11.50 (firmware)
Command interpretor v11.50 (firmware)
Electrode material :
Initial state :
Electrolyte :
Comments :
Electrode surface area : 0.001 cm2
Characteristic mass : 0.001 g
Equivalent Weight : 0.000 g/eq.
Density : 0.000 g/cm3
Volume (V) : 0.001 cm3
Cycle Definition : Charge/Discharge alternance
Mode                Single sine
E (V)               0.4000
vs.                 Eoc
tE (h:m:s)          0:00:0.0000
record              0
dI                  0.000
unit dI             mA
dt (s)              0.000
fi                  500.000
unit fi             kHz
ff                  1.000
unit ff             Hz
Nd                  6
Points              per decade
spacing             Logarithmic
Va (mV)             10.0
pw                  0.10
Na                  2
corr                0
E range min (V)     -1.000
E range max (V)     1.000
I Range             Auto
Bandwidth           5
nc cycles           0
goto Ns'            0
nr cycles           0
inc. cycle          0

freq/Hz	Re(Z)/Ohm	-Im(Z)/Ohm	|Z|/Ohm	Phase(Z)/deg	time/s	<Ewe>/V	<I>/mA	Cs/uF	Cp/uF	cycle number	I Range	|Ewe|/V	|I|/A	Ns	(Q-Qo)/mA.h	Re(Y)/Ohm-1	Im(Y)/Ohm-1	|Y|/Ohm-1	Phase(Y)/deg	Re(C)/nF	Im(C)/nF	|C|/nF	Phase(C)/deg	Re(M)	Im(M)	|M|	Phase(M)/deg	Re(Permittivity)	Im(Permittivity)	|Permittivity|	Phase(Permittivity)/deg	Re(Resistivity)/Ohm.cm	Im(Resistivity)/Ohm.cm	|Resistivity|/Ohm.cm	Phase(Resistivity)/deg	Re(Conductivity)/mS/cm	Im(Conductivity)/mS/cm	|Conductivity|/mS/cm	Phase(Conductivity)/deg	Tan(Delta)	Loss Angle(Delta)/deg	dq/mA.h
500019	32.2708	6.22787	32.8663	-10.9231	211.546	0.34323	-0.0153448	0.0511086	0.00183515	1	10	0.0102627	0.000312255	0	-2.04963e-05	0.029875	0.00576551	0.0304263	10.9231	1.83515	9.50917	9.68463	-79.0769	0.0000000E+000	0.0000000E+000	0.0000000E+000	79.0769	0.0000000E+000	0.0000000E+000	0.0000000E+000	-79.0769	0.0000000E+000	0.0000000E+000	0.0000000E+000	-10.9231	0.0000000E+000	0.0000000E+000	0.0000000E+000	10.9231	5.18168	79.0769	-2.04963e-05
339899	20.3675	-3.61717	20.6862	10.0704	211.968	0.343168	-0.00983985	-0.12945	-0.003958	1	10	0.0106157	0.000513176	0	-2.20715e-05	0.0475966	-0.0084529	0.0483413	-10.0704	-3.958	22.2867	22.6354	-100.07	0.0000000E+000	0.0000000E+000	0.0000000E+000	100.07	0.0000000E+000	0.0000000E+000	0.0000000E+000	-100.07	0.0000000E+000	0.0000000E+000	0.0000000E+000	10.0704	0.0000000E+000	0.0000000E+000	0.0000000E+000	-10.0704	5.6308	79.9296	-1.57526e-06
231063	13.8732	-2.92536	14.1783	11.9072	212.39	0.343146	-0.00968118	-0.235457	-0.0100236	1	10	0.0105449	0.000743737	0	-2.17826e-05	0.0690129	-0.0145523	0.0705305	-11.9072	-10.0236	47.5358	48.5811	-101.907	0.0000000E+000	0.0000000E+000	0.0000000E+000	101.907	0.0000000E+000	0.0000000E+000	0.0000000E+000	-101.907	0.0000000E+000	0.0000000E+000	0.0000000E+000	11.9072	0.0000000E+000	0.0000000E+000	0.0000000E+000	-11.9072	4.74239	78.0928	2.88916e-07
157076	11.9595	-1.39722	12.0408	6.66366	212.812	0.343153	-0.00436855	-0.725179	-0.00976487	1	10	0.0108576	0.000901738	0	-2.49537e-05	0.0824899	-0.0096373	0.083051	-6.66366	-9.76487	83.5818	84.1503	-96.6637	0.0000000E+000	0.0000000E+000	0.0000000E+000	96.6637	0.0000000E+000	0.0000000E+000	0.0000000E+000	-96.6637	0.0000000E+000	0.0000000E+000	0.0000000E+000	6.66366	0.0000000E+000	0.0000000E+000	0.0000000E+000	-6.66366	8.55944	83.3363	-3.17107e-06
106786	11.542	-0.628825	11.5592	3.11846	213.234	0.343166	-0.00681019	-2.37015	-0.00701425	1	10	0.0108038	0.000934653	0	-2.34364e-05	0.0863833	-0.00470627	0.0865114	-3.11846	-7.01425	128.746	128.937	-93.1185	0.0000000E+000	0.0000000E+000	0.0000000E+000	93.1185	0.0000000E+000	0.0000000E+000	0.0000000E+000	-93.1185	0.0000000E+000	0.0000000E+000	0.0000000E+000	3.11846	0.0000000E+000	0.0000000E+000	0.0000000E+000	-3.11846	18.355	86.8815	1.51731e-06
72595	11.4681	-0.303671	11.4721	1.51682	213.657	0.343177	-0.00313839	-7.21954	-0.00505858	1	10	0.0106168	0.000925439	0	-2.42758e-05	0.0871372	-0.00230736	0.0871677	-1.51682	-5.05858	191.037	191.104	-91.5168	0.0000000E+000	0.0000000E+000	0.0000000E+000	91.5168	0.0000000E+000	0.0000000E+000	0.0000000E+000	-91.5168	0.0000000E+000	0.0000000E+000	0.0000000E+000	1.51682	0.0000000E+000	0.0000000E+000	0.0000000E+000	-1.51682	37.7649	88.4832	-8.39367e-07
49352.4	11.4545	-0.158178	11.4556	0.791163	214.079	0.343182	-0.00638645	-20.3875	-0.00388708	1	10	0.0105053	0.000917046	0	-2.51479e-05	0.0872852	-0.00120535	0.0872936	-0.791163	-3.88707	281.484	281.51	-90.7912	0.0000000E+000	0.0000000E+000	0.0000000E+000	90.7912	0.0000000E+000	0.0000000E+000	0.0000000E+000	-90.7912	0.0000000E+000	0.0000000E+000	0.0000000E+000	0.791163	0.0000000E+000	0.0000000E+000	0.0000000E+000	-0.791163	72.4151	89.2088	-8.72117e-07
33551.1	11.46	-0.100505	11.4605	0.502473	214.501	0.343177	-0.00295732	-47.1983	-0.00362991	1	10	0.0104528	0.00091207	0	-2.66819e-05	0.0872531	-0.000765212	0.0872564	-0.502473	-3.6299	413.899	413.915	-90.5025	0.0000000E+000	0.0000000E+000	0.0000000E+000	90.5025	0.0000000E+000	0.0000000E+000	0.0000000E+000	-90.5025	0.0000000E+000	0.0000000E+000	0.0000000E+000	0.502473	0.0000000E+000	0.0000000E+000	0.0000000E+000	-0.502473	114.025	89.4975	-1.53402e-06
22806.6	11.459	-0.0527958	11.4591	0.263982	214.923	0.343173	-0.0056323	-132.178	-0.00280582	1	10	0.0103005	0.000898898	0	-2.67978e-05	0.0872661	-0.000402068	0.087267	-0.263982	-2.80585	608.984	608.99	-90.264	0.0000000E+000	0.0000000E+000	0.0000000E+000	90.264	0.0000000E+000	0.0000000E+000	0.0000000E+000	-90.264	0.0000000E+000	0.0000000E+000	0.0000000E+000	0.263982	0.0000000E+000	0.0000000E+000	0.0000000E+000	-0.263982	217.043	89.736	-1.15936e-07
15504.4	11.451	-0.0349875	11.4511	0.175061	215.345	0.343182	-0.00283412	-293.395	-0.00273896	1	10	0.0102459	0.000894757	0	-2.78254e-05	0.0873275	-0.000266821	0.087328	-0.175061	-2.739	896.431	896.435	-90.1751	0.0000000E+000	0.0000000E+000	0.0000000E+000	90.1751	0.0000000E+000	0.0000000E+000	0.0000000E+000	-90.1751	0.0000000E+000	0.0000000E+000	0.0000000E+000	0.175061	0.0000000E+000	0.0000000E+000	0.0000000E+000	-0.175061	327.289	89.8249	-1.02752e-06
10540.4	11.4632	-0.0105263	11.4632	0.0526129	215.767	0.343179	-0.00448988	-1434.46	-0.00120956	1	10	0.0101496	0.000885406	0	-2.8275e-05	0.0872359	-8.0106e-05	0.0872359	-0.0526129	-1.20955	1317.22	1317.22	-90.0526	0.0000000E+000	0.0000000E+000	0.0000000E+000	90.0526	0.0000000E+000	0.0000000E+000	0.0000000E+000	-90.0526	0.0000000E+000	0.0000000E+000	0.0000000E+000	0.0526129	0.0000000E+000	0.0000000E+000	0.0000000E+000	-0.0526129	1089.01	89.9474	-4.49669e-07
7163.78	11.4648	-0.00884008	11.4648	0.0441785	216.123	0.343159	-0.00613818	-2513.17	-0.00149416	1	10	0.010853	0.000946637	0	-2.9593e-05	0.0872232	-6.72544e-05	0.0872233	-0.0441785	-1.49428	1937.8	1937.81	-90.0442	0.0000000E+000	0.0000000E+000	0.0000000E+000	90.0442	0.0000000E+000	0.0000000E+000	0.0000000E+000	-90.0442	0.0000000E+000	0.0000000E+000	0.0000000E+000	0.0441785	0.0000000E+000	0.0000000E+000	0.0000000E+000	-0.0441785	1296.91	89.9558	-1.31796e-06
4871.56	11.4728	0.00145485	11.4728	-0.00726561	216.813	0.343197	-0.00253732	22456.1	0.000361105	1	10	0.0101764	0.000887004	0	-2.91575e-05	0.0871629	1.1053e-05	0.0871629	0.00726561	0.360984	2847.63	2847.63	-89.9927	0.0000000E+000	0.0000000E+000	0.0000000E+000	89.9927	0.0000000E+000	0.0000000E+000	0.0000000E+000	-89.9927	0.0000000E+000	0.0000000E+000	0.0000000E+000	-0.00726561	0.0000000E+000	0.0000000E+000	0.0000000E+000	0.00726561	7885.88	89.9927	4.35457e-07
3311.06	11.4761	0.000794161	11.4761	-0.00396492	217.279	0.343194	-0.00244771	60526.4	0.000289847	1	10	0.0103548	0.000902288	0	-2.91626e-05	0.0871373	6.02998e-06	0.0871373	0.00396492	0.29002	4188.49	4188.49	-89.996	0.0000000E+000	0.0000000E+000	0.0000000E+000	89.996	0.0000000E+000	0.0000000E+000	0.0000000E+000	-89.996	0.0000000E+000	0.0000000E+000	0.0000000E+000	-0.00396492	0.0000000E+000	0.0000000E+000	0.0000000E+000	0.00396492	14450.7	89.996	-5.12529e-09
2250.72	11.4628	0.00589087	11.4628	-0.0294449	217.744	0.343201	-0.00282105	12003.8	0.00317026	1	10	0.0104272	0.00090965	0	-3.02634e-05	0.0872385	4.48329e-05	0.0872385	0.0294449	3.16993	6168.89	6168.89	-89.9706	0.0000000E+000	0.0000000E+000	0.0000000E+000	89.9706	0.0000000E+000	0.0000000E+000	0.0000000E+000	-89.9706	0.0000000E+000	0.0000000E+000	0.0000000E+000	-0.0294449	0.0000000E+000	0.0000000E+000	0.0000000E+000	0.0294449	1945.86	89.9706	-1.10072e-06
1530.49	11.4545	0.0181789	11.4546	-0.0909312	218.209	0.343195	-0.00202024	5720.34	0.0144079	1	10	0.0104638	0.000913507	0	-3.13574e-05	0.0873014	0.000138552	0.0873015	0.0909312	14.4085	9078.43	9078.44	-89.9091	0.0000000E+000	0.0000000E+000	0.0000000E+000	89.9091	0.0000000E+000	0.0000000E+000	0.0000000E+000	-89.9091	0.0000000E+000	0.0000000E+000	0.0000000E+000	-0.0909312	0.0000000E+000	0.0000000E+000	0.0000000E+000	0.0909312	630.1	89.9091	-1.094e-06
1040.33	11.4535	0.0353877	11.4536	-0.177025	218.674	0.343195	-0.00226104	4323.1	0.0412685	1	10	0.010482	0.000915173	0	-3.09846e-05	0.0873086	0.000269756	0.087309	0.177025	41.2684	13356.9	13356.9	-89.823	0.0000000E+000	0.0000000E+000	0.0000000E+000	89.823	0.0000000E+000	0.0000000E+000	0.0000000E+000	-89.823	0.0000000E+000	0.0000000E+000	0.0000000E+000	-0.177025	0.0000000E+000	0.0000000E+000	0.0000000E+000	0.177025	323.658	89.823	3.72748e-07
707.036	11.4693	0.0396183	11.4694	-0.197915	219.139	0.343189	-0.00209304	5681.76	0.0677943	1	10	0.0105021	0.000915662	0	-3.19056e-05	0.087188	0.000301172	0.0871886	0.197915	67.794	19626.2	19626.3	-89.8021	0.0000000E+000	0.0000000E+000	0.0000000E+000	89.8021	0.0000000E+000	0.0000000E+000	0.0000000E+000	-89.8021	0.0000000E+000	0.0000000E+000	0.0000000E+000	-0.197915	0.0000000E+000	0.0000000E+000	0.0000000E+000	0.197915	289.496	89.8021	-9.20949e-07
480.769	11.4541	0.0288704	11.4541	-0.144416	219.604	0.343196	-0.00252052	11466.5	0.0728475	1	10	0.010483	0.000915218	0	-3.27495e-05	0.0873048	0.000220055	0.0873051	0.144416	72.848	28901.6	28901.7	-89.8556	0.0000000E+000	0.0000000E+000	0.0000000E+000	89.8556	0.0000000E+000	0.0000000E+000	0.0000000E+000	-89.8556	0.0000000E+000	0.0000000E+000	0.0000000E+000	-0.144416	0.0000000E+000	0.0000000E+000	0.0000000E+000	0.144416	396.741	89.8556	-8.43966e-07
326.778	11.4897	0.0801055	11.49	-0.399457	220.067	0.343192	-0.00290319	6080.02	0.295524	1	10	0.01052	0.000915577	0	-3.3498e-05	0.0870303	0.000606771	0.0870324	0.399457	295.526	42387.5	42388.6	-89.6005	0.0000000E+000	0.0000000E+000	0.0000000E+000	89.6005	0.0000000E+000	0.0000000E+000	0.0000000E+000	-89.6005	0.0000000E+000	0.0000000E+000	0.0000000E+000	-0.399457	0.0000000E+000	0.0000000E+000	0.0000000E+000	0.399457	143.432	89.6005	-7.48421e-07
222.061	11.4887	0.0964094	11.4891	-0.480797	220.528	0.343193	-0.00256905	7434.11	0.523477	1	10	0.0105122	0.00091497	0	-3.33664e-05	0.0870362	0.000730381	0.0870392	0.480797	523.477	62380.4	62382.6	-89.5192	0.0000000E+000	0.0000000E+000	0.0000000E+000	89.5192	0.0000000E+000	0.0000000E+000	0.0000000E+000	-89.5192	0.0000000E+000	0.0000000E+000	0.0000000E+000	-0.480797	0.0000000E+000	0.0000000E+000	0.0000000E+000	0.480797	119.165	89.5192	1.31537e-07
151.015	11.5057	0.135748	11.5065	-0.675965	220.99	0.343189	-0.00207064	7763.67	1.08056	1	10	0.0105136	0.000913715	0	-3.37624e-05	0.0869016	0.0010253	0.0869077	0.675965	1080.56	91585.9	91592.2	-89.324	0.0000000E+000	0.0000000E+000	0.0000000E+000	89.324	0.0000000E+000	0.0000000E+000	0.0000000E+000	-89.324	0.0000000E+000	0.0000000E+000	0.0000000E+000	-0.675965	0.0000000E+000	0.0000000E+000	0.0000000E+000	0.675965	84.7575	89.324	-3.95975e-07
102.667	11.5155	0.183995	11.517	-0.915397	221.465	0.343193	-0.000924488	8425.21	2.15039	1	10	0.0105103	0.000912595	0	-3.34156e-05	0.0868173	0.00138717	0.0868283	0.915397	2150.39	134584	134601	-89.0846	0.0000000E+000	0.0000000E+000	0.0000000E+000	89.0846	0.0000000E+000	0.0000000E+000	0.0000000E+000	-89.0846	0.0000000E+000	0.0000000E+000	0.0000000E+000	-0.915397	0.0000000E+000	0.0000000E+000	0.0000000E+000	0.915397	62.5858	89.0846	3.4679e-07
69.7545	11.5412	0.244946	11.5438	-1.21585	221.933	0.343196	-0.00246451	9314.88	4.19395	1	10	0.0105164	0.000911	0	-3.3196e-05	0.0866073	0.00183813	0.0866268	1.21585	4193.95	197607	197652	-88.7842	0.0000000E+000	0.0000000E+000	0.0000000E+000	88.7842	0.0000000E+000	0.0000000E+000	0.0000000E+000	-88.7842	0.0000000E+000	0.0000000E+000	0.0000000E+000	-1.21585	0.0000000E+000	0.0000000E+000	0.0000000E+000	1.21585	47.1172	88.7842	2.1966e-07
47.4443	11.5812	0.330777	11.5859	-1.63601	222.377	0.343188	-0.0033512	10141.5	8.2663	1	10	0.0105173	0.000907767	0	-3.27606e-05	0.0862766	0.0024642	0.0863118	1.63601	8266.32	289420	289538	-88.364	0.0000000E+000	0.0000000E+000	0.0000000E+000	88.364	0.0000000E+000	0.0000000E+000	0.0000000E+000	-88.364	0.0000000E+000	0.0000000E+000	0.0000000E+000	-1.63601	0.0000000E+000	0.0000000E+000	0.0000000E+000	1.63601	35.012	88.364	4.35329e-07
32.2387	11.5964	0.439132	11.6047	-2.16864	222.814	0.343176	-0.00520669	11242.1	16.0979	1	10	0.0105108	0.000905739	0	-3.39303e-05	0.0861102	0.00326082	0.0861719	2.16864	16097.9	425106	425411	-87.8314	0.0000000E+000	0.0000000E+000	0.0000000E+000	87.8314	0.0000000E+000	0.0000000E+000	0.0000000E+000	-87.8314	0.0000000E+000	0.0000000E+000	0.0000000E+000	-2.16864	0.0000000E+000	0.0000000E+000	0.0000000E+000	2.16864	26.4075	87.8314	-1.16967e-06
21.9144	11.6316	0.598173	11.647	-2.94392	223.245	0.343175	-0.00462428	12141.2	32.0249	1	10	0.0105151	0.000902817	0	-3.24133e-05	0.0857457	0.00440959	0.085859	2.94392	32024.9	622733	623556	-87.0561	0.0000000E+000	0.0000000E+000	0.0000000E+000	87.0561	0.0000000E+000	0.0000000E+000	0.0000000E+000	-87.0561	0.0000000E+000	0.0000000E+000	0.0000000E+000	-2.94392	0.0000000E+000	0.0000000E+000	0.0000000E+000	2.94392	19.4453	87.0561	1.51702e-06
14.9093	11.6174	0.708682	11.639	-3.4908	223.714	0.343199	-0.00107196	15063	55.8442	1	10	0.0105148	0.00090341	0	-3.13877e-05	0.0857583	0.00523138	0.0859177	3.4908	55844.1	915456	917158	-86.5092	0.0000000E+000	0.0000000E+000	0.0000000E+000	86.5092	0.0000000E+000	0.0000000E+000	0.0000000E+000	-86.5092	0.0000000E+000	0.0000000E+000	0.0000000E+000	-3.4908	0.0000000E+000	0.0000000E+000	0.0000000E+000	3.4908	16.393	86.5092	1.02556e-06
10.1329	11.7341	1.15907	11.7912	-5.64129	224.174	0.343187	-0.000420479	13551.1	130.943	1	10	0.0105293	0.000892978	0	-3.25973e-05	0.0843984	0.00833675	0.0848091	5.64129	130943	1.32562e+06	1.33207e+06	-84.3587	0.0000000E+000	0.0000000E+000	0.0000000E+000	84.3587	0.0000000E+000	0.0000000E+000	0.0000000E+000	-84.3587	0.0000000E+000	0.0000000E+000	0.0000000E+000	-5.64129	0.0000000E+000	0.0000000E+000	0.0000000E+000	5.64129	10.1237	84.3587	-1.20958e-06
6.88933	11.8181	1.61601	11.9281	-7.78631	224.727	0.343169	-0.000393379	14295.5	262.387	1	11	0.0105226	0.000882166	0	-3.19116e-05	0.0830626	0.0113579	0.0838355	7.78631	262387	1.91888e+06	1.93674e+06	-82.2137	0.0000000E+000	0.0000000E+000	0.0000000E+000	82.2137	0.0000000E+000	0.0000000E+000	0.0000000E+000	-82.2137	0.0000000E+000	0.0000000E+000	0.0000000E+000	-7.78631	0.0000000E+000	0.0000000E+000	0.0000000E+000	7.78631	7.31318	82.2137	6.85674e-07
4.68375	11.9043	2.29328	12.1232	-10.904	225.224	0.343191	-0.000571499	14817.3	530.208	1	11	0.010524	0.000868087	0	-2.1561e-05	0.080997	0.0156034	0.0824863	10.904	530208	2.7523e+06	2.8029e+06	-79.096	0.0000000E+000	0.0000000E+000	0.0000000E+000	79.096	0.0000000E+000	0.0000000E+000	0.0000000E+000	-79.096	0.0000000E+000	0.0000000E+000	0.0000000E+000	-10.904	0.0000000E+000	0.0000000E+000	0.0000000E+000	10.904	5.19097	79.096	1.03506e-05
3.18099	12.1062	3.32502	12.5545	-15.3578	225.926	0.343188	0.00532265	15047.5	1055.49	1	11	0.0105385	0.000839422	0	-2.89067e-05	0.0768082	0.0210957	0.0796526	15.3578	1.05549e+06	3.84296e+06	3.98528e+06	-74.6422	0.0000000E+000	0.0000000E+000	0.0000000E+000	74.6422	0.0000000E+000	0.0000000E+000	0.0000000E+000	-74.6422	0.0000000E+000	0.0000000E+000	0.0000000E+000	-15.3578	0.0000000E+000	0.0000000E+000	0.0000000E+000	15.3578	3.64094	74.6422	-7.34566e-06
2.16533	12.2574	4.53793	13.0704	-20.3156	226.937	0.3432	-8.1858e-05	16197.2	1952.43	1	11	0.0105352	0.000806035	0	-4.30095e-05	0.0717495	0.0265631	0.0765087	20.3156	1.95243e+06	5.2737e+06	5.62351e+06	-69.6844	0.0000000E+000	0.0000000E+000	0.0000000E+000	69.6844	0.0000000E+000	0.0000000E+000	0.0000000E+000	-69.6844	0.0000000E+000	0.0000000E+000	0.0000000E+000	-20.3156	0.0000000E+000	0.0000000E+000	0.0000000E+000	20.3156	2.70109	69.6844	-1.41028e-05
1.46962	12.535	6.64592	14.1878	-27.9321	228.407	0.343199	-0.000151239	16295.2	3575.53	1	11	0.0105378	0.000742738	0	-4.02018e-05	0.0622721	0.0330161	0.0704831	27.9321	3.57553e+06	6.74385e+06	7.63309e+06	-62.0679	0.0000000E+000	0.0000000E+000	0.0000000E+000	62.0679	0.0000000E+000	0.0000000E+000	0.0000000E+000	-62.0679	0.0000000E+000	0.0000000E+000	0.0000000E+000	-27.9321	0.0000000E+000	0.0000000E+000	0.0000000E+000	27.9321	1.88611	62.0679	2.8077e-06
1.00006	12.5514	9.32013	15.6334	-36.5959	230.547	0.343199	0.00119924	17075.4	6068.87	1	11	0.0105384	0.000674097	0	-1.5332e-05	0.0513554	0.0381343	0.0639656	36.5959	6.06887e+06	8.17295e+06	1.01798e+07	-53.4041	0.0000000E+000	0.0000000E+000	0.0000000E+000	53.4041	0.0000000E+000	0.0000000E+000	0.0000000E+000	-53.4041	0.0000000E+000	0.0000000E+000	0.0000000E+000	-36.5959	0.0000000E+000	0.0000000E+000	0.0000000E+000	36.5959	1.3467	53.4041	2.48698e-05