File: ACS_Catal_2026/Figures_Na_K/main_figures/data/EC/20240126_2-102_Add_Na/20240201_2-102_017_add_Cs_5mL_elctrode5_C01.mpt
EC-Lab ASCII FILE
Nb header lines : 66

Cyclic Voltammetry Advanced

Run on channel : 1 (SN 66412)
User :
CE vs. WE compliance from -10 V to 10 V
Electrode connection : standard
Potential control : Ewe
Ewe ctrl range : min = -1.00 V, max = 1.00 V
Safety Limits :
	Do not start on E overload
Acquisition started on : 02/01/2024 15:18:58.671
Loaded Setting File :  C:\Users\NakamuraT\Documents\EC-Lab\Data\Yatsuzuka\20240126_2-102_Add_Na\20240201_2-102_006_K_elctrode6.mps
Saved on :
	File : 20240201_2-102_017_add_Cs_5mL_elctrode5_C01.mpr
	Directory : C:\Users\NakamuraT\Documents\EC-Lab\Data\Yatsuzuka\20240126_2-102_Add_Na\
	Host : 192.109.209.100
Device : SP-150e (SN .003411)
Address : 192.109.209.236
EC-Lab for windows v11.50 (software)
Internet server v11.50 (firmware)
Command interpretor v11.50 (firmware)
Electrode material :
Initial state :
Electrolyte :
Comments :
Electrode surface area : 0.001 cm2
Characteristic mass : 0.001 g
Equivalent Weight : 0.000 g/eq.
Density : 0.000 g/cm3
Volume (V) : 0.001 cm3
Cycle Definition : Charge/Discharge alternance
Ei (V)              0.450
vs.                 Ref
ti (h:m:s)          0:00:10.0000
dti (s)             0.0000
dE/dt               5.000
dE/dt unit          mV/s
E1 (V)              0.700
vs.                 Ref
t1 (h:m:s)          0:00:0.0000
dt1 (s)             0.1000
Step percent        50
N                   10
E range min (V)     -1.000
E range max (V)     1.000
I Range             10 mA
I Range min         Unset
I Range max         Unset
I Range init        Unset
Bandwidth           5
E2 (V)              0.450
vs.                 Ref
t2 (h:m:s)          0:00:0.0000
dt2 (s)             0.1000
nc cycles           14
nr                  1
Reverse Scan        0
Ef (V)              0.000
vs.                 Eoc
tf (h:m:s)          0:00:0.0000
dtf (s)             0.1000

mode	ox/red	error	control changes	Ns changes	counter inc.	time/s	control/V	Ewe/V	<I>/mA	cycle number	(Q-Qo)/C	I Range	Ns	step time/s	P/W
2	0	0	1	0	0	0.000000000000000E+000	0.450019	0.450308	-0.000963372	1	0.0000000E+000	11	0	0.000000000000000E+000	-4.33814e-07
2	1	0	1	0	0	2.4554	0.462296	0.462636	0.0692313	1	0.000147866	11	0	2.4004	3.20289e-05
2	1	0	1	0	0	4.9558	0.474798	0.475119	0.0753787	1	0.000326106	11	0	4.9008	3.58139e-05
2	1	0	1	0	0	7.4562	0.487301	0.487611	0.0914776	1	0.000536269	11	0	7.4012	4.46054e-05
2	1	0	1	0	0	9.9566	0.499803	0.500081	0.124074	1	0.000801456	11	0	9.9016	6.20471e-05
2	1	0	0	0	0	12.4572	0.512305	0.512615	0.172002	1	0.00116323	11	0	12.4022	8.81708e-05
2	1	0	0	0	0	14.9576	0.524807	0.525101	0.254559	1	0.00169076	11	0	14.9026	0.000133669
2	1	0	0	0	0	17.458	0.53731	0.537659	0.394491	1	0.00249204	11	0	17.403	0.000212102
2	1	0	0	0	0	19.9584	0.549812	0.550095	0.603503	1	0.00372119	11	0	19.9034	0.000331984
2	1	0	1	0	0	22.4589	0.562314	0.562622	0.893892	1	0.0055763	11	0	22.4039	0.000502923
2	1	0	1	0	0	24.9594	0.574816	0.575172	1.27801	1	0.00827912	11	0	24.9044	0.000735075
2	1	0	1	0	0	27.4598	0.587318	0.587645	1.7492	1	0.0120485	11	0	27.4048	0.00102791
2	1	0	1	0	0	29.9602	0.599821	0.600157	2.28772	1	0.017082	11	0	29.9052	0.00137299
2	1	0	1	0	0	32.4606	0.612323	0.612675	2.88776	1	0.0235472	11	0	32.4056	0.00176926
2	1	0	0	0	0	34.9612	0.624825	0.625169	3.54029	1	0.0315793	11	0	34.9062	0.00221328
2	1	0	0	0	0	37.4616	0.637327	0.637641	4.22516	1	0.0412817	11	0	37.4066	0.00269413
2	1	0	0	0	0	39.962	0.64983	0.650114	4.9372	1	0.0527367	11	0	39.907	0.00320975
2	1	0	0	0	0	42.4624	0.662332	0.662643	5.67748	1	0.0660078	11	0	42.4074	0.00376214
2	1	0	1	0	0	44.963	0.674834	0.675186	6.43098	1	0.0811445	11	0	44.908	0.00434211
2	1	0	1	0	0	47.4634	0.687336	0.687704	7.19168	1	0.0981777	11	0	47.4084	0.00494575
2	1	0	1	0	0	49.9538	0.699788	0.70011	7.96414	1	0.117052	11	0	49.8988	0.00557578
2	1	0	0	0	0	52.2564	0.688686	0.688984	7.15072	1	0.134466	11	0	52.2014	0.00492673
2	1	0	0	0	0	54.7568	0.676184	0.676471	6.30083	1	0.151269	11	0	54.7018	0.00426233
2	1	0	0	0	0	57.2572	0.663682	0.664026	5.49042	1	0.165995	11	0	57.2022	0.00364578
2	1	0	1	0	0	59.7578	0.65118	0.651498	4.71705	1	0.178749	11	0	59.7028	0.00307315
2	1	0	1	0	0	62.2582	0.638678	0.638976	3.98557	1	0.189619	11	0	62.2032	0.00254669
2	1	0	1	0	0	64.7586	0.626175	0.626476	3.29017	1	0.198699	11	0	64.7036	0.00206121
2	1	0	1	0	0	67.259	0.613673	0.613978	2.64245	1	0.206104	11	0	67.204	0.0016224
2	1	0	0	0	0	69.7596	0.601171	0.601499	2.05785	1	0.211967	11	0	69.7046	0.00123779
2	1	0	0	0	0	72.26	0.588669	0.588986	1.54034	1	0.216445	11	0	72.205	0.000907242
2	1	0	0	0	0	74.7604	0.576166	0.576478	1.09409	1	0.219719	11	0	74.7054	0.00063072
2	1	0	0	0	0	77.2608	0.563664	0.563976	0.735232	1	0.22199	11	0	77.2058	0.000414653
2	1	0	1	0	0	79.7613	0.551162	0.551459	0.465344	1	0.223471	11	0	79.7063	0.000256618
2	1	0	1	0	0	82.2618	0.53866	0.538979	0.26864	1	0.22437	11	0	82.2068	0.000144791
2	1	0	1	0	0	84.7622	0.526158	0.526512	0.138331	1	0.224869	11	0	84.7072	7.28328e-05
2	1	0	1	0	0	87.2626	0.513655	0.514038	0.0610446	1	0.22511	11	0	87.2076	3.13792e-05
2	1	0	1	0	0	89.763	0.501153	0.501478	0.0118032	1	0.225192	11	0	89.708	5.91903e-06
2	0	0	0	0	0	92.2636	0.488651	0.489002	-0.0208387	1	0.225178	11	0	1.7004	-1.01902e-05
2	0	0	0	0	0	94.764	0.476149	0.476491	-0.0367972	1	0.225106	11	0	4.2008	-1.75335e-05
2	0	0	0	0	0	97.2644	0.463647	0.463978	-0.0450136	1	0.225	11	0	6.7012	-2.08853e-05
2	0	0	0	0	0	99.7648	0.451144	0.451466	-0.0546218	1	0.224873	11	0	9.2016	-2.46599e-05
2	1	0	0	0	1	102.144	0.460796	0.461087	0.0580491	2	0.224964	11	0	2.0002	2.67657e-05
2	1	0	1	0	1	104.645	0.473298	0.47362	0.0711142	2	0.225124	11	0	4.5008	3.36811e-05
2	1	0	1	0	1	107.145	0.4858	0.486115	0.0823819	2	0.225312	11	0	7.0012	4.0047e-05
2	1	0	1	0	1	109.646	0.498303	0.498681	0.104376	2	0.225546	11	0	9.5016	5.20503e-05
2	1	0	1	0	1	112.146	0.510805	0.511108	0.149375	2	0.22586	11	0	12.002	7.63466e-05
2	1	0	0	0	1	114.647	0.523307	0.523563	0.21925	2	0.226311	11	0	14.5026	0.000114791
2	1	0	0	0	1	117.147	0.535809	0.536147	0.333487	2	0.226993	11	0	17.003	0.000178798
2	1	0	0	0	1	119.647	0.548312	0.548587	0.519795	2	0.228047	11	0	19.5034	0.000285153
2	1	0	0	0	1	122.148	0.560814	0.561147	0.784505	2	0.229658	11	0	22.0038	0.000440223
2	1	0	0	0	1	124.648	0.573316	0.573606	1.1376	2	0.232046	11	0	24.5042	0.000652536
2	1	0	1	0	1	127.149	0.585818	0.586113	1.58398	2	0.235435	11	0	27.0048	0.000928389
2	1	0	1	0	1	129.649	0.59832	0.59861	2.10569	2	0.240032	11	0	29.5052	0.00126048
2	1	0	1	0	1	132.15	0.610823	0.611126	2.68748	2	0.246016	11	0	32.0056	0.00164238
2	1	0	1	0	1	134.65	0.623325	0.623638	3.32837	2	0.253532	11	0	34.506	0.0020757
2	1	0	0	0	1	137.151	0.635827	0.636172	4.00678	2	0.262696	11	0	37.0066	0.002549
2	1	0	0	0	1	139.651	0.648329	0.648646	4.70992	2	0.273592	11	0	39.507	0.00305507
2	1	0	0	0	1	142.151	0.660832	0.661147	5.44226	2	0.286286	11	0	42.0074	0.00359813
2	1	0	0	0	1	144.652	0.673334	0.673656	6.19129	2	0.300828	11	0	44.5078	0.0041708
2	1	0	1	0	1	147.152	0.685836	0.68612	6.94813	2	0.317257	11	0	47.0083	0.00476725
2	1	0	1	0	1	149.653	0.698338	0.698679	7.72131	2	0.3356	11	0	49.5088	0.00539472
2	1	0	0	0	1	151.945	0.690187	0.690497	7.11486	2	0.352809	11	0	51.8014	0.00491279
2	1	0	0	0	1	154.446	0.677685	0.677998	6.27034	2	0.36953	11	0	54.3018	0.00425128
2	1	0	0	0	1	156.946	0.665182	0.665511	5.4535	2	0.384174	11	0	56.8022	0.00362936
2	1	0	0	0	1	159.447	0.65268	0.653004	4.69477	2	0.39685	11	0	59.3026	0.00306571
2	1	0	1	0	1	161.947	0.640178	0.640468	3.96989	2	0.407672	11	0	61.8032	0.00254259
2	1	0	1	0	1	164.448	0.627676	0.627948	3.2831	2	0.41672	11	0	64.3036	0.00206162
2	1	0	1	0	1	166.948	0.615173	0.615501	2.64193	2	0.424118	11	0	66.804	0.00162611
2	1	0	1	0	1	169.448	0.602671	0.602991	2.05825	2	0.429977	11	0	69.3044	0.00124111
2	1	0	1	0	1	171.949	0.590169	0.59046	1.539	2	0.434455	11	0	71.8049	0.000908716
2	1	0	0	0	1	174.449	0.577667	0.578023	1.09221	2	0.437727	11	0	74.3054	0.000631321
2	1	0	0	0	1	176.95	0.565165	0.565453	0.735126	2	0.439993	11	0	76.8058	0.000415679
2	1	0	0	0	1	179.45	0.552662	0.552959	0.463885	2	0.44147	11	0	79.3062	0.00025651
2	1	0	1	0	1	181.951	0.54016	0.540484	0.26639	2	0.442366	11	0	81.8067	0.000143979
2	1	0	1	0	1	184.451	0.527658	0.527987	0.138546	2	0.442863	11	0	84.3072	7.31506e-05
2	1	0	1	0	1	186.952	0.515156	0.515464	0.0616155	2	0.443103	11	0	86.8076	3.17605e-05
2	1	0	1	0	1	189.452	0.502653	0.502975	0.0103698	2	0.443185	11	0	89.308	5.21576e-06
2	0	0	1	0	1	191.952	0.490151	0.490456	-0.0203847	2	0.443172	11	0	1.7002	-9.9978e-06
2	0	0	0	0	1	194.453	0.477649	0.477974	-0.0340333	2	0.443101	11	0	4.2008	-1.62671e-05
2	0	0	0	0	1	196.953	0.465147	0.465461	-0.0471505	2	0.442996	11	0	6.7012	-2.19467e-05
2	0	0	0	0	1	199.454	0.452645	0.452964	-0.0553535	2	0.44287	11	0	9.2016	-2.50731e-05
2	1	0	0	0	0	201.833	0.459296	0.459596	0.0589053	3	0.442926	11	0	1.7002	2.70727e-05
2	1	0	0	0	0	204.334	0.471798	0.47207	0.064096	3	0.44308	11	0	4.2006	3.02578e-05
2	1	0	1	0	0	206.834	0.4843	0.484606	0.0796705	3	0.443261	11	0	6.7012	3.86088e-05
2	1	0	1	0	0	209.335	0.496802	0.497132	0.100617	3	0.443483	11	0	9.2016	5.00198e-05
2	1	0	1	0	0	211.835	0.509305	0.509639	0.134787	3	0.443775	11	0	11.702	6.86927e-05
2	1	0	1	0	0	214.335	0.521807	0.522108	0.202273	3	0.44419	11	0	14.2024	0.000105608
2	1	0	1	0	0	216.836	0.534309	0.534614	0.305335	3	0.444812	11	0	16.7029	0.000163236
2	1	0	0	0	0	219.336	0.546811	0.547131	0.472596	3	0.445772	11	0	19.2034	0.000258572
2	1	0	0	0	0	221.837	0.559313	0.559625	0.72442	3	0.447251	11	0	21.7038	0.000405403
2	1	0	0	0	0	224.337	0.571816	0.572101	1.05772	3	0.449461	11	0	24.2042	0.000605125
2	1	0	0	0	0	226.838	0.584318	0.584659	1.48275	3	0.452625	11	0	26.7046	0.000866904
2	1	0	1	0	0	229.338	0.59682	0.597133	1.99711	3	0.45696	11	0	29.2052	0.00119254
2	1	0	1	0	0	231.839	0.609322	0.609637	2.56839	3	0.462657	11	0	31.7056	0.00156578
2	1	0	1	0	0	234.339	0.621825	0.622098	3.19886	3	0.469863	11	0	34.206	0.00199
2	1	0	1	0	0	236.839	0.634327	0.634625	3.86772	3	0.478689	11	0	36.7064	0.00245455
2	1	0	0	0	0	239.34	0.646829	0.647136	4.57157	3	0.489239	11	0	39.207	0.00295843
2	1	0	0	0	0	241.84	0.659331	0.659637	5.30051	3	0.501581	11	0	41.7074	0.00349641
2	1	0	0	0	0	244.341	0.671834	0.672179	6.05858	3	0.515779	11	0	44.2078	0.00407245
2	1	0	0	0	0	246.841	0.684336	0.68463	6.82627	3	0.531896	11	0	46.7082	0.00467347
2	1	0	1	0	0	249.342	0.696838	0.697137	7.60174	3	0.549936	11	0	49.2087	0.00529945
2	1	0	1	0	0	251.634	0.691687	0.692021	7.20704	3	0.567251	11	0	51.5013	0.00498743
2	1	0	0	0	0	254.135	0.679185	0.679509	6.35346	3	0.584192	11	0	54.0018	0.00431723
2	1	0	0	0	0	256.635	0.666683	0.666941	5.5516	3	0.599054	11	0	56.5022	0.00370259
2	1	0	0	0	0	259.136	0.65418	0.654494	4.78447	3	0.611968	11	0	59.0026	0.0031314
2	1	0	0	0	0	261.636	0.641678	0.64199	4.058	3	0.623009	11	0	61.503	0.00260519
2	1	0	1	0	0	264.137	0.629176	0.629478	3.36318	3	0.632278	11	0	64.0036	0.00211705
2	1	0	1	0	0	266.637	0.616674	0.616971	2.74703	3	0.639895	11	0	66.504	0.00169484
2	1	0	1	0	0	269.137	0.604171	0.604439	2.14866	3	0.646006	11	0	69.0044	0.00129873
2	1	0	1	0	0	271.638	0.591669	0.591963	1.61581	3	0.650696	11	0	71.5048	0.000956499
2	1	0	1	0	0	274.138	0.579167	0.579472	1.17019	3	0.654156	11	0	74.0053	0.00067809
2	1	0	0	0	0	276.639	0.566665	0.566939	0.804554	3	0.656605	11	0	76.5058	0.000456133
2	1	0	0	0	0	279.139	0.554163	0.554489	0.519145	3	0.65824	11	0	79.0062	0.00028786
2	1	0	0	0	0	281.64	0.54166	0.541951	0.306218	3	0.659255	11	0	81.5066	0.000165955
2	1	0	0	0	0	284.14	0.529158	0.529472	0.168101	3	0.659834	11	0	84.007	8.90046e-05
2	1	0	1	0	0	286.641	0.516656	0.517014	0.073956	3	0.660128	11	0	86.5076	3.82363e-05
2	1	0	1	0	0	289.141	0.504154	0.504483	0.0227463	3	0.660242	11	0	89.008	1.14751e-05
2	0	0	1	0	0	291.641	0.491651	0.49194	-0.0147415	3	0.660248	11	0	1.0002	-7.25192e-06
2	0	0	1	0	0	294.142	0.479149	0.479476	-0.0300174	3	0.66019	11	0	3.5006	-1.43926e-05
2	0	0	1	0	0	296.642	0.466647	0.46692	-0.0465803	3	0.660092	11	0	6.0011	-2.17493e-05
2	0	0	0	0	0	299.143	0.454145	0.454484	-0.0500454	3	0.659971	11	0	8.5016	-2.27448e-05
2	1	0	0	0	1	301.522	0.457795	0.458149	0.0544341	4	0.659996	11	0	1.4002	2.49389e-05
2	1	0	0	0	1	304.023	0.470298	0.470644	0.0686046	4	0.66015	11	0	3.9006	3.22883e-05
2	1	0	0	0	1	306.523	0.4828	0.483152	0.0767255	4	0.660331	11	0	6.401	3.70701e-05
2	1	0	1	0	1	309.024	0.495302	0.495646	0.101485	4	0.660551	11	0	8.9016	5.03004e-05
2	1	0	1	0	1	311.524	0.507804	0.50814	0.132977	4	0.66084	11	0	11.402	6.75711e-05
2	1	0	1	0	1	314.024	0.520307	0.520618	0.198304	4	0.661249	11	0	13.9024	0.00010324
2	1	0	1	0	1	316.525	0.532809	0.533126	0.298598	4	0.661859	11	0	16.4028	0.00015919
2	1	0	1	0	1	319.025	0.545311	0.545644	0.463395	4	0.662798	11	0	18.9033	0.000252849
2	1	0	0	0	1	321.526	0.557813	0.558141	0.705274	4	0.664241	11	0	21.4038	0.000393643
2	1	0	0	0	1	324.026	0.570315	0.570667	1.03697	4	0.666403	11	0	23.9042	0.000591761
2	1	0	0	0	1	326.527	0.582818	0.583135	1.45951	4	0.669507	11	0	26.4046	0.000851092
2	1	0	0	0	1	329.027	0.59532	0.595641	1.96126	4	0.673771	11	0	28.905	0.0011682
2	1	0	1	0	1	331.528	0.607822	0.608094	2.54002	4	0.679387	11	0	31.4056	0.00154457
2	1	0	1	0	1	334.028	0.620324	0.6206	3.16764	4	0.686517	11	0	33.906	0.00196583
2	1	0	1	0	1	336.528	0.632827	0.633092	3.84709	4	0.695281	11	0	36.4064	0.00243556
2	1	0	1	0	1	339.029	0.645329	0.645614	4.55355	4	0.70578	11	0	38.9068	0.00293984
2	1	0	1	0	1	341.529	0.657831	0.658134	5.31011	4	0.718108	11	0	41.4073	0.00349477
2	1	0	0	0	1	344.03	0.670333	0.670634	6.0796	4	0.732348	11	0	43.9078	0.00407718
2	1	0	0	0	1	346.53	0.682835	0.683114	6.87456	4	0.74855	11	0	46.4082	0.00469611
2	1	0	0	0	1	349.031	0.695338	0.69562	7.68214	4	0.766748	11	0	48.9086	0.00534385
2	1	0	1	0	1	351.323	0.693187	0.693484	7.49867	4	0.784571	11	0	51.2012	0.00520021
2	1	0	1	0	1	353.824	0.680685	0.681022	6.6617	4	0.802252	11	0	53.7016	0.00453676
2	1	0	0	0	1	356.324	0.668183	0.668508	5.85348	4	0.817898	11	0	56.2022	0.0039131
2	1	0	0	0	1	358.825	0.655681	0.656005	5.07397	4	0.831547	11	0	58.7026	0.00332855
2	1	0	0	0	1	361.325	0.643178	0.643504	4.33257	4	0.843299	11	0	61.203	0.00278803
2	1	0	0	0	1	363.825	0.630676	0.630979	3.62053	4	0.853228	11	0	63.7034	0.00228448
2	1	0	1	0	1	366.326	0.618174	0.618466	2.95854	4	0.861442	11	0	66.204	0.00182975
2	1	0	1	0	1	368.826	0.605672	0.605959	2.33892	4	0.868049	11	0	68.7044	0.00141729
2	1	0	1	0	1	371.327	0.59317	0.593454	1.78562	4	0.873189	11	0	71.2048	0.00105968
2	1	0	1	0	1	373.827	0.580667	0.580969	1.30315	4	0.877033	11	0	73.7052	0.000757092
2	1	0	1	0	1	376.328	0.568165	0.568509	0.897348	4	0.879765	11	0	76.2057	0.00051015
2	1	0	0	0	1	378.828	0.555663	0.555976	0.583791	4	0.881596	11	0	78.7062	0.000324573
2	1	0	0	0	1	381.329	0.543161	0.543448	0.348823	4	0.882745	11	0	81.2066	0.000189567
2	1	0	0	0	1	383.829	0.530658	0.530956	0.19514	4	0.88341	11	0	83.707	0.00010361
2	1	0	0	0	1	386.329	0.518156	0.518505	0.090207	4	0.883757	11	0	86.2074	4.67727e-05
2	1	0	1	0	1	388.83	0.505654	0.505992	0.032403	4	0.883904	11	0	88.708	1.63957e-05
2	0	0	1	0	1	391.33	0.493152	0.49344	-0.00857385	4	0.883929	11	0	0.5002	-4.23068e-06
2	0	0	1	0	1	393.831	0.480649	0.481012	-0.027441	4	0.883883	11	0	3.0006	-1.31995e-05
2	0	0	1	0	1	396.331	0.468147	0.468479	-0.0427789	4	0.883793	11	0	5.501	-2.0041e-05
2	0	0	1	0	1	398.832	0.455645	0.455987	-0.0506693	4	0.883676	11	0	8.0015	-2.31046e-05
2	1	0	0	0	0	401.211	0.456295	0.456588	0.0547534	5	0.883669	11	0	1.1002	2.49997e-05
2	1	0	0	0	0	403.712	0.468797	0.469112	0.0652001	5	0.88382	11	0	3.6006	3.05861e-05
2	1	0	0	0	0	406.212	0.4813	0.481601	0.078103	5	0.883998	11	0	6.101	3.76145e-05
2	1	0	0	0	0	408.712	0.493802	0.494117	0.0958836	5	0.884214	11	0	8.6014	4.73777e-05
2	1	0	1	0	0	411.213	0.506304	0.506613	0.132543	5	0.884495	11	0	11.1019	6.71481e-05
2	1	0	1	0	0	413.713	0.518806	0.519063	0.186337	5	0.884888	11	0	13.6024	9.67207e-05
2	1	0	1	0	0	416.214	0.531308	0.531657	0.287364	5	0.88547	11	0	16.1028	0.000152779
2	1	0	1	0	0	418.714	0.543811	0.544096	0.436708	5	0.886363	11	0	18.6032	0.000237611
2	1	0	1	0	0	421.215	0.556313	0.556666	0.670308	5	0.887731	11	0	21.1036	0.000373138
2	1	0	0	0	0	423.715	0.568815	0.569158	0.983342	5	0.889781	11	0	23.6042	0.000559677
2	1	0	0	0	0	426.216	0.581317	0.581666	1.39478	5	0.892739	11	0	26.1046	0.000811294
2	1	0	0	0	0	428.716	0.59382	0.594149	1.87939	5	0.896819	11	0	28.605	0.00111664
2	1	0	0	0	0	431.216	0.606322	0.606594	2.44455	5	0.902214	11	0	31.1054	0.00148285
2	1	0	1	0	0	433.717	0.618824	0.619138	3.06057	5	0.909088	11	0	33.606	0.00189491
2	1	0	1	0	0	436.217	0.631326	0.631587	3.72959	5	0.917571	11	0	36.1064	0.00235556
2	1	0	1	0	0	438.718	0.643829	0.644148	4.43495	5	0.927775	11	0	38.6068	0.00285676
2	1	0	1	0	0	441.218	0.656331	0.65668	5.17434	5	0.939784	11	0	41.1072	0.00339788
2	1	0	1	0	0	443.719	0.668833	0.669125	5.93995	5	0.953677	11	0	43.6077	0.00397457
2	1	0	0	0	0	446.219	0.681335	0.681634	6.7201	5	0.96951	11	0	46.1082	0.00458065
2	1	0	0	0	0	448.72	0.693837	0.694132	7.52481	5	0.987321	11	0	48.6086	0.00522321
2	1	0	1	0	0	451.012	0.694688	0.694957	7.53394	5	1.00502	11	0	50.9012	0.00523577
2	1	0	1	0	0	453.513	0.682185	0.682484	6.69407	5	1.02279	11	0	53.4016	0.00456859
2	1	0	1	0	0	456.013	0.669683	0.66997	5.89859	5	1.03851	11	0	55.902	0.00395188
2	1	0	0	0	0	458.514	0.657181	0.65744	5.11581	5	1.05228	11	0	58.4026	0.00336334
2	1	0	0	0	0	461.014	0.644679	0.644986	4.36961	5	1.06413	11	0	60.903	0.00281834
2	1	0	0	0	0	463.514	0.632176	0.632454	3.65789	5	1.07415	11	0	63.4034	0.00231345
2	1	0	0	0	0	466.015	0.619674	0.619982	2.99124	5	1.08245	11	0	65.9038	0.00185452
2	1	0	1	0	0	468.515	0.607172	0.607452	2.37166	5	1.08914	11	0	68.4043	0.00144067
2	1	0	1	0	0	471.016	0.59467	0.594985	1.81432	5	1.09436	11	0	70.9048	0.00107949
2	1	0	1	0	0	473.516	0.582168	0.582477	1.32379	5	1.09826	11	0	73.4052	0.000771078
2	1	0	1	0	0	476.017	0.569665	0.569949	0.92072	5	1.10105	11	0	75.9056	0.000524763
2	1	0	1	0	0	478.517	0.557163	0.557442	0.596403	5	1.10293	11	0	78.406	0.00033246
2	1	0	0	0	0	481.018	0.544661	0.544923	0.363638	5	1.10411	11	0	80.9066	0.000198154
2	1	0	0	0	0	483.518	0.532159	0.532498	0.199012	5	1.1048	11	0	83.407	0.000105974
2	1	0	0	0	0	486.018	0.519656	0.519992	0.0989032	5	1.10516	11	0	85.9074	5.14289e-05
2	1	0	0	0	0	488.519	0.507154	0.507454	0.0316735	5	1.10532	11	0	88.4078	1.60729e-05
2	0	0	1	0	0	491.019	0.494652	0.494935	-0.00222863	5	1.10535	11	0	0.2001	-1.10303e-06
2	0	0	1	0	0	493.52	0.48215	0.482436	-0.0293742	5	1.10531	11	0	2.7006	-1.41712e-05
2	0	0	1	0	0	496.02	0.469648	0.469955	-0.0391321	5	1.10522	11	0	5.201	-1.83903e-05
2	0	0	1	0	0	498.521	0.457145	0.457503	-0.0519077	5	1.1051	11	0	7.7014	-2.37479e-05
2	1	0	1	0	1	500.9	0.454795	0.455107	0.0546528	6	1.10507	11	0	0.8	2.48729e-05
2	1	0	0	0	1	503.401	0.467297	0.467631	0.0616357	6	1.10521	11	0	3.3006	2.88227e-05
2	1	0	0	0	1	505.901	0.479799	0.48011	0.0765548	6	1.10538	11	0	5.801	3.67547e-05
2	1	0	0	0	1	508.401	0.492302	0.492636	0.0902959	6	1.10559	11	0	8.3014	4.4483e-05
2	1	0	0	0	1	510.902	0.504804	0.505132	0.125287	6	1.10586	11	0	10.8018	6.32864e-05
2	1	0	1	0	1	513.402	0.517306	0.517609	0.173323	6	1.10623	11	0	13.3023	8.97135e-05
2	1	0	1	0	1	515.903	0.529808	0.530111	0.266058	6	1.10677	11	0	15.8028	0.00014104
2	1	0	1	0	1	518.403	0.54231	0.542684	0.403326	6	1.10759	11	0	18.3032	0.000218879
2	1	0	1	0	1	520.904	0.554813	0.555145	0.621351	6	1.10886	11	0	20.8036	0.00034494
2	1	0	1	0	1	523.404	0.567315	0.567621	0.917775	6	1.11076	11	0	23.304	0.000520949
2	1	0	0	0	1	525.905	0.579817	0.580168	1.31125	6	1.11354	11	0	25.8046	0.000760744
2	1	0	0	0	1	528.405	0.592319	0.592643	1.78156	6	1.11739	11	0	28.305	0.00105583
2	1	0	0	0	1	530.905	0.604822	0.605064	2.33143	6	1.12252	11	0	30.8054	0.00141066
2	1	0	0	0	1	533.406	0.617324	0.617616	2.93744	6	1.1291	11	0	33.3058	0.00181421
2	1	0	1	0	1	535.906	0.629826	0.630118	3.59731	6	1.13726	11	0	35.8064	0.00226673
2	1	0	1	0	1	538.407	0.642328	0.642657	4.29288	6	1.14712	11	0	38.3068	0.00275885
2	1	0	1	0	1	540.907	0.654831	0.655149	5.02743	6	1.15878	11	0	40.8072	0.00329371
2	1	0	1	0	1	543.408	0.667333	0.667641	5.78978	6	1.1723	11	0	43.3076	0.0038655
2	1	0	1	0	1	545.908	0.679835	0.680125	6.56948	6	1.18775	11	0	45.808	0.00446807
2	1	0	0	0	1	548.409	0.692337	0.692621	7.35964	6	1.20516	11	0	48.3086	0.00509744
2	1	0	1	0	1	550.701	0.696188	0.696484	7.58667	6	1.22268	11	0	50.6012	0.005284
2	1	0	1	0	1	553.202	0.683686	0.683959	6.74448	6	1.24059	11	0	53.1016	0.00461294
2	1	0	1	0	1	555.702	0.671183	0.671523	5.94791	6	1.25644	11	0	55.602	0.00399416
2	1	0	1	0	1	558.202	0.658681	0.659002	5.16376	6	1.27033	11	0	58.1024	0.00340293
2	1	0	0	0	1	560.703	0.646179	0.646433	4.42296	6	1.2823	11	0	60.603	0.00285915
2	1	0	0	0	1	563.203	0.633677	0.633968	3.70697	6	1.29245	11	0	63.1034	0.0023501
2	1	0	0	0	1	565.704	0.621174	0.621452	3.03798	6	1.30088	11	0	65.6038	0.00188795
2	1	0	0	0	1	568.204	0.608672	0.608954	2.4088	6	1.30767	11	0	68.1042	0.00146685
2	1	0	1	0	1	570.705	0.59617	0.596472	1.84875	6	1.31298	11	0	70.6047	0.00110273
2	1	0	1	0	1	573.205	0.583668	0.583936	1.35072	6	1.31696	11	0	73.1052	0.000788734
2	1	0	1	0	1	575.706	0.571166	0.571471	0.941676	6	1.31981	11	0	75.6056	0.000538141
2	1	0	1	0	1	578.206	0.558663	0.558906	0.611414	6	1.32173	11	0	78.106	0.000341723
2	1	0	1	0	1	580.706	0.546161	0.546485	0.375764	6	1.32294	11	0	80.6064	0.00020535
2	1	0	0	0	1	583.207	0.533659	0.533971	0.207334	6	1.32366	11	0	83.107	0.00011071
2	1	0	0	0	1	585.707	0.521157	0.52143	0.103861	6	1.32403	11	0	85.6074	5.41563e-05
2	1	0	0	0	1	588.208	0.508654	0.508992	0.035949	6	1.3242	11	0	88.1078	1.82978e-05
2	1	0	0	0	1	590.708	0.496152	0.496454	-0.00141595	6	1.32424	11	0	0.1	-7.02957e-07
2	0	0	1	0	1	593.209	0.48365	0.483928	-0.026878	6	1.3242	11	0	2.6005	-1.3007e-05
2	0	0	1	0	1	595.709	0.471148	0.47152	-0.0392195	6	1.32412	11	0	5.101	-1.84928e-05
2	0	0	1	0	1	598.21	0.458646	0.458947	-0.0500352	6	1.324	11	0	7.6014	-2.29635e-05
2	1	0	1	0	0	600.589	0.453295	0.453607	0.0509228	7	1.32394	11	0	0.5	2.3099e-05
2	1	0	1	0	0	603.089	0.465797	0.466186	0.0612569	7	1.32408	11	0	3.0004	2.85571e-05
2	1	0	0	0	0	605.59	0.478299	0.478659	0.0732226	7	1.32425	11	0	5.501	3.50486e-05
2	1	0	0	0	0	608.09	0.490801	0.491148	0.0875588	7	1.32445	11	0	8.0014	4.30043e-05
2	1	0	0	0	0	610.591	0.503304	0.503622	0.117012	7	1.3247	11	0	10.5018	5.89297e-05
2	1	0	0	0	0	613.091	0.515806	0.516128	0.162679	7	1.32504	11	0	13.0022	8.39632e-05
2	1	0	0	0	0	615.592	0.528308	0.528597	0.246555	7	1.32555	11	0	15.5026	0.000130328
2	1	0	1	0	0	618.092	0.54081	0.541162	0.373015	7	1.32631	11	0	18.0032	0.000201861
2	1	0	1	0	0	620.593	0.553312	0.553639	0.577309	7	1.32748	11	0	20.5036	0.000319621
2	1	0	1	0	0	623.093	0.565815	0.566153	0.856839	7	1.32926	11	0	23.004	0.000485102
2	1	0	1	0	0	625.593	0.578317	0.578677	1.2351	7	1.33186	11	0	25.5044	0.000714725
2	1	0	0	0	0	628.094	0.590819	0.59115	1.68973	7	1.3355	11	0	28.005	0.000998881
2	1	0	0	0	0	630.594	0.603321	0.603629	2.22772	7	1.34039	11	0	30.5054	0.00134472
2	1	0	0	0	0	633.095	0.615824	0.616122	2.82299	7	1.34669	11	0	33.0058	0.0017393
2	1	0	0	0	0	635.595	0.628326	0.628622	3.47631	7	1.35456	11	0	35.5062	0.00218529
2	1	0	1	0	0	638.096	0.640828	0.641121	4.16431	7	1.36411	11	0	38.0067	0.00266982
2	1	0	1	0	0	640.596	0.65333	0.653619	4.89546	7	1.37543	11	0	40.5072	0.00319976
2	1	0	1	0	0	643.097	0.665832	0.66615	5.6492	7	1.38862	11	0	43.0076	0.00376321
2	1	0	1	0	0	645.597	0.678335	0.678634	6.42209	7	1.40371	11	0	45.508	0.00435825
2	1	0	1	0	0	648.097	0.690837	0.691141	7.21627	7	1.42076	11	0	48.0084	0.00498746
2	1	0	0	0	0	650.39	0.697688	0.698026	7.63727	7	1.43809	11	0	50.301	0.00533101
2	1	0	1	0	0	652.891	0.685186	0.685529	6.78686	7	1.4561	11	0	52.8016	0.00465258
2	1	0	1	0	0	655.391	0.672684	0.672987	5.97113	7	1.47205	11	0	55.302	0.00401849
2	1	0	1	0	0	657.891	0.660181	0.660535	5.18234	7	1.48597	11	0	57.8024	0.00342312
2	1	0	1	0	0	660.392	0.647679	0.647969	4.43623	7	1.49799	11	0	60.3028	0.00287454
2	1	0	1	0	0	662.892	0.635177	0.635502	3.72685	7	1.50819	11	0	62.8033	0.00236842
2	1	0	0	0	0	665.393	0.622675	0.622931	3.06198	7	1.51667	11	0	65.3038	0.0019074
2	1	0	0	0	0	667.893	0.610172	0.610511	2.44101	7	1.52353	11	0	67.8042	0.00149026
2	1	0	0	0	0	670.394	0.59767	0.597984	1.87429	7	1.52891	11	0	70.3046	0.0011208
2	1	0	0	0	0	672.894	0.585168	0.585503	1.38093	7	1.53297	11	0	72.805	0.00080854
2	1	0	1	0	0	675.395	0.572666	0.572973	0.960286	7	1.53587	11	0	75.3056	0.000550218
2	1	0	1	0	0	677.895	0.560164	0.560458	0.632322	7	1.53784	11	0	77.806	0.00035439
2	1	0	1	0	0	680.395	0.547661	0.547959	0.385012	7	1.5391	11	0	80.3064	0.00021097
2	1	0	1	0	0	682.896	0.535159	0.535458	0.217844	7	1.53983	11	0	82.8068	0.000116646
2	1	0	0	0	0	685.396	0.522657	0.522987	0.107092	7	1.54023	11	0	85.3074	5.6008e-05
2	1	0	0	0	0	687.897	0.510155	0.510482	0.0405171	7	1.54041	11	0	87.8078	2.06833e-05
2	1	0	0	0	0	690.397	0.497653	0.497964	-0.000922697	7	1.54045	11	0	0.000000000000000E+000	-4.5947e-07
2	0	0	0	0	0	692.898	0.48515	0.485447	-0.024156	7	1.54042	11	0	2.5004	-1.17264e-05
2	0	0	0	0	0	695.398	0.472648	0.47299	-0.0398159	7	1.54034	11	0	5.0008	-1.88325e-05
2	0	0	1	0	0	697.899	0.460146	0.460473	-0.0483374	7	1.54022	11	0	7.5014	-2.22581e-05
2	1	0	1	0	1	700.278	0.451794	0.452119	0.0411193	8	1.54013	11	0	0.2	1.85908e-05
2	1	0	1	0	1	702.778	0.464297	0.464637	0.0599147	8	1.54026	11	0	2.7004	2.78386e-05
2	1	0	1	0	1	705.279	0.476799	0.477094	0.0707728	8	1.54043	11	0	5.2008	3.37653e-05
2	1	0	1	0	1	707.779	0.489301	0.489604	0.084809	8	1.54062	11	0	7.7013	4.15228e-05
2	1	0	0	0	1	710.28	0.501803	0.50212	0.110496	8	1.54086	11	0	10.2018	5.54823e-05
2	1	0	0	0	1	712.78	0.514305	0.514615	0.1539	8	1.54119	11	0	12.7022	7.91992e-05
2	1	0	0	0	1	715.281	0.526808	0.527157	0.226784	8	1.54166	11	0	15.2026	0.000119551
2	1	0	0	0	1	717.781	0.53931	0.539634	0.348752	8	1.54236	11	0	17.703	0.000188198
2	1	0	1	0	1	720.282	0.551812	0.552134	0.532225	8	1.54345	11	0	20.2036	0.000293859
2	1	0	1	0	1	722.782	0.564314	0.564588	0.802425	8	1.5451	11	0	22.704	0.00045304
2	1	0	1	0	1	725.282	0.576817	0.577107	1.15756	8	1.54754	11	0	25.2044	0.000668038
2	1	0	1	0	1	727.783	0.589319	0.589616	1.60366	8	1.55097	11	0	27.7048	0.000945544
2	1	0	0	0	1	730.283	0.601821	0.602069	2.12355	8	1.55562	11	0	30.2054	0.00127852
2	1	0	0	0	1	732.784	0.614323	0.614639	2.7119	8	1.56166	11	0	32.7058	0.00166684
2	1	0	0	0	1	735.284	0.626825	0.627141	3.34995	8	1.56923	11	0	35.2062	0.00210089
2	1	0	0	0	1	737.785	0.639328	0.639632	4.04116	8	1.57846	11	0	37.7066	0.00258486
2	1	0	0	0	1	740.285	0.65183	0.652097	4.75485	8	1.58946	11	0	40.207	0.00310063
2	1	0	1	0	1	742.786	0.664332	0.664653	5.50219	8	1.60228	11	0	42.7076	0.00365705
2	1	0	1	0	1	745.286	0.676834	0.677147	6.26821	8	1.617	11	0	45.208	0.0042445
2	1	0	1	0	1	747.786	0.689337	0.689579	7.06984	8	1.63367	11	0	47.7084	0.00487521
2	1	0	0	0	1	750.079	0.699188	0.699553	7.68252	8	1.6507	11	0	50.001	0.00537433
2	1	0	0	0	1	752.579	0.686686	0.687007	6.825	8	1.66882	11	0	52.5014	0.00468882
2	1	0	1	0	1	755.08	0.674184	0.674436	6.01629	8	1.68486	11	0	55.002	0.0040576
2	1	0	1	0	1	757.58	0.661682	0.661973	5.24266	8	1.69892	11	0	57.5024	0.0034705
2	1	0	1	0	1	760.081	0.649179	0.649456	4.50365	8	1.7111	11	0	60.0028	0.00292492
2	1	0	1	0	1	762.581	0.636677	0.636975	3.77866	8	1.72144	11	0	62.5032	0.00240691
2	1	0	1	0	1	765.082	0.624175	0.624532	3.10086	8	1.73003	11	0	65.0036	0.00193658
2	1	0	0	0	1	767.582	0.611673	0.611988	2.48331	8	1.73701	11	0	67.5042	0.00151976
2	1	0	0	0	1	770.083	0.599171	0.599472	1.91093	8	1.74248	11	0	70.0046	0.00114555
2	1	0	0	0	1	772.583	0.586668	0.586995	1.40743	8	1.74661	11	0	72.505	0.000826152
2	1	0	0	0	1	775.083	0.574166	0.574517	0.985552	8	1.74959	11	0	75.0054	0.000566217
2	1	0	1	0	1	777.584	0.561664	0.561974	0.650494	8	1.75161	11	0	77.506	0.00036556
2	1	0	1	0	1	780.084	0.549162	0.549441	0.398783	8	1.7529	11	0	80.0064	0.000219108
2	1	0	1	0	1	782.585	0.536659	0.536976	0.228127	8	1.75367	11	0	82.5068	0.000122499
2	1	0	1	0	1	785.085	0.524157	0.524509	0.112094	8	1.75409	11	0	85.0072	5.87941e-05
2	1	0	1	0	1	787.586	0.511655	0.511952	0.0457749	8	1.75428	11	0	87.5077	2.34345e-05
2	0	0	0	0	1	790.086	0.499153	0.49953	-0.000156211	8	1.75433	11	0	90.0082	-7.80322e-08
2	0	0	0	0	1	792.587	0.486651	0.48696	-0.0208747	8	1.7543	11	0	2.2004	-1.01651e-05
2	0	0	0	0	1	795.087	0.474148	0.474497	-0.0405535	8	1.75422	11	0	4.7008	-1.92425e-05
2	0	0	0	0	1	797.587	0.461646	0.461987	-0.0455591	8	1.75411	11	0	7.2012	-2.10477e-05
2	0	0	1	0	0	799.967	0.450294	0.45064	-0.0212481	9	1.75399	11	0	9.5808	-9.57525e-06
2	1	0	1	0	0	802.467	0.462796	0.463149	0.061114	9	1.75412	11	0	2.4004	2.83049e-05
2	1	0	1	0	0	804.968	0.475299	0.475653	0.0660665	9	1.75428	11	0	4.9008	3.14247e-05
2	1	0	1	0	0	807.468	0.487801	0.488088	0.0839383	9	1.75446	11	0	7.4012	4.09693e-05
2	1	0	1	0	0	809.969	0.500302	0.500626	0.102463	9	1.75469	11	0	9.9016	5.12955e-05
2	1	0	0	0	0	812.469	0.512805	0.513119	0.146707	9	1.755	11	0	12.4022	7.52783e-05
2	1	0	0	0	0	814.97	0.525307	0.52564	0.209256	9	1.75544	11	0	14.9026	0.000109994
2	1	0	0	0	0	817.47	0.53781	0.538123	0.324694	9	1.7561	11	0	17.403	0.000174725
2	1	0	0	0	0	819.97	0.550312	0.55063	0.492944	9	1.7571	11	0	19.9034	0.00027143
2	1	0	1	0	0	822.471	0.562814	0.563193	0.74962	9	1.75864	11	0	22.404	0.000422181
2	1	0	1	0	0	824.971	0.575316	0.57561	1.0867	9	1.76092	11	0	24.9044	0.000625515
2	1	0	1	0	0	827.472	0.587819	0.58815	1.5189	9	1.76416	11	0	27.4048	0.000893341
2	1	0	1	0	0	829.972	0.600321	0.600651	2.02297	9	1.76858	11	0	29.9052	0.0012151
2	1	0	1	0	0	832.473	0.612823	0.613114	2.60215	9	1.77435	11	0	32.4057	0.00159541
2	1	0	0	0	0	834.973	0.625325	0.625667	3.22872	9	1.78163	11	0	34.9062	0.0020201
2	1	0	0	0	0	837.474	0.637827	0.638116	3.91158	9	1.79055	11	0	37.4066	0.00249604
2	1	0	0	0	0	839.974	0.65033	0.650657	4.61683	9	1.80122	11	0	39.907	0.00300398
2	1	0	0	0	0	842.474	0.662832	0.663124	5.3667	9	1.8137	11	0	42.4074	0.00355879
2	1	0	1	0	0	844.975	0.675334	0.675634	6.1275	9	1.82807	11	0	44.908	0.00413994
2	1	0	1	0	0	847.475	0.687836	0.688111	6.90792	9	1.84437	11	0	47.4084	0.00475342
2	1	0	0	0	0	849.903	0.700014	0.700288	7.69653	9	1.86207	11	0	49.836	0.00538978
2	1	0	0	0	0	852.268	0.688186	0.688519	6.86699	9	1.87925	11	0	52.2014	0.00472806
2	1	0	0	0	0	854.769	0.675684	0.675965	6.05407	9	1.8954	11	0	54.7018	0.00409234
2	1	0	1	0	0	857.269	0.663182	0.663526	5.26114	9	1.90953	11	0	57.2023	0.0034909
2	1	0	1	0	0	859.77	0.65068	0.650985	4.52368	9	1.92175	11	0	59.7028	0.00294485
2	1	0	1	0	0	862.27	0.638178	0.638431	3.81179	9	1.93217	11	0	62.2032	0.00243356
2	1	0	1	0	0	864.771	0.625675	0.625966	3.13739	9	1.94084	11	0	64.7036	0.0019639
2	1	0	1	0	0	867.271	0.613173	0.613475	2.50821	9	1.94789	11	0	67.2041	0.00153872
2	1	0	0	0	0	869.772	0.600671	0.600968	1.93632	9	1.95343	11	0	69.7046	0.00116367
2	1	0	0	0	0	872.272	0.588169	0.588491	1.42677	9	1.95762	11	0	72.205	0.000839643
2	1	0	0	0	0	874.772	0.575666	0.575991	1.00493	9	1.96064	11	0	74.7054	0.000578833
2	1	0	0	0	0	877.273	0.563164	0.563484	0.661941	9	1.9627	11	0	77.2058	0.000372994
2	1	0	1	0	0	879.773	0.550662	0.550985	0.412017	9	1.96403	11	0	79.7064	0.000227015
2	1	0	1	0	0	882.274	0.53816	0.538497	0.233778	9	1.96482	11	0	82.2068	0.000125889
2	1	0	1	0	0	884.774	0.525657	0.525989	0.120522	9	1.96525	11	0	84.7072	6.33932e-05
2	1	0	1	0	0	887.275	0.513155	0.513494	0.0472754	9	1.96545	11	0	87.2076	2.42756e-05
2	1	0	1	0	0	889.775	0.500653	0.500982	0.0046313	9	1.96551	11	0	89.708	2.3202e-06
2	0	0	0	0	0	892.276	0.488151	0.488504	-0.0215103	9	1.96549	11	0	2.1004	-1.05079e-05
2	0	0	0	0	0	894.776	0.475649	0.475971	-0.0373177	9	1.96541	11	0	4.6008	-1.77622e-05
2	0	0	0	0	0	897.276	0.463146	0.463464	-0.0469761	9	1.9653	11	0	7.1012	-2.17717e-05
2	0	0	0	0	0	899.777	0.450644	0.450941	-0.0530726	9	1.96518	11	0	9.6016	-2.39326e-05
2	1	0	1	0	1	902.156	0.461296	0.461614	0.0563669	10	1.96528	11	0	2.1003	2.60197e-05
2	1	0	1	0	1	904.657	0.473798	0.474102	0.0676469	10	1.96543	11	0	4.6008	3.20715e-05
2	1	0	1	0	1	907.157	0.486301	0.486644	0.0774572	10	1.96561	11	0	7.1012	3.76941e-05
2	1	0	1	0	1	909.658	0.498803	0.499095	0.101662	10	1.96583	11	0	9.6016	5.07389e-05
2	1	0	1	0	1	912.158	0.511305	0.511623	0.133851	10	1.96612	11	0	12.102	6.84813e-05
2	1	0	0	0	1	914.659	0.523807	0.524099	0.199545	10	1.96653	11	0	14.6026	0.000104581
2	1	0	0	0	1	917.159	0.536309	0.536612	0.296907	10	1.96715	11	0	17.103	0.000159324
2	1	0	0	0	1	919.659	0.548812	0.5491	0.461663	10	1.96808	11	0	19.6034	0.000253499
2	1	0	0	0	1	922.16	0.561314	0.56161	0.694377	10	1.96951	11	0	22.1038	0.000389969
2	1	0	1	0	1	924.66	0.573816	0.574182	1.02282	10	1.97164	11	0	24.6044	0.000587285
2	1	0	1	0	1	927.161	0.586318	0.586648	1.43162	10	1.97469	11	0	27.1048	0.000839859
2	1	0	1	0	1	929.661	0.598821	0.599072	1.92938	10	1.97888	11	0	29.6052	0.00115584
2	1	0	1	0	1	932.162	0.611323	0.611624	2.48903	10	1.9844	11	0	32.1056	0.00152235
2	1	0	1	0	1	934.662	0.623825	0.624117	3.1127	10	1.99139	11	0	34.6061	0.00194269
2	1	0	0	0	1	937.163	0.636327	0.636627	3.77565	10	2	11	0	37.1066	0.00240368
2	1	0	0	0	1	939.663	0.648829	0.649164	4.48875	10	2.01033	11	0	39.607	0.00291393
2	1	0	0	0	1	942.163	0.661332	0.661648	5.22319	10	2.02247	11	0	42.1074	0.00345592
2	1	0	0	0	1	944.664	0.673834	0.674129	5.97784	10	2.03647	11	0	44.6078	0.00402984
2	1	0	1	0	1	947.164	0.686336	0.686627	6.7496	10	2.05238	11	0	47.1084	0.00463446
2	1	0	1	0	1	949.665	0.698838	0.699086	7.55115	10	2.07027	11	0	49.6088	0.0052789
2	1	0	0	0	1	951.957	0.689687	0.68995	6.90664	10	2.08699	11	0	51.9014	0.00476524
2	1	0	0	0	1	954.458	0.677184	0.677486	6.09154	10	2.10321	11	0	54.4018	0.00412694
2	1	0	0	0	1	956.958	0.664682	0.664949	5.30899	10	2.11746	11	0	56.9022	0.00353021
2	1	0	1	0	1	959.459	0.65218	0.652496	4.56205	10	2.12979	11	0	59.4027	0.00297672
2	1	0	1	0	1	961.959	0.639678	0.639929	3.84856	10	2.14029	11	0	61.9032	0.00246281
2	1	0	1	0	1	964.46	0.627176	0.627429	3.17216	10	2.14906	11	0	64.4036	0.00199031
2	1	0	1	0	1	966.96	0.614673	0.61496	2.54035	10	2.15619	11	0	66.904	0.00156222
2	1	0	1	0	1	969.46	0.602171	0.602452	1.96105	10	2.1618	11	0	69.4044	0.00118144
2	1	0	0	0	1	971.961	0.589669	0.590025	1.46185	10	2.16606	11	0	71.905	0.000862526
2	1	0	0	0	1	974.461	0.577167	0.577517	1.02872	10	2.16916	11	0	74.4054	0.000594105
2	1	0	0	0	1	976.962	0.564664	0.564977	0.686225	10	2.17128	11	0	76.9058	0.000387702
2	1	0	0	0	1	979.462	0.552162	0.552475	0.426092	10	2.17265	11	0	79.4062	0.000235405
2	1	0	1	0	1	981.963	0.53966	0.539967	0.243988	10	2.17347	11	0	81.9068	0.000131745
2	1	0	1	0	1	984.463	0.527158	0.527509	0.126843	10	2.17392	11	0	84.4072	6.69111e-05
2	1	0	1	0	1	986.964	0.514656	0.515004	0.0501574	10	2.17414	11	0	86.9076	2.58313e-05
2	1	0	1	0	1	989.464	0.502153	0.502509	0.00894185	10	2.17421	11	0	89.408	4.49336e-06
2	0	0	1	0	1	991.964	0.489651	0.489991	-0.0217869	10	2.17419	11	0	1.8002	-1.06754e-05
2	0	0	0	0	1	994.465	0.477149	0.477448	-0.0337289	10	2.17412	11	0	4.3008	-1.61038e-05
2	0	0	0	0	1	996.965	0.464647	0.464966	-0.0474931	10	2.17401	11	0	6.8012	-2.20827e-05
2	0	0	0	0	1	999.466	0.452144	0.452473	-0.0518618	10	2.17389	11	0	9.3016	-2.3466e-05
2	1	0	0	0	0	1001.85	0.459796	0.460117	0.0566669	11	2.17395	11	0	1.7002	2.60734e-05
2	1	0	1	0	0	1004.35	0.472298	0.472633	0.0629085	11	2.1741	11	0	4.2007	2.97326e-05
2	1	0	1	0	0	1006.85	0.4848	0.485099	0.0784278	11	2.17428	11	0	6.7012	3.80452e-05
2	1	0	1	0	0	1009.35	0.497302	0.497606	0.093183	11	2.17449	11	0	9.2016	4.63684e-05
2	1	0	1	0	0	1011.85	0.509805	0.51009	0.130074	11	2.17477	11	0	11.702	6.63495e-05
2	1	0	1	0	0	1014.35	0.522307	0.522638	0.182733	11	2.17515	11	0	14.2024	9.55035e-05
2	1	0	0	0	0	1016.85	0.534809	0.535117	0.278795	11	2.17572	11	0	16.703	0.000149188
2	1	0	0	0	0	1019.35	0.547311	0.547602	0.427324	11	2.17659	11	0	19.2034	0.000234003
2	1	0	0	0	0	1021.85	0.559814	0.560175	0.648743	11	2.17792	11	0	21.7038	0.00036341
2	1	0	0	0	0	1024.35	0.572316	0.572614	0.960052	11	2.17991	11	0	24.2042	0.000549739
2	1	0	1	0	0	1026.85	0.584818	0.585162	1.35469	11	2.18279	11	0	26.7048	0.000792715
2	1	0	1	0	0	1029.35	0.59732	0.597669	1.83801	11	2.18677	11	0	29.2052	0.00109852
2	1	0	1	0	0	1031.85	0.609822	0.610152	2.38364	11	2.19204	11	0	31.7056	0.00145438
2	1	0	1	0	0	1034.35	0.622325	0.622637	3.00014	11	2.19876	11	0	34.206	0.001868
2	1	0	1	0	0	1036.85	0.634827	0.635108	3.65552	11	2.20708	11	0	36.7064	0.00232165
2	1	0	0	0	0	1039.35	0.647329	0.647616	4.35751	11	2.21709	11	0	39.207	0.002822
2	1	0	0	0	0	1041.85	0.659831	0.660139	5.07691	11	2.22889	11	0	41.7074	0.00335146
2	1	0	0	0	0	1044.35	0.672334	0.672617	5.83819	11	2.24253	11	0	44.2078	0.00392687
2	1	0	0	0	0	1046.85	0.684836	0.685132	6.61078	11	2.25809	11	0	46.7082	0.00452926
2	1	0	1	0	0	1049.35	0.697338	0.697635	7.40079	11	2.27562	11	0	49.2088	0.00516305
2	1	0	0	0	0	1051.65	0.691187	0.691469	6.95189	11	2.29237	11	0	51.5014	0.00480701
2	1	0	0	0	0	1054.15	0.678685	0.678976	6.12107	11	2.3087	11	0	54.0018	0.00415606
2	1	0	0	0	0	1056.65	0.666183	0.666475	5.33524	11	2.32301	11	0	56.5022	0.00355581
2	1	0	0	0	0	1059.15	0.65368	0.654031	4.59221	11	2.33541	11	0	59.0026	0.00300345
2	1	0	0	0	0	1061.65	0.641178	0.64148	3.88071	11	2.34599	11	0	61.503	0.0024894
2	1	0	1	0	0	1064.15	0.628676	0.628975	3.20355	11	2.35484	11	0	64.0036	0.00201495
2	1	0	1	0	0	1066.65	0.616174	0.616474	2.57542	11	2.36205	11	0	66.504	0.00158768
2	1	0	1	0	0	1069.15	0.603671	0.60399	1.99563	11	2.36775	11	0	69.0044	0.00120534
2	1	0	1	0	0	1071.65	0.591169	0.591469	1.48199	11	2.37208	11	0	71.5048	0.00087655
2	1	0	0	0	0	1074.15	0.578667	0.579006	1.05335	11	2.37523	11	0	74.0054	0.000609896
2	1	0	0	0	0	1076.65	0.566165	0.566467	0.701336	11	2.3774	11	0	76.5058	0.000397284
2	1	0	0	0	0	1079.15	0.553662	0.553931	0.44165	11	2.37881	11	0	79.0062	0.000244644
2	1	0	0	0	0	1081.65	0.54116	0.54147	0.253104	11	2.37966	11	0	81.5066	0.000137049
2	1	0	1	0	0	1084.15	0.528658	0.528998	0.132747	11	2.38013	11	0	84.0071	7.02231e-05
2	1	0	1	0	0	1086.65	0.516156	0.516442	0.0564174	11	2.38036	11	0	86.5076	2.91363e-05
2	0	0	1	0	0	1089.15	0.503654	0.503967	0.00849244	11	2.38044	11	0	89.008	4.27991e-06
2	0	0	1	0	0	1091.65	0.491151	0.491512	-0.0165303	11	2.38042	11	0	1.6002	-8.12484e-06
2	0	0	1	0	0	1094.15	0.478649	0.478954	-0.03721	11	2.38036	11	0	4.1006	-1.78219e-05
2	0	0	0	0	0	1096.65	0.466147	0.466465	-0.0432074	11	2.38025	11	0	6.6012	-2.01547e-05
2	0	0	0	0	0	1099.15	0.453645	0.453946	-0.0543368	11	2.38013	11	0	9.1016	-2.4666e-05
2	1	0	0	0	1	1101.53	0.458295	0.458602	0.0551793	12	2.38016	11	0	1.4002	2.53054e-05
2	1	0	0	0	1	1104.03	0.470798	0.471113	0.0625125	12	2.38031	11	0	3.9006	2.94505e-05
2	1	0	0	0	1	1106.53	0.4833	0.483597	0.0739498	12	2.38048	11	0	6.401	3.57619e-05
2	1	0	1	0	1	1109.04	0.495802	0.496091	0.0920828	12	2.38069	11	0	8.9016	4.56815e-05
2	1	0	1	0	1	1111.54	0.508304	0.508584	0.120193	12	2.38095	11	0	11.402	6.11282e-05
2	1	0	1	0	1	1114.04	0.520807	0.521123	0.174635	12	2.38131	11	0	13.9024	9.10065e-05
2	1	0	1	0	1	1116.54	0.533309	0.533626	0.256741	12	2.38184	11	0	16.4028	0.000137004
2	1	0	0	0	1	1119.04	0.545811	0.546179	0.398753	12	2.38265	11	0	18.9034	0.000217791
2	1	0	0	0	1	1121.54	0.558313	0.558586	0.602467	12	2.38389	11	0	21.4038	0.00033653
2	1	0	0	0	1	1124.04	0.570816	0.57109	0.898831	12	2.38575	11	0	23.9042	0.000513313
2	1	0	0	0	1	1126.54	0.583318	0.583657	1.27525	12	2.38845	11	0	26.4046	0.000744306
2	1	0	1	0	1	1129.04	0.59582	0.596137	1.74325	12	2.39221	11	0	28.9051	0.00103921
2	1	0	1	0	1	1131.54	0.608322	0.608654	2.27735	12	2.39722	11	0	31.4056	0.00138612
2	1	0	1	0	1	1134.04	0.620824	0.621134	2.8826	12	2.40367	11	0	33.906	0.00179048
2	1	0	1	0	1	1136.54	0.633327	0.633583	3.53258	12	2.41168	11	0	36.4064	0.00223818
2	1	0	1	0	1	1139.04	0.645829	0.646104	4.22231	12	2.42137	11	0	38.9068	0.00272805
2	1	0	0	0	1	1141.54	0.658331	0.658595	4.93847	12	2.43282	11	0	41.4074	0.00325245
2	1	0	0	0	1	1144.04	0.670833	0.67113	5.69472	12	2.44612	11	0	43.9078	0.0038219
2	1	0	0	0	1	1146.54	0.683335	0.683686	6.46445	12	2.46132	11	0	46.4082	0.00441965
2	1	0	0	0	1	1149.04	0.695838	0.696133	7.26006	12	2.47849	11	0	48.9086	0.00505397
2	1	0	1	0	1	1151.34	0.692687	0.693021	7.0114	12	2.49524	11	0	51.2012	0.00485905
2	1	0	1	0	1	1153.84	0.680185	0.680521	6.17956	12	2.51173	11	0	53.7017	0.00420532
2	1	0	0	0	1	1156.34	0.667683	0.66797	5.39465	12	2.52618	11	0	56.2022	0.00360347
2	1	0	0	0	1	1158.84	0.655181	0.655439	4.63517	12	2.53871	11	0	58.7026	0.00303807
2	1	0	0	0	1	1161.34	0.642678	0.642986	3.92482	12	2.5494	11	0	61.203	0.0025236
2	1	0	0	0	1	1163.84	0.630176	0.63047	3.24312	12	2.55835	11	0	63.7034	0.00204469
2	1	0	1	0	1	1166.34	0.617674	0.617977	2.60579	12	2.56565	11	0	66.204	0.00161031
2	1	0	1	0	1	1168.84	0.605172	0.605497	2.02288	12	2.57142	11	0	68.7044	0.00122485
2	1	0	1	0	1	1171.34	0.592669	0.592992	1.51344	12	2.57582	11	0	71.2048	0.000897459
2	1	0	1	0	1	1173.84	0.580167	0.58049	1.07081	12	2.57903	11	0	73.7052	0.000621595
2	1	0	0	0	1	1176.34	0.567665	0.567975	0.722346	12	2.58126	11	0	76.2058	0.000410274
2	1	0	0	0	1	1178.84	0.555163	0.555464	0.451257	12	2.5827	11	0	78.7062	0.000250657
2	1	0	0	0	1	1181.34	0.542661	0.542982	0.266253	12	2.58359	11	0	81.2066	0.000144571
2	1	0	0	0	1	1183.84	0.530158	0.530497	0.136925	12	2.58408	11	0	83.707	7.26383e-05
2	1	0	0	0	1	1186.34	0.517656	0.517976	0.0625892	12	2.58432	11	0	86.2074	3.24197e-05
2	1	0	1	0	1	1188.84	0.505154	0.505499	0.00995622	12	2.5844	11	0	88.708	5.03285e-06
2	0	0	1	0	1	1191.34	0.492652	0.492932	-0.0145731	12	2.5844	11	0	1.4002	-7.18355e-06
2	0	0	1	0	1	1193.84	0.480149	0.480421	-0.0360999	12	2.58433	11	0	3.9006	-1.73432e-05
2	0	0	1	0	1	1196.34	0.467647	0.467968	-0.0428533	12	2.58423	11	0	6.401	-2.0054e-05
2	0	0	0	0	1	1198.84	0.455145	0.455463	-0.0528215	12	2.58411	11	0	8.9016	-2.40582e-05
2	1	0	0	0	0	1201.22	0.456795	0.457091	0.0547083	13	2.58411	11	0	1.1002	2.50067e-05
2	1	0	0	0	0	1203.72	0.469297	0.469606	0.060126	13	2.58425	11	0	3.6006	2.82355e-05
2	1	0	0	0	0	1206.22	0.4818	0.482133	0.0735577	13	2.58442	11	0	6.101	3.54646e-05
2	1	0	0	0	0	1208.72	0.494302	0.494599	0.0866454	13	2.58462	11	0	8.6014	4.28547e-05
2	1	0	1	0	0	1211.22	0.506804	0.507166	0.116242	13	2.58487	11	0	11.102	5.89542e-05
2	1	0	1	0	0	1213.73	0.519306	0.519658	0.16152	13	2.58521	11	0	13.6024	8.39353e-05
2	1	0	1	0	0	1216.23	0.531809	0.532127	0.242056	13	2.58571	11	0	16.1028	0.000128805
2	1	0	1	0	0	1218.73	0.544311	0.544612	0.368034	13	2.58646	11	0	18.6032	0.000200436
2	1	0	0	0	0	1221.23	0.556813	0.55715	0.563248	13	2.58761	11	0	21.1038	0.000313814
2	1	0	0	0	0	1223.73	0.569315	0.569634	0.839869	13	2.58935	11	0	23.6042	0.000478418
2	1	0	0	0	0	1226.23	0.581818	0.582125	1.20442	13	2.59189	11	0	26.1046	0.000701121
2	1	0	0	0	0	1228.73	0.59432	0.594606	1.65585	13	2.59545	11	0	28.605	0.000984576
2	1	0	0	0	0	1231.23	0.606822	0.60714	2.17809	13	2.60023	11	0	31.1054	0.00132241
2	1	0	1	0	0	1233.73	0.619324	0.619622	2.76925	13	2.60641	11	0	33.606	0.00171589
2	1	0	1	0	0	1236.23	0.631826	0.632121	3.40656	13	2.61412	11	0	36.1064	0.00215336
2	1	0	1	0	0	1238.73	0.644329	0.644649	4.09123	13	2.62349	11	0	38.6068	0.0026374
2	1	0	1	0	0	1241.23	0.656831	0.65719	4.80138	13	2.63461	11	0	41.1072	0.00315542
2	1	0	0	0	0	1243.73	0.669333	0.669692	5.54123	13	2.64754	11	0	43.6078	0.00371092
2	1	0	0	0	0	1246.23	0.681835	0.682124	6.30016	13	2.66234	11	0	46.1082	0.00429749
2	1	0	0	0	0	1248.73	0.694337	0.69465	7.08188	13	2.67908	11	0	48.6086	0.00491943
2	1	0	1	0	0	1251.02	0.694187	0.694508	7.04642	13	2.69571	11	0	50.9012	0.0048938
2	1	0	1	0	0	1253.52	0.681685	0.681948	6.21835	13	2.71227	11	0	53.4016	0.00424059
2	1	0	1	0	0	1256.02	0.669183	0.669481	5.42617	13	2.72682	11	0	55.902	0.00363272
2	1	0	0	0	0	1258.53	0.656681	0.656984	4.67177	13	2.73943	11	0	58.4026	0.00306928
2	1	0	0	0	0	1261.03	0.644179	0.644511	3.95184	13	2.75021	11	0	60.903	0.002547
2	1	0	0	0	0	1263.53	0.631676	0.63196	3.27449	13	2.75922	11	0	63.4034	0.00206934
2	1	0	0	0	0	1266.03	0.619174	0.61945	2.63839	13	2.76661	11	0	65.9038	0.00163435
2	1	0	1	0	0	1268.53	0.606672	0.606947	2.06204	13	2.77247	11	0	68.4044	0.00125155
2	1	0	1	0	0	1271.03	0.59417	0.594461	1.54076	13	2.77696	11	0	70.9048	0.00091592
2	1	0	1	0	0	1273.53	0.581667	0.582014	1.1049	13	2.78025	11	0	73.4052	0.000643068
2	1	0	1	0	0	1276.03	0.569165	0.569457	0.741608	13	2.78253	11	0	75.9056	0.000422314
2	1	0	1	0	0	1278.53	0.556663	0.55696	0.47082	13	2.78403	11	0	78.4061	0.000262228
2	1	0	0	0	0	1281.03	0.544161	0.544519	0.273598	13	2.78495	11	0	80.9066	0.000148979
2	1	0	0	0	0	1283.53	0.531659	0.531949	0.147558	13	2.78546	11	0	83.407	7.84931e-05
2	1	0	0	0	0	1286.03	0.519156	0.519424	0.0642408	13	2.78572	11	0	85.9074	3.33682e-05
2	1	0	0	0	0	1288.53	0.506654	0.506985	0.015766	13	2.78581	11	0	88.4078	7.9931e-06
2	0	0	1	0	0	1291.03	0.494152	0.494447	-0.0139659	13	2.78581	11	0	1.1002	-6.90537e-06
2	0	0	1	0	0	1293.53	0.48165	0.481953	-0.033225	13	2.78575	11	0	3.6006	-1.60129e-05
2	0	0	1	0	0	1296.03	0.469147	0.469466	-0.0423327	13	2.78565	11	0	6.101	-1.98738e-05
2	0	0	1	0	0	1298.53	0.456645	0.457001	-0.0520805	13	2.78553	11	0	8.6014	-2.38008e-05
2	1	0	1	0	1	1300.91	0.455295	0.455601	0.0527361	14	2.7855	11	0	0.9001	2.40266e-05
2	1	0	0	0	1	1303.41	0.467797	0.468088	0.0586338	14	2.78564	11	0	3.4006	2.74458e-05
2	1	0	0	0	1	1305.91	0.480299	0.480644	0.0716611	14	2.7858	11	0	5.901	3.44435e-05
2	1	0	0	0	1	1308.41	0.492802	0.49309	0.0828018	14	2.786	11	0	8.4014	4.08287e-05
2	1	0	0	0	1	1310.91	0.505304	0.505636	0.1116	14	2.78624	11	0	10.9018	5.64289e-05
2	1	0	1	0	1	1313.41	0.517806	0.518091	0.151235	14	2.78656	11	0	13.4024	7.83534e-05
2	1	0	1	0	1	1315.91	0.530308	0.530634	0.226892	14	2.78703	11	0	15.9028	0.000120397
2	1	0	1	0	1	1318.42	0.542811	0.543109	0.341899	14	2.78773	11	0	18.4032	0.000185688
2	1	0	1	0	1	1320.92	0.555313	0.555623	0.526002	14	2.7888	11	0	20.9036	0.000292259
2	1	0	1	0	1	1323.42	0.567815	0.568061	0.784495	14	2.79042	11	0	23.4041	0.000445641
2	1	0	0	0	1	1325.92	0.580317	0.580671	1.13514	14	2.7928	11	0	25.9046	0.000659143
2	1	0	0	0	1	1328.42	0.592819	0.593141	1.5682	14	2.79617	11	0	28.405	0.000930163
2	1	0	0	0	1	1330.92	0.605322	0.605657	2.08631	14	2.80073	11	0	30.9054	0.00126359
2	1	0	0	0	1	1333.42	0.617824	0.61809	2.66341	14	2.80666	11	0	33.4058	0.00164623
2	1	0	1	0	1	1335.92	0.630326	0.630637	3.29642	14	2.8141	11	0	35.9064	0.00207884
2	1	0	1	0	1	1338.42	0.642828	0.643116	3.97836	14	2.82318	11	0	38.4068	0.00255855
2	1	0	1	0	1	1340.92	0.655331	0.655648	4.68677	14	2.83401	11	0	40.9072	0.00307287
2	1	0	1	0	1	1343.42	0.667833	0.668137	5.42705	14	2.84665	11	0	43.4076	0.00362601
2	1	0	1	0	1	1345.92	0.680335	0.680665	6.19994	14	2.86119	11	0	45.9081	0.00422008
2	1	0	0	0	1	1348.42	0.692837	0.693105	6.98845	14	2.87767	11	0	48.4086	0.00484372
2	1	0	1	0	1	1350.71	0.695688	0.696055	7.14499	14	2.89428	11	0	50.7012	0.00497331
2	1	0	1	0	1	1353.21	0.683185	0.683583	6.29545	14	2.91107	11	0	53.2016	0.00430346
2	1	0	1	0	1	1355.71	0.670683	0.670959	5.49615	14	2.9258	11	0	55.702	0.00368769
2	1	0	1	0	1	1358.21	0.658181	0.658502	4.72593	14	2.93857	11	0	58.2024	0.00311204
2	1	0	0	0	1	1360.71	0.645679	0.645966	4.00518	14	2.94948	11	0	60.703	0.00258721
2	1	0	0	0	1	1363.22	0.633177	0.63348	3.32348	14	2.95863	11	0	63.2034	0.00210536
2	1	0	0	0	1	1365.72	0.620674	0.620974	2.68781	14	2.96613	11	0	65.7038	0.00166906
2	1	0	0	0	1	1368.22	0.608172	0.608456	2.09881	14	2.9721	11	0	68.2042	0.00127704
2	1	0	1	0	1	1370.72	0.59567	0.595984	1.57816	14	2.97669	11	0	70.7048	0.000940557
2	1	0	1	0	1	1373.22	0.583168	0.583476	1.13113	14	2.98006	11	0	73.2052	0.000659989
2	1	0	1	0	1	1375.72	0.570665	0.570956	0.76774	14	2.98241	11	0	75.7056	0.000438346
2	1	0	1	0	1	1378.22	0.558163	0.558491	0.488002	14	2.98396	11	0	78.206	0.000272545
2	1	0	1	0	1	1380.72	0.545661	0.546036	0.290354	14	2.98492	11	0	80.7065	0.000158544
2	1	0	0	0	1	1383.22	0.533159	0.533457	0.154169	14	2.98546	11	0	83.207	8.22424e-05
2	1	0	0	0	1	1385.72	0.520657	0.5209	0.0724812	14	2.98573	11	0	85.7074	3.77555e-05
2	1	0	0	0	1	1388.22	0.508154	0.50844	0.0171011	14	2.98584	11	0	88.2078	8.6949e-06
2	0	0	0	0	1	1390.72	0.495652	0.495971	-0.0103607	14	2.98584	11	0	1.1002	-5.13859e-06
2	0	0	1	0	1	1393.22	0.48315	0.483456	-0.0333477	14	2.98579	11	0	3.6008	-1.61222e-05
2	0	0	1	0	1	1395.72	0.470648	0.470998	-0.0403507	14	2.98569	11	0	6.1012	-1.90051e-05
2	0	0	1	0	1	1398.22	0.458145	0.458451	-0.052148	14	2.98558	11	0	8.6016	-2.39073e-05
2	1	0	1	0	0	1400.6	0.453795	0.454091	0.0502105	15	2.98551	11	0	0.5	2.28001e-05
2	1	0	1	0	0	1403.1	0.466297	0.46658	0.0572024	15	2.98565	11	0	3.0004	2.66895e-05
2	1	0	0	0	0	1405.6	0.478799	0.479087	0.0699656	15	2.98581	11	0	5.501	3.35197e-05
2	1	0	0	0	0	1408.1	0.491301	0.491617	0.079554	15	2.986	11	0	8.0014	3.91101e-05
2	1	0	0	0	0	1410.6	0.503804	0.50415	0.106869	15	2.98623	11	0	10.5018	5.38779e-05
2	1	0	0	0	0	1413.1	0.516306	0.516615	0.142278	15	2.98653	11	0	13.0022	7.3503e-05
2	1	0	1	0	0	1415.6	0.528808	0.529075	0.212971	15	2.98697	11	0	15.5027	0.000112678
2	1	0	1	0	0	1418.1	0.54131	0.541691	0.318236	15	2.98763	11	0	18.0032	0.000172386
2	1	0	1	0	0	1420.6	0.553813	0.554138	0.49247	15	2.98863	11	0	20.5036	0.000272897
2	1	0	1	0	0	1423.1	0.566315	0.566641	0.735501	15	2.99015	11	0	23.004	0.000416765
2	1	0	1	0	0	1425.61	0.578817	0.579118	1.07398	15	2.99239	11	0	25.5044	0.000621959
2	1	0	0	0	0	1428.11	0.591319	0.591619	1.49055	15	2.99558	11	0	28.005	0.000881835
2	1	0	0	0	0	1430.61	0.603821	0.604146	1.99338	15	2.99993	11	0	30.5054	0.00120429
2	1	0	0	0	0	1433.11	0.616324	0.61664	2.55581	15	3.0056	11	0	33.0058	0.00157602
2	1	0	0	0	0	1435.61	0.628826	0.629156	3.18319	15	3.01277	11	0	35.5062	0.00200272
2	1	0	1	0	0	1438.11	0.641328	0.64167	3.8478	15	3.02155	11	0	38.0068	0.00246902
2	1	0	1	0	0	1440.61	0.65383	0.65414	4.55992	15	3.03206	11	0	40.5072	0.00298282
2	1	0	1	0	0	1443.11	0.666333	0.666609	5.29133	15	3.04437	11	0	43.0076	0.00352725
2	1	0	1	0	0	1445.61	0.678835	0.679172	6.05177	15	3.05855	11	0	45.508	0.00411019
2	1	0	1	0	0	1448.11	0.691337	0.691651	6.82668	15	3.07466	11	0	48.0085	0.00472169
2	1	0	0	0	0	1450.4	0.697188	0.697494	7.18322	15	3.09105	11	0	50.301	0.00501025
2	1	0	1	0	0	1452.9	0.684686	0.684968	6.34276	15	3.10794	11	0	52.8016	0.00434458
2	1	0	1	0	0	1455.4	0.672184	0.672463	5.53511	15	3.12278	11	0	55.302	0.00372216
2	1	0	1	0	0	1457.9	0.659681	0.659948	4.7659	15	3.13564	11	0	57.8024	0.00314524
2	1	0	1	0	0	1460.4	0.647179	0.647474	4.04001	15	3.14664	11	0	60.3028	0.0026158
2	1	0	0	0	0	1462.9	0.634677	0.635017	3.35942	15	3.15588	11	0	62.8034	0.00213328
2	1	0	0	0	0	1465.4	0.622175	0.622491	2.71609	15	3.16346	11	0	65.3038	0.00169074
2	1	0	0	0	0	1467.91	0.609672	0.609979	2.12911	15	3.1695	11	0	67.8042	0.00129871
2	1	0	0	0	0	1470.41	0.59717	0.597489	1.60379	15	3.17415	11	0	70.3046	0.00095825
2	1	0	1	0	0	1472.91	0.584668	0.585036	1.1518	15	3.17758	11	0	72.8051	0.000673845
2	1	0	1	0	0	1475.41	0.572166	0.572467	0.784319	15	3.17998	11	0	75.3056	0.000448997
2	1	0	1	0	0	1477.91	0.559664	0.560012	0.500464	15	3.18156	11	0	77.806	0.000280266
2	1	0	1	0	0	1480.41	0.547161	0.547473	0.298968	15	3.18255	11	0	80.3064	0.000163677
2	1	0	1	0	0	1482.91	0.534659	0.534937	0.161334	15	3.18311	11	0	82.8068	8.63034e-05
2	1	0	0	0	0	1485.41	0.522157	0.522437	0.0761276	15	3.1834	11	0	85.3074	3.97718e-05
2	1	0	0	0	0	1487.91	0.509655	0.50995	0.0211345	15	3.18351	11	0	87.8078	1.07775e-05
2	0	0	0	0	0	1490.41	0.497152	0.497439	-0.0101459	15	3.18352	11	0	0.8002	-5.04696e-06
2	0	0	0	0	0	1492.91	0.48465	0.484998	-0.0305557	15	3.18347	11	0	3.3006	-1.48195e-05
2	0	0	1	0	0	1495.41	0.472148	0.472443	-0.041353	15	3.18338	11	0	5.8011	-1.95369e-05
2	0	0	1	0	0	1497.91	0.459646	0.45994	-0.0496669	15	3.18326	11	0	8.3016	-2.28438e-05
2	0	0	1	0	0	1499.83	0.450019	0.450327	-0.0663977	15	3.18316	11	0	10.2258	-2.99007e-05