File: ACS_Catal_2026/Figures_Na_K/main_figures/data/EC/20240126_2-102_Add_Na/20240201_2-102_006_K_elctrode6_C02.mpt
EC-Lab ASCII FILE
Nb header lines : 66

Cyclic Voltammetry Advanced

Run on channel : 2 (SN 66414)
User :
CE vs. WE compliance from -10 V to 10 V
Electrode connection : standard
Potential control : Ewe
Ewe ctrl range : min = -1.00 V, max = 1.00 V
Safety Limits :
	Do not start on E overload
Acquisition started on : 02/01/2024 14:47:58.407
Loaded Setting File :  C:\Users\NakamuraT\Documents\EC-Lab\Data\Yatsuzuka\20240126_2-102_Add_Na\20240125_2-102_010_K_elctrode4.mps
Saved on :
	File : 20240201_2-102_006_K_elctrode6_C02.mpr
	Directory : C:\Users\NakamuraT\Documents\EC-Lab\Data\Yatsuzuka\20240126_2-102_Add_Na\
	Host : 192.109.209.100
Device : SP-150e (SN .003411)
Address : 192.109.209.236
EC-Lab for windows v11.50 (software)
Internet server v11.50 (firmware)
Command interpretor v11.50 (firmware)
Electrode material :
Initial state :
Electrolyte :
Comments :
Electrode surface area : 0.001 cm2
Characteristic mass : 0.001 g
Equivalent Weight : 0.000 g/eq.
Density : 0.000 g/cm3
Volume (V) : 0.001 cm3
Cycle Definition : Charge/Discharge alternance
Ei (V)              0.450
vs.                 Ref
ti (h:m:s)          0:00:10.0000
dti (s)             0.0000
dE/dt               5.000
dE/dt unit          mV/s
E1 (V)              0.700
vs.                 Ref
t1 (h:m:s)          0:00:0.0000
dt1 (s)             0.1000
Step percent        50
N                   10
E range min (V)     -1.000
E range max (V)     1.000
I Range             10 mA
I Range min         Unset
I Range max         Unset
I Range init        Unset
Bandwidth           5
E2 (V)              0.450
vs.                 Ref
t2 (h:m:s)          0:00:0.0000
dt2 (s)             0.1000
nc cycles           14
nr                  1
Reverse Scan        0
Ef (V)              0.000
vs.                 Eoc
tf (h:m:s)          0:00:0.0000
dtf (s)             0.1000

mode	ox/red	error	control changes	Ns changes	counter inc.	time/s	control/V	Ewe/V	<I>/mA	cycle number	(Q-Qo)/C	I Range	Ns	step time/s	P/W
2	1	0	1	0	0	0.000000000000000E+000	0.44995	0.450228	0.0105997	1	0.0000000E+000	11	0	0.000000000000000E+000	4.77228e-06
2	1	0	0	0	0	2.4552	0.462226	0.462542	0.123011	1	0.000264192	11	0	2.4002	5.68978e-05
2	1	0	0	0	0	4.9556	0.474728	0.474875	0.127627	1	0.000575976	11	0	4.9006	6.06066e-05
2	1	0	0	0	0	7.456	0.48723	0.487486	0.134657	1	0.000904788	11	0	7.401	6.56436e-05
2	1	0	1	0	0	9.9562	0.499732	0.500037	0.146931	1	0.00125927	11	0	9.9012	7.34709e-05
2	1	0	1	0	0	12.4566	0.512233	0.512441	0.165667	1	0.00165045	11	0	12.4016	8.48947e-05
2	1	0	1	0	0	14.957	0.524735	0.525011	0.190536	1	0.00209391	11	0	14.902	0.000100033
2	1	0	1	0	0	17.4574	0.537237	0.537463	0.226491	1	0.00261186	11	0	17.4024	0.00012173
2	1	0	0	0	0	19.9576	0.549738	0.550019	0.28039	1	0.00324031	11	0	19.9026	0.00015422
2	1	0	0	0	0	22.458	0.56224	0.562492	0.362226	1	0.00403543	11	0	22.403	0.00020375
2	1	0	0	0	0	24.9584	0.574742	0.575016	0.485369	1	0.0050828	11	0	24.9034	0.000279095
2	1	0	0	0	0	27.4588	0.587244	0.587555	0.663544	1	0.00650344	11	0	27.4038	0.000389868
2	1	0	1	0	0	29.959	0.599745	0.599952	0.9088	1	0.00845304	11	0	29.904	0.000545237
2	1	0	1	0	0	32.4594	0.612247	0.6125	1.22784	1	0.0111102	11	0	32.4044	0.000752054
2	1	0	1	0	0	34.9598	0.624749	0.624977	1.61727	1	0.0146573	11	0	34.9048	0.00101076
2	1	0	1	0	0	37.4601	0.637251	0.637524	2.07267	1	0.0192635	11	0	37.4051	0.00132138
2	1	0	0	0	0	39.9604	0.649752	0.650003	2.58289	1	0.0250783	11	0	39.9054	0.00167889
2	1	0	0	0	0	42.4608	0.662254	0.662588	3.13996	1	0.0322297	11	0	42.4058	0.0020805
2	1	0	0	0	0	44.9612	0.674756	0.675015	3.73509	1	0.0408231	11	0	44.9062	0.00252124
2	1	0	1	0	0	47.4614	0.687257	0.687513	4.3606	1	0.0509445	11	0	47.4064	0.00299797
2	1	0	1	0	0	49.9568	0.699734	0.69997	5.00963	1	0.0626372	11	0	49.9018	0.00350659
2	1	0	1	0	0	52.2702	0.688658	0.688895	4.33894	1	0.0734624	11	0	52.2152	0.00298907
2	1	0	1	0	0	54.7706	0.676156	0.676381	3.65545	1	0.0834363	11	0	54.7156	0.00247247
2	1	0	1	0	0	57.271	0.663654	0.663891	3.02847	1	0.0917902	11	0	57.216	0.00201058
2	1	0	1	0	0	59.7714	0.651152	0.651395	2.43687	1	0.0986035	11	0	59.7164	0.00158736
2	1	0	0	0	0	62.2716	0.638651	0.638916	1.89159	1	0.103997	11	0	62.2166	0.00120857
2	1	0	0	0	0	64.772	0.626149	0.626407	1.41186	1	0.108107	11	0	64.717	0.000884401
2	1	0	0	0	0	67.2724	0.613647	0.61387	1.00071	1	0.111109	11	0	67.2174	0.000614306
2	1	0	0	0	0	69.7728	0.601146	0.601426	0.66413	1	0.113175	11	0	69.7178	0.000399425
2	1	0	1	0	0	72.273	0.588644	0.588926	0.408795	1	0.114502	11	0	72.218	0.00024075
2	1	0	1	0	0	74.7734	0.576142	0.576372	0.226739	1	0.115284	11	0	74.7184	0.000130686
2	1	0	1	0	0	77.2738	0.56364	0.563838	0.104548	1	0.115691	11	0	77.2188	5.89483e-05
2	1	0	0	0	0	79.774	0.551139	0.551391	0.0273819	1	0.115851	11	0	79.719	1.50981e-05
2	0	0	0	0	0	82.2744	0.538637	0.538838	-0.0188924	1	0.115857	11	0	1.1002	-1.01799e-05
2	0	0	0	0	0	84.7748	0.526135	0.52635	-0.0476319	1	0.115768	11	0	3.6006	-2.50711e-05
2	0	0	0	0	0	87.2752	0.513633	0.513874	-0.0662076	1	0.115621	11	0	6.101	-3.40224e-05
2	0	0	1	0	0	89.7754	0.501132	0.501392	-0.0792961	1	0.115437	11	0	8.6012	-3.97584e-05
2	0	0	1	0	0	92.2758	0.48863	0.488884	-0.0884922	1	0.115228	11	0	11.1016	-4.32624e-05
2	0	0	1	0	0	94.7762	0.476128	0.476355	-0.0947674	1	0.115003	11	0	13.602	-4.51429e-05
2	0	0	1	0	0	97.2766	0.463627	0.463891	-0.0999586	1	0.114762	11	0	16.1024	-4.63699e-05
2	0	0	0	0	0	99.7768	0.451125	0.451413	-0.105301	1	0.114508	11	0	18.6026	-4.75343e-05
2	1	0	0	0	1	102.152	0.460776	0.460997	0.0963851	2	0.114635	11	0	1.8002	4.44333e-05
2	1	0	0	0	1	104.653	0.473278	0.473522	0.0982988	2	0.114882	11	0	4.3006	4.65467e-05
2	1	0	1	0	1	107.153	0.48578	0.486016	0.0990261	2	0.11513	11	0	6.8009	4.81283e-05
2	1	0	1	0	1	109.653	0.498281	0.498558	0.100547	2	0.115381	11	0	9.3012	5.01287e-05
2	1	0	1	0	1	112.154	0.510783	0.511023	0.104852	2	0.11564	11	0	11.8016	5.3582e-05
2	1	0	1	0	1	114.654	0.523285	0.523452	0.114254	2	0.115916	11	0	14.302	5.98063e-05
2	1	0	0	0	1	117.154	0.535787	0.535992	0.133089	2	0.116226	11	0	16.8022	7.13346e-05
2	1	0	0	0	1	119.655	0.548288	0.548551	0.167438	2	0.116598	11	0	19.3026	9.18483e-05
2	1	0	0	0	1	122.155	0.56079	0.561088	0.224613	2	0.11708	11	0	21.803	0.000126028
2	1	0	0	0	1	124.655	0.573292	0.573577	0.318459	2	0.117747	11	0	24.3034	0.000182661
2	1	0	1	0	1	127.156	0.585793	0.586013	0.466267	2	0.118713	11	0	26.8036	0.000273238
2	1	0	1	0	1	129.656	0.598295	0.598579	0.682266	2	0.120131	11	0	29.304	0.00040839
2	1	0	1	0	1	132.156	0.610797	0.611049	0.976341	2	0.122186	11	0	31.8044	0.000596593
2	1	0	1	0	1	134.657	0.623298	0.623556	1.34948	2	0.125081	11	0	34.3047	0.000841477
2	1	0	0	0	1	137.157	0.6358	0.636014	1.79527	2	0.129004	11	0	36.805	0.00114182
2	1	0	0	0	1	139.657	0.648302	0.648504	2.30649	2	0.134124	11	0	39.3054	0.00149577
2	1	0	0	0	1	142.158	0.660804	0.661039	2.86882	2	0.140589	11	0	41.8058	0.0018964
2	1	0	1	0	1	144.658	0.673306	0.673573	3.4789	2	0.148519	11	0	44.306	0.0023433
2	1	0	1	0	1	147.158	0.685807	0.686102	4.10771	2	0.157999	11	0	46.8064	0.00281831
2	1	0	1	0	1	149.659	0.698309	0.698565	4.75643	2	0.16908	11	0	49.3068	0.00332268
2	1	0	1	0	1	151.957	0.690158	0.690437	4.26556	2	0.17961	11	0	51.6052	0.0029451
2	1	0	1	0	1	154.458	0.677656	0.6779	3.61503	2	0.189461	11	0	54.1056	0.00245063
2	1	0	1	0	1	156.958	0.665154	0.665374	2.96905	2	0.197681	11	0	56.606	0.00197552
2	1	0	0	0	1	159.458	0.652653	0.652987	2.37677	2	0.20435	11	0	59.1062	0.001552
2	1	0	0	0	1	161.959	0.640151	0.640325	1.83938	2	0.209608	11	0	61.6066	0.0011778
2	1	0	0	0	1	164.459	0.627649	0.627884	1.35887	2	0.213585	11	0	64.107	0.000853216
2	1	0	0	0	1	166.959	0.615147	0.615343	0.9532	2	0.216455	11	0	66.6074	0.000586544
2	1	0	1	0	1	169.46	0.602646	0.602821	0.627171	2	0.218411	11	0	69.1076	0.000378072
2	1	0	1	0	1	171.96	0.590144	0.590326	0.381845	2	0.219654	11	0	71.608	0.000225413
2	1	0	1	0	1	174.46	0.577642	0.577895	0.20918	2	0.220377	11	0	74.1084	0.000120884
2	1	0	1	0	1	176.961	0.565141	0.565435	0.0955636	2	0.220745	11	0	76.6087	5.4035e-05
2	1	0	0	0	1	179.461	0.552639	0.552904	0.0224034	2	0.220882	11	0	79.109	1.2387e-05
2	0	0	0	0	1	181.961	0.540137	0.540342	-0.0232112	2	0.220873	11	0	1.4002	-1.2542e-05
2	0	0	0	0	1	184.462	0.527635	0.527922	-0.0513123	2	0.220776	11	0	3.9006	-2.70889e-05
2	0	0	1	0	1	186.962	0.515134	0.515349	-0.0696313	2	0.220625	11	0	6.4008	-3.58845e-05
2	0	0	1	0	1	189.462	0.502632	0.502924	-0.0804511	2	0.22044	11	0	8.9012	-4.04608e-05
2	0	0	1	0	1	191.963	0.49013	0.490322	-0.0873983	2	0.220232	11	0	11.4016	-4.28533e-05
2	0	0	1	0	1	194.463	0.477629	0.477906	-0.0927463	2	0.220007	11	0	13.902	-4.4324e-05
2	0	0	0	0	1	196.963	0.465127	0.465321	-0.0984824	2	0.219768	11	0	16.4022	-4.5826e-05
2	0	0	0	0	1	199.464	0.452625	0.452858	-0.104938	2	0.219516	11	0	18.9026	-4.75221e-05
2	1	0	0	0	0	201.839	0.459276	0.459531	0.0922292	3	0.21958	11	0	1.5002	4.23822e-05
2	1	0	0	0	0	204.34	0.471778	0.472006	0.0959429	3	0.219818	11	0	4.0006	4.52856e-05
2	1	0	1	0	0	206.84	0.484279	0.484549	0.0974223	3	0.220058	11	0	6.5008	4.72059e-05
2	1	0	1	0	0	209.34	0.496781	0.49705	0.0980411	3	0.220299	11	0	9.0012	4.87313e-05
2	1	0	1	0	0	211.841	0.509283	0.509552	0.101242	3	0.220546	11	0	11.5016	5.15883e-05
2	1	0	1	0	0	214.341	0.521785	0.521998	0.107852	3	0.220806	11	0	14.0019	5.62983e-05
2	1	0	0	0	0	216.841	0.534286	0.534547	0.121374	3	0.221093	11	0	16.5022	6.48799e-05
2	1	0	0	0	0	219.342	0.546788	0.547031	0.149615	3	0.221431	11	0	19.0026	8.18442e-05
2	1	0	0	0	0	221.842	0.55929	0.559554	0.197405	3	0.221861	11	0	21.503	0.000110459
2	1	0	1	0	0	224.342	0.571792	0.572042	0.279086	3	0.22245	11	0	24.0032	0.000159649
2	1	0	1	0	0	226.843	0.584293	0.584513	0.410552	3	0.2233	11	0	26.5036	0.000239973
2	1	0	1	0	0	229.343	0.596795	0.596996	0.606829	3	0.224556	11	0	29.004	0.000362275
2	1	0	1	0	0	231.843	0.609297	0.609551	0.879822	3	0.226396	11	0	31.5044	0.000536296
2	1	0	0	0	0	234.344	0.621798	0.622045	1.23247	3	0.229023	11	0	34.0046	0.00076665
2	1	0	0	0	0	236.844	0.6343	0.6345	1.66097	3	0.232631	11	0	36.505	0.00105389
2	1	0	0	0	0	239.344	0.646802	0.647073	2.15591	3	0.237394	11	0	39.0054	0.00139503
2	1	0	0	0	0	241.845	0.659304	0.659545	2.70532	3	0.243462	11	0	41.5058	0.00178428
2	1	0	1	0	0	244.345	0.671805	0.672104	3.30866	3	0.250977	11	0	44.006	0.00222376
2	1	0	1	0	0	246.845	0.684307	0.684501	3.93557	3	0.260031	11	0	46.5064	0.0026939
2	1	0	1	0	0	249.346	0.696809	0.697047	4.59645	3	0.270696	11	0	49.0068	0.00320394
2	1	0	1	0	0	251.644	0.691658	0.691912	4.29029	3	0.281197	11	0	51.3052	0.00296851
2	1	0	1	0	0	254.145	0.679156	0.679403	3.59514	3	0.291043	11	0	53.8056	0.00244255
2	1	0	1	0	0	256.645	0.666654	0.666833	2.92217	3	0.299197	11	0	56.3059	0.0019486
2	1	0	0	0	0	259.145	0.654153	0.654395	2.38246	3	0.30581	11	0	58.8062	0.00155907
2	1	0	0	0	0	261.646	0.641651	0.641833	1.82681	3	0.310934	11	0	61.3066	0.00117251
2	1	0	0	0	0	264.146	0.629149	0.629421	1.33954	3	0.314882	11	0	63.807	0.000843137
2	1	0	1	0	0	266.646	0.616648	0.616897	0.958528	3	0.317739	11	0	66.3072	0.000591313
2	1	0	1	0	0	269.147	0.604146	0.604421	0.631912	3	0.31971	11	0	68.8076	0.000381941
2	1	0	1	0	0	271.647	0.591644	0.591875	0.385143	3	0.320966	11	0	71.308	0.000227957
2	1	0	1	0	0	274.147	0.579143	0.579332	0.211686	3	0.321696	11	0	73.8084	0.000122636
2	1	0	0	0	0	276.648	0.566641	0.566902	0.0953488	3	0.322065	11	0	76.3086	5.40534e-05
2	1	0	0	0	0	279.148	0.554139	0.55436	0.0201026	3	0.322202	11	0	78.809	1.11441e-05
2	0	0	0	0	0	281.648	0.541637	0.541858	-0.0253331	3	0.322193	11	0	1.4002	-1.37269e-05
2	0	0	1	0	0	284.149	0.529135	0.52935	-0.0519448	3	0.322096	11	0	3.9005	-2.7497e-05
2	0	0	1	0	0	286.649	0.516634	0.516847	-0.0677492	3	0.321946	11	0	6.4008	-3.50159e-05
2	0	0	1	0	0	289.149	0.504132	0.504384	-0.0772841	3	0.321763	11	0	8.9012	-3.89809e-05
2	0	0	1	0	0	291.65	0.49163	0.491873	-0.085051	3	0.321556	11	0	11.4016	-4.18343e-05
2	0	0	0	0	0	294.15	0.479129	0.479327	-0.0907198	3	0.321333	11	0	13.9018	-4.34844e-05
2	0	0	0	0	0	296.65	0.466627	0.466921	-0.0971978	3	0.321095	11	0	16.4022	-4.53836e-05
2	0	0	0	0	0	299.151	0.454125	0.454435	-0.103745	3	0.320845	11	0	18.9026	-4.71456e-05
2	1	0	0	0	1	301.526	0.457776	0.458027	0.0890892	4	0.320849	11	0	1.3002	4.08052e-05
2	1	0	1	0	1	304.026	0.470278	0.47048	0.0922563	4	0.321082	11	0	3.8004	4.34047e-05
2	1	0	1	0	1	306.527	0.482779	0.483006	0.0925166	4	0.321317	11	0	6.3008	4.46861e-05
2	1	0	1	0	1	309.027	0.495281	0.495522	0.0931867	4	0.321553	11	0	8.8012	4.6176e-05
2	1	0	1	0	1	311.528	0.507783	0.508041	0.0962976	4	0.321793	11	0	11.3016	4.89231e-05
2	1	0	0	0	1	314.028	0.520284	0.52052	0.10435	4	0.322044	11	0	13.8018	5.43162e-05
2	1	0	0	0	1	316.528	0.532786	0.533015	0.11803	4	0.322318	11	0	16.3022	6.2912e-05
2	1	0	0	0	1	319.029	0.545288	0.545572	0.140304	4	0.322636	11	0	18.8026	7.65459e-05
2	1	0	1	0	1	321.529	0.55779	0.558061	0.181008	4	0.323035	11	0	21.3028	0.000101014
2	1	0	1	0	1	324.029	0.570291	0.570519	0.254203	4	0.323574	11	0	23.8032	0.000145027
2	1	0	1	0	1	326.53	0.582793	0.583031	0.372086	4	0.324348	11	0	26.3036	0.000216938
2	1	0	1	0	1	329.03	0.595295	0.595535	0.55191	4	0.325491	11	0	28.804	0.000328682
2	1	0	0	0	1	331.53	0.607796	0.608118	0.809713	4	0.32718	11	0	31.3042	0.000492401
2	1	0	0	0	1	334.031	0.620298	0.620559	1.15206	4	0.329616	11	0	33.8046	0.000714921
2	1	0	0	0	1	336.531	0.6328	0.63305	1.57279	4	0.333006	11	0	36.305	0.000995657
2	1	0	0	0	1	339.031	0.645302	0.645587	2.06284	4	0.337538	11	0	38.8054	0.00133174
2	1	0	1	0	1	341.532	0.657803	0.658008	2.61094	4	0.343371	11	0	41.3056	0.00171802
2	1	0	1	0	1	344.032	0.670305	0.670501	3.20681	4	0.350644	11	0	43.806	0.00215017
2	1	0	1	0	1	346.532	0.682807	0.683032	3.84532	4	0.359454	11	0	46.3064	0.00262648
2	1	0	1	0	1	349.033	0.695308	0.695575	4.51851	4	0.369911	11	0	48.8067	0.00314296
2	1	0	1	0	1	351.331	0.693158	0.693399	4.35918	4	0.380467	11	0	51.1052	0.00302265
2	1	0	1	0	1	353.831	0.680657	0.680936	3.67001	4	0.390478	11	0	53.6055	0.00249904
2	1	0	0	0	1	356.332	0.668155	0.668321	3.02063	4	0.398842	11	0	56.1058	0.00201875
2	1	0	0	0	1	358.832	0.655653	0.655866	2.40519	4	0.405613	11	0	58.6062	0.00157748
2	1	0	0	0	1	361.333	0.643151	0.643364	1.86033	4	0.410928	11	0	61.1066	0.00119687
2	1	0	1	0	1	363.833	0.63065	0.630888	1.38282	4	0.414968	11	0	63.6068	0.000872407
2	1	0	1	0	1	366.333	0.618148	0.618409	0.974345	4	0.417896	11	0	66.1072	0.000602543
2	1	0	1	0	1	368.834	0.605646	0.605876	0.641642	4	0.419895	11	0	68.6076	0.000388756
2	1	0	1	0	1	371.334	0.593144	0.593414	0.389994	4	0.421165	11	0	71.108	0.000231428
2	1	0	0	0	1	373.834	0.580643	0.580847	0.211889	4	0.421904	11	0	73.6082	0.000123075
2	1	0	0	0	1	376.335	0.568141	0.568441	0.0960506	4	0.422281	11	0	76.1086	5.45991e-05
2	1	0	0	0	1	378.835	0.555639	0.555924	0.0237582	4	0.422422	11	0	78.609	1.32077e-05
2	0	0	0	0	1	381.335	0.543138	0.54342	-0.0223137	4	0.422416	11	0	1.3002	-1.21257e-05
2	0	0	1	0	1	383.836	0.530636	0.530959	-0.0513653	4	0.422321	11	0	3.8004	-2.72729e-05
2	0	0	1	0	1	386.336	0.518134	0.518338	-0.0680936	4	0.422173	11	0	6.3008	-3.52955e-05
2	0	0	1	0	1	388.836	0.505632	0.505893	-0.076911	4	0.421991	11	0	8.8012	-3.89087e-05
2	0	0	1	0	1	391.337	0.493131	0.493386	-0.0838514	4	0.421786	11	0	11.3015	-4.13711e-05
2	0	0	0	0	1	393.837	0.480629	0.480819	-0.0918332	4	0.421565	11	0	13.8018	-4.41551e-05
2	0	0	0	0	1	396.337	0.468127	0.468377	-0.0979943	4	0.42133	11	0	16.3022	-4.58983e-05
2	0	0	0	0	1	398.838	0.455625	0.4559	-0.101114	4	0.421083	11	0	18.8026	-4.60978e-05
2	1	0	1	0	0	401.213	0.456276	0.456493	0.0890977	5	0.42103	11	0	1	4.06725e-05
2	1	0	1	0	0	403.713	0.468777	0.469002	0.094125	5	0.421259	11	0	3.5004	4.41448e-05
2	1	0	1	0	0	406.214	0.481279	0.481536	0.0935507	5	0.421491	11	0	6.0008	4.50481e-05
2	1	0	1	0	0	408.714	0.493781	0.494065	0.0928771	5	0.421723	11	0	8.5012	4.58874e-05
2	1	0	0	0	0	411.214	0.506282	0.506552	0.0939019	5	0.421958	11	0	11.0014	4.75662e-05
2	1	0	0	0	0	413.715	0.518784	0.519041	0.0988678	5	0.422201	11	0	13.5018	5.13164e-05
2	1	0	0	0	0	416.215	0.531286	0.531531	0.110601	5	0.422465	11	0	16.0022	5.87878e-05
2	1	0	1	0	0	418.715	0.543787	0.544002	0.133043	5	0.422769	11	0	18.5025	7.23755e-05
2	1	0	1	0	0	421.216	0.556289	0.556517	0.171915	5	0.423144	11	0	21.0028	9.56735e-05
2	1	0	1	0	0	423.716	0.568791	0.56902	0.236461	5	0.423645	11	0	23.5032	0.000134551
2	1	0	1	0	0	426.217	0.581293	0.581522	0.34245	5	0.424357	11	0	26.0036	0.000199142
2	1	0	0	0	0	428.717	0.593795	0.594082	0.507739	5	0.425409	11	0	28.5038	0.000301638
2	1	0	0	0	0	431.217	0.606296	0.606539	0.750219	5	0.42697	11	0	31.0042	0.000455037
2	1	0	0	0	0	433.718	0.618798	0.619114	1.07652	5	0.429237	11	0	33.5046	0.00066649
2	1	0	0	0	0	436.218	0.6313	0.631571	1.48266	5	0.432419	11	0	36.005	0.000936404
2	1	0	1	0	0	438.718	0.643801	0.644041	1.96133	5	0.43671	11	0	38.5052	0.00126318
2	1	0	1	0	0	441.219	0.656303	0.656597	2.50627	5	0.44229	11	0	41.0056	0.00164561
2	1	0	1	0	0	443.719	0.668805	0.668994	3.0975	5	0.44929	11	0	43.506	0.00207221
2	1	0	1	0	0	446.219	0.681307	0.681532	3.72975	5	0.45782	11	0	46.0064	0.00254195
2	1	0	0	0	0	448.72	0.693808	0.694021	4.39167	5	0.467964	11	0	48.5066	0.00304791
2	1	0	1	0	0	451.018	0.694659	0.694848	4.40025	5	0.478444	11	0	50.8052	0.0030575
2	1	0	0	0	0	453.518	0.682157	0.682466	3.68423	5	0.488547	11	0	53.3054	0.00251436
2	1	0	0	0	0	456.019	0.669655	0.669883	2.99931	5	0.49685	11	0	55.8058	0.00200919
2	1	0	0	0	0	458.519	0.657153	0.657351	2.43	5	0.503627	11	0	58.3062	0.00159736
2	1	0	0	0	0	461.02	0.644652	0.644808	1.89004	5	0.509018	11	0	60.8066	0.00121871
2	1	0	1	0	0	463.52	0.63215	0.63234	1.40987	5	0.513129	11	0	63.3068	0.000891519
2	1	0	1	0	0	466.02	0.619648	0.619828	0.994225	5	0.516118	11	0	65.8072	0.000616248
2	1	0	1	0	0	468.521	0.607146	0.607419	0.659378	5	0.518163	11	0	68.3076	0.000400518
2	1	0	0	0	0	471.021	0.594645	0.594937	0.404533	5	0.519472	11	0	70.8078	0.000240672
2	1	0	0	0	0	473.521	0.582143	0.582347	0.22295	5	0.52024	11	0	73.3082	0.000129834
2	1	0	0	0	0	476.022	0.569641	0.569914	0.100531	5	0.520634	11	0	75.8086	5.72943e-05
2	1	0	0	0	0	478.522	0.557139	0.557305	0.02425	5	0.520785	11	0	78.309	1.35146e-05
2	0	0	1	0	0	481.022	0.544638	0.544887	-0.0213882	5	0.520786	11	0	1.2001	-1.16541e-05
2	0	0	1	0	0	483.523	0.532136	0.532432	-0.0484502	5	0.520696	11	0	3.7005	-2.57965e-05
2	0	0	1	0	0	486.023	0.519634	0.519915	-0.0649447	5	0.520551	11	0	6.2009	-3.37657e-05
2	0	0	1	0	0	488.523	0.507133	0.507386	-0.0755585	5	0.520371	11	0	8.7013	-3.83373e-05
2	0	0	0	0	0	491.024	0.494631	0.494859	-0.0839569	5	0.520169	11	0	11.2015	-4.15469e-05
2	0	0	0	0	0	493.524	0.482129	0.482417	-0.0914713	5	0.51995	11	0	13.7019	-4.41273e-05
2	0	0	0	0	0	496.024	0.469627	0.469822	-0.0971619	5	0.519717	11	0	16.2023	-4.56489e-05
2	0	0	1	0	0	498.525	0.457125	0.45733	-0.100716	5	0.519472	11	0	18.7026	-4.60605e-05
2	1	0	1	0	1	500.9	0.454775	0.454969	0.0844106	6	0.519362	11	0	0.7	3.84042e-05
2	1	0	1	0	1	503.4	0.467277	0.467506	0.0924822	6	0.519588	11	0	3.2004	4.3236e-05
2	1	0	1	0	1	505.901	0.479779	0.480037	0.091024	6	0.519818	11	0	5.7008	4.36949e-05
2	1	0	0	0	1	508.401	0.492281	0.492584	0.0909406	6	0.520048	11	0	8.201	4.47959e-05
2	1	0	0	0	1	510.901	0.504782	0.504977	0.0922106	6	0.52028	11	0	10.7014	4.65642e-05
2	1	0	0	0	1	513.402	0.517284	0.517524	0.0976621	6	0.520519	11	0	13.2018	5.05425e-05
2	1	0	0	0	1	515.902	0.529786	0.530021	0.108771	6	0.520776	11	0	15.7022	5.7651e-05
2	1	0	1	0	1	518.402	0.542287	0.542523	0.128008	6	0.521067	11	0	18.2024	6.94473e-05
2	1	0	1	0	1	520.903	0.554789	0.555038	0.160455	6	0.521421	11	0	20.7028	8.90584e-05
2	1	0	1	0	1	523.403	0.567291	0.567541	0.217147	6	0.521889	11	0	23.2032	0.00012324
2	1	0	1	0	1	525.903	0.579793	0.579989	0.315005	6	0.522548	11	0	25.7035	0.000182699
2	1	0	0	0	1	528.404	0.592294	0.592555	0.470017	6	0.523517	11	0	28.2038	0.000278511
2	1	0	0	0	1	530.904	0.604796	0.604967	0.696034	6	0.524957	11	0	30.7042	0.000421077
2	1	0	0	0	1	533.405	0.617298	0.61753	1.00189	6	0.527063	11	0	33.2046	0.0006187
2	1	0	1	0	1	535.905	0.6298	0.630074	1.38985	6	0.530041	11	0	35.7048	0.000875708
2	1	0	1	0	1	538.405	0.642301	0.642525	1.8595	6	0.534089	11	0	38.2052	0.00119477
2	1	0	1	0	1	540.906	0.654803	0.655026	2.39046	6	0.539391	11	0	40.7056	0.00156581
2	1	0	1	0	1	543.406	0.667305	0.667526	2.96883	6	0.546084	11	0	43.206	0.00198177
2	1	0	0	0	1	545.906	0.679806	0.680074	3.58447	6	0.554274	11	0	45.7062	0.0024377
2	1	0	0	0	1	548.407	0.692308	0.692509	4.2478	6	0.564058	11	0	48.2066	0.00294164
2	1	0	0	0	1	550.705	0.696159	0.69641	4.42337	6	0.574358	11	0	50.505	0.00308048
2	1	0	0	0	1	553.205	0.683657	0.683882	3.71604	6	0.584519	11	0	53.0054	0.00254134
2	1	0	0	0	1	555.706	0.671155	0.671376	3.0668	6	0.592984	11	0	55.5058	0.00205898
2	1	0	0	0	1	558.206	0.658654	0.658885	2.47347	6	0.599902	11	0	58.0062	0.00162973
2	1	0	1	0	1	560.706	0.646152	0.64642	1.91866	6	0.605383	11	0	60.5064	0.00124026
2	1	0	1	0	1	563.207	0.63365	0.633883	1.42553	6	0.609551	11	0	63.0068	0.00090362
2	1	0	1	0	1	565.707	0.621148	0.621346	1.01003	6	0.612579	11	0	65.5072	0.000627581
2	1	0	1	0	1	568.207	0.608647	0.608882	0.670358	6	0.614664	11	0	68.0075	0.000408169
2	1	0	0	0	1	570.708	0.596145	0.596401	0.412753	6	0.616	11	0	70.5078	0.000246166
2	1	0	0	0	1	573.208	0.583643	0.583914	0.231063	6	0.61679	11	0	73.0082	0.000134921
2	1	0	0	0	1	575.709	0.571141	0.571335	0.108563	6	0.617199	11	0	75.5086	6.20257e-05
2	1	0	1	0	1	578.209	0.55864	0.558877	0.0302891	6	0.617363	11	0	78.0088	1.69279e-05
2	0	0	1	0	1	580.709	0.546138	0.546369	-0.0192116	6	0.617371	11	0	1.0002	-1.04966e-05
2	0	0	1	0	1	583.21	0.533636	0.533875	-0.0485591	6	0.617286	11	0	3.5006	-2.59245e-05
2	0	0	1	0	1	585.71	0.521134	0.52135	-0.0635501	6	0.617146	11	0	6.001	-3.31318e-05
2	0	0	0	0	1	588.21	0.508633	0.508894	-0.0738909	6	0.61697	11	0	8.5012	-3.76027e-05
2	0	0	0	0	1	590.711	0.496131	0.496362	-0.0829484	6	0.616771	11	0	11.0016	-4.11724e-05
2	0	0	0	0	1	593.211	0.483629	0.483897	-0.0905528	6	0.616555	11	0	13.502	-4.38182e-05
2	0	0	0	0	1	595.711	0.471128	0.47137	-0.0944745	6	0.616325	11	0	16.0024	-4.45324e-05
2	0	0	1	0	1	598.212	0.458626	0.458843	-0.0981239	6	0.616082	11	0	18.5026	-4.50234e-05
2	1	0	1	0	0	600.587	0.453275	0.453518	0.0714178	7	0.61592	11	0	0.4	3.23893e-05
2	1	0	1	0	0	603.087	0.465777	0.466038	0.0892678	7	0.616139	11	0	2.9004	4.16022e-05
2	1	0	0	0	0	605.588	0.478279	0.478542	0.0894315	7	0.616367	11	0	5.4006	4.27967e-05
2	1	0	0	0	0	608.088	0.49078	0.491065	0.0898039	7	0.616594	11	0	7.901	4.40996e-05
2	1	0	0	0	0	610.588	0.503282	0.503528	0.0909903	7	0.616824	11	0	10.4014	4.58162e-05
2	1	0	0	0	0	613.089	0.515784	0.516039	0.0949396	7	0.617059	11	0	12.9018	4.89926e-05
2	1	0	1	0	0	615.589	0.528285	0.528515	0.103578	7	0.61731	11	0	15.402	5.47423e-05
2	1	0	1	0	0	618.089	0.540787	0.540992	0.120746	7	0.617592	11	0	17.9024	6.53226e-05
2	1	0	1	0	0	620.59	0.553289	0.553529	0.152503	7	0.617931	11	0	20.4028	8.44146e-05
2	1	0	1	0	0	623.09	0.565791	0.566067	0.206685	7	0.618372	11	0	22.9032	0.000116998
2	1	0	0	0	0	625.59	0.578292	0.578521	0.296006	7	0.618989	11	0	25.4034	0.000171246
2	1	0	0	0	0	628.091	0.590794	0.591037	0.436683	7	0.619893	11	0	27.9038	0.000258096
2	1	0	0	0	0	630.591	0.603296	0.603535	0.648906	7	0.621238	11	0	30.4042	0.000391638
2	1	0	1	0	0	633.091	0.615797	0.616042	0.942917	7	0.623216	11	0	32.9045	0.000580876
2	1	0	1	0	0	635.592	0.628299	0.628513	1.32111	7	0.626034	11	0	35.4048	0.000830333
2	1	0	1	0	0	638.092	0.640801	0.64104	1.77587	7	0.629894	11	0	37.9052	0.00113841
2	1	0	1	0	0	640.593	0.653303	0.653528	2.29725	7	0.634974	11	0	40.4056	0.00150132
2	1	0	0	0	0	643.093	0.665805	0.666032	2.86942	7	0.641422	11	0	42.9058	0.00191113
2	1	0	0	0	0	645.593	0.678306	0.678547	3.48338	7	0.649361	11	0	45.4062	0.00236364
2	1	0	0	0	0	648.094	0.690808	0.691043	4.13831	7	0.658891	11	0	47.9066	0.00285975
2	1	0	0	0	0	650.392	0.697659	0.697935	4.48578	7	0.669048	11	0	50.205	0.00313078
2	1	0	0	0	0	652.892	0.685157	0.685366	3.77974	7	0.679367	11	0	52.7054	0.0025905
2	1	0	0	0	0	655.393	0.672655	0.672916	3.1179	7	0.687982	11	0	55.2058	0.00209809
2	1	0	1	0	0	657.893	0.660154	0.660442	2.50177	7	0.694988	11	0	57.706	0.00165228
2	1	0	1	0	0	660.393	0.647652	0.647887	1.95517	7	0.700543	11	0	60.2064	0.00126673
2	1	0	1	0	0	662.894	0.63515	0.635354	1.45813	7	0.704799	11	0	62.7068	0.000926428
2	1	0	1	0	0	665.394	0.622649	0.622831	1.03489	7	0.707899	11	0	65.2072	0.00064456
2	1	0	0	0	0	667.894	0.610147	0.610354	0.69076	7	0.710035	11	0	67.7074	0.000421608
2	1	0	0	0	0	670.395	0.597645	0.597894	0.429246	7	0.711417	11	0	70.2078	0.000256644
2	1	0	0	0	0	672.895	0.585143	0.585373	0.239485	7	0.712238	11	0	72.7082	0.000140188
2	1	0	1	0	0	675.395	0.572642	0.572955	0.113175	7	0.712671	11	0	75.2084	6.48442e-05
2	1	0	1	0	0	677.896	0.56014	0.560367	0.0321453	7	0.712847	11	0	77.7088	1.80132e-05
2	0	0	1	0	0	680.396	0.547638	0.547868	-0.016809	7	0.712864	11	0	0.8002	-9.2091e-06
2	0	0	1	0	0	682.897	0.535136	0.535402	-0.0464896	7	0.712785	11	0	3.3006	-2.48906e-05
2	0	0	0	0	0	685.397	0.522635	0.522841	-0.0645167	7	0.712648	11	0	5.8008	-3.3732e-05
2	0	0	0	0	0	687.897	0.510133	0.510349	-0.0761138	7	0.712474	11	0	8.3012	-3.88446e-05
2	0	0	0	0	0	690.398	0.497631	0.497831	-0.0839123	7	0.712277	11	0	10.8016	-4.17741e-05
2	0	0	0	0	0	692.898	0.48513	0.485352	-0.088739	7	0.712062	11	0	13.302	-4.30696e-05
2	0	0	1	0	0	695.398	0.472628	0.472877	-0.0924686	7	0.711834	11	0	15.8022	-4.37262e-05
2	0	0	1	0	0	697.899	0.460126	0.460359	-0.0971451	7	0.711594	11	0	18.3026	-4.47216e-05
2	1	0	1	0	1	700.274	0.451775	0.452029	0.0391224	8	0.711386	11	0	0.1	1.76845e-05
2	1	0	1	0	1	702.774	0.464276	0.46451	0.0896075	8	0.711594	11	0	2.6003	4.16236e-05
2	1	0	0	0	1	705.275	0.476778	0.47704	0.0891921	8	0.71182	11	0	5.1006	4.25482e-05
2	1	0	0	0	1	707.775	0.48928	0.489546	0.0895381	8	0.712046	11	0	7.601	4.3833e-05
2	1	0	0	0	1	710.275	0.501782	0.502038	0.0917538	8	0.712273	11	0	10.1014	4.60639e-05
2	1	0	1	0	1	712.776	0.514284	0.514576	0.0949712	8	0.712506	11	0	12.6016	4.88699e-05
2	1	0	1	0	1	715.276	0.526785	0.527048	0.102043	8	0.712752	11	0	15.102	5.37817e-05
2	1	0	1	0	1	717.776	0.539287	0.539515	0.116797	8	0.713025	11	0	17.6024	6.30136e-05
2	1	0	1	0	1	720.277	0.551789	0.552003	0.144258	8	0.71335	11	0	20.1028	7.9631e-05
2	1	0	0	0	1	722.777	0.56429	0.5645	0.193231	8	0.713767	11	0	22.603	0.000109079
2	1	0	0	0	1	725.277	0.576792	0.577014	0.276024	8	0.714345	11	0	25.1034	0.00015927
2	1	0	0	0	1	727.778	0.589294	0.589526	0.409184	8	0.715188	11	0	27.6038	0.000241225
2	1	0	0	0	1	730.278	0.601796	0.602094	0.608684	8	0.716443	11	0	30.1042	0.000366485
2	1	0	1	0	1	732.778	0.614297	0.614535	0.887796	8	0.718294	11	0	32.6044	0.000545582
2	1	0	1	0	1	735.279	0.626799	0.627021	1.24974	8	0.720948	11	0	35.1048	0.000783611
2	1	0	1	0	1	737.779	0.639301	0.639511	1.69185	8	0.72461	11	0	37.6052	0.00108195
2	1	0	1	0	1	740.279	0.651803	0.652042	2.20173	8	0.729463	11	0	40.1055	0.00143562
2	1	0	0	0	1	742.78	0.664304	0.664525	2.76595	8	0.735662	11	0	42.6058	0.00183804
2	1	0	0	0	1	745.28	0.676806	0.677081	3.37969	8	0.743337	11	0	45.1062	0.00228832
2	1	0	0	0	1	747.781	0.689308	0.689553	4.02471	8	0.75259	11	0	47.6066	0.00277525
2	1	0	0	0	1	750.079	0.699159	0.6994	4.54295	8	0.762538	11	0	49.905	0.00317734
2	1	0	0	0	1	752.579	0.686657	0.686897	3.83317	8	0.773004	11	0	52.4054	0.00263299
2	1	0	1	0	1	755.08	0.674156	0.674368	3.17206	8	0.781752	11	0	54.9056	0.00213913
2	1	0	1	0	1	757.58	0.661654	0.661911	2.55581	8	0.788898	11	0	57.406	0.00169172
2	1	0	1	0	1	760.08	0.649152	0.649416	1.99748	8	0.79458	11	0	59.9064	0.0012972
2	1	0	1	0	1	762.581	0.636651	0.636906	1.49659	8	0.798931	11	0	62.4068	0.000953186
2	1	0	0	0	1	765.081	0.624149	0.624404	1.06981	8	0.802118	11	0	64.907	0.000667994
2	1	0	0	0	1	767.581	0.611647	0.611868	0.720247	8	0.804335	11	0	67.4074	0.000440696
2	1	0	0	0	1	770.082	0.599145	0.599343	0.448954	8	0.805775	11	0	69.9078	0.000269077
2	1	0	0	0	1	772.582	0.586644	0.586853	0.253438	8	0.806634	11	0	72.4082	0.000148731
2	1	0	1	0	1	775.082	0.574142	0.574387	0.122334	8	0.80709	11	0	74.9084	7.02673e-05
2	1	0	1	0	1	777.583	0.56164	0.561875	0.0389505	8	0.807281	11	0	77.4088	2.18853e-05
2	0	0	1	0	1	780.083	0.549138	0.54939	-0.0119005	8	0.807308	11	0	0.6002	-6.53803e-06
2	0	0	1	0	1	782.583	0.536636	0.53689	-0.0425483	8	0.807235	11	0	3.1005	-2.28438e-05
2	0	0	0	0	1	785.084	0.524135	0.524359	-0.0608326	8	0.807102	11	0	5.6008	-3.18981e-05
2	0	0	0	0	1	787.584	0.511633	0.51187	-0.0722104	8	0.806931	11	0	8.1012	-3.69624e-05
2	0	0	0	0	1	790.085	0.499132	0.499363	-0.0801041	8	0.806737	11	0	10.6016	-4.0001e-05
2	0	0	1	0	1	792.585	0.48663	0.486838	-0.0864818	8	0.806524	11	0	13.1018	-4.21026e-05
2	0	0	1	0	1	795.085	0.474128	0.474384	-0.0928404	8	0.806298	11	0	15.6022	-4.4042e-05
2	0	0	1	0	1	797.586	0.461626	0.461839	-0.0990304	8	0.80606	11	0	18.1026	-4.57361e-05
2	0	0	1	0	0	799.961	0.450275	0.450467	-0.0681578	9	0.805823	11	0	20.478	-3.07029e-05
2	1	0	0	0	0	802.461	0.462776	0.462945	0.090306	9	0.806003	11	0	2.3002	4.18067e-05
2	1	0	0	0	0	804.962	0.475278	0.475513	0.0914428	9	0.806229	11	0	4.8006	4.34822e-05
2	1	0	0	0	0	807.462	0.48778	0.487941	0.091541	9	0.806454	11	0	7.301	4.46666e-05
2	1	0	1	0	0	809.962	0.500282	0.500496	0.0923306	9	0.80668	11	0	9.8013	4.62111e-05
2	1	0	1	0	0	812.463	0.512783	0.513008	0.0942112	9	0.806911	11	0	12.3016	4.83312e-05
2	1	0	1	0	0	814.963	0.525285	0.525532	0.0994782	9	0.807152	11	0	14.802	5.22789e-05
2	1	0	1	0	0	817.463	0.537787	0.53804	0.112303	9	0.807418	11	0	17.3024	6.04236e-05
2	1	0	0	0	0	819.964	0.550289	0.550568	0.137434	9	0.807731	11	0	19.8026	7.56666e-05
2	1	0	0	0	0	822.464	0.56279	0.563028	0.182181	9	0.808128	11	0	22.303	0.000102573
2	1	0	0	0	0	824.964	0.575292	0.575517	0.258254	9	0.808672	11	0	24.8034	0.00014863
2	1	0	0	0	0	827.465	0.587794	0.587978	0.382433	9	0.809461	11	0	27.3038	0.000224862
2	1	0	1	0	0	829.965	0.600295	0.600553	0.570315	9	0.810634	11	0	29.804	0.000342505
2	1	0	1	0	0	832.465	0.612797	0.613034	0.835043	9	0.812374	11	0	32.3044	0.00051191
2	1	0	1	0	0	834.966	0.625299	0.625551	1.18318	9	0.814883	11	0	34.8048	0.00074014
2	1	0	1	0	0	837.466	0.637801	0.638008	1.61285	9	0.818367	11	0	37.3052	0.00102901
2	1	0	0	0	0	839.966	0.650302	0.650544	2.11236	9	0.823013	11	0	39.8054	0.00137418
2	1	0	0	0	0	842.467	0.662804	0.663038	2.67032	9	0.828982	11	0	42.3058	0.00177052
2	1	0	0	0	0	844.967	0.675306	0.675516	3.27229	9	0.836403	11	0	44.8062	0.00221048
2	1	0	1	0	0	847.467	0.687808	0.688065	3.91433	9	0.845382	11	0	47.3064	0.00269331
2	1	0	0	0	0	849.901	0.699984	0.700339	4.58267	9	0.855702	11	0	49.74	0.00320942
2	1	0	1	0	0	852.266	0.688158	0.688347	3.89235	9	0.865696	11	0	52.1053	0.00267929
2	1	0	1	0	0	854.767	0.675656	0.675908	3.21941	9	0.874578	11	0	54.6056	0.00217602
2	1	0	1	0	0	857.267	0.663154	0.663371	2.60088	9	0.881841	11	0	57.106	0.00172535
2	1	0	1	0	0	859.767	0.650652	0.650885	2.03282	9	0.887616	11	0	59.6064	0.00132313
2	1	0	0	0	0	862.268	0.638151	0.638378	1.53063	9	0.892055	11	0	62.1066	0.00097712
2	1	0	0	0	0	864.768	0.625649	0.625911	1.09379	9	0.895322	11	0	64.607	0.000684614
2	1	0	0	0	0	867.268	0.613147	0.613395	0.736007	9	0.897593	11	0	67.1074	0.000451463
2	1	0	0	0	0	869.769	0.600645	0.600901	0.463849	9	0.899075	11	0	69.6078	0.000278727
2	1	0	1	0	0	872.269	0.588144	0.588442	0.264402	9	0.899968	11	0	72.108	0.000155585
2	1	0	1	0	0	874.769	0.575642	0.575915	0.12727	9	0.900446	11	0	74.6084	7.32967e-05
2	1	0	1	0	0	877.27	0.56314	0.563372	0.0429286	9	0.900651	11	0	77.1088	2.41848e-05
2	1	0	1	0	0	879.77	0.550639	0.550871	-0.00806374	9	0.900687	11	0	0.4001	-4.44208e-06
2	0	0	0	0	0	882.27	0.538137	0.538419	-0.042054	9	0.90062	11	0	2.9004	-2.26427e-05
2	0	0	0	0	0	884.771	0.525635	0.525889	-0.0611529	9	0.900491	11	0	5.4008	-3.21597e-05
2	0	0	0	0	0	887.271	0.513133	0.513336	-0.0707653	9	0.900324	11	0	7.9012	-3.63263e-05
2	0	0	1	0	0	889.771	0.500632	0.500879	-0.0802562	9	0.900133	11	0	10.4014	-4.01986e-05
2	0	0	1	0	0	892.272	0.48813	0.488356	-0.087662	9	0.899924	11	0	12.9018	-4.28103e-05
2	0	0	1	0	0	894.772	0.475628	0.475835	-0.0929296	9	0.8997	11	0	15.4022	-4.42191e-05
2	0	0	1	0	0	897.273	0.463127	0.463361	-0.0957704	9	0.899464	11	0	17.9026	-4.43762e-05
2	0	0	0	0	0	899.773	0.450625	0.450876	-0.100816	9	0.899216	11	0	20.4028	-4.54557e-05
2	1	0	0	0	1	902.148	0.461276	0.461482	0.0871714	10	0.899353	11	0	2.0002	4.0228e-05
2	1	0	0	0	1	904.649	0.473778	0.474001	0.0902662	10	0.899577	11	0	4.5006	4.27863e-05
2	1	0	0	0	1	907.149	0.48628	0.486529	0.0898811	10	0.899801	11	0	7.001	4.37298e-05
2	1	0	1	0	1	909.649	0.498781	0.499044	0.0886536	10	0.900025	11	0	9.5012	4.42421e-05
2	1	0	1	0	1	912.15	0.511283	0.511513	0.0938349	10	0.900252	11	0	12.0016	4.79978e-05
2	1	0	1	0	1	914.65	0.523785	0.523978	0.0980533	10	0.90049	11	0	14.502	5.13778e-05
2	1	0	1	0	1	917.15	0.536287	0.536534	0.109072	10	0.90075	11	0	17.0023	5.85206e-05
2	1	0	0	0	1	919.651	0.548788	0.54906	0.131958	10	0.901052	11	0	19.5026	7.24526e-05
2	1	0	0	0	1	922.151	0.56129	0.561544	0.174691	10	0.901432	11	0	22.003	9.80969e-05
2	1	0	0	0	1	924.651	0.573792	0.574037	0.244168	10	0.901946	11	0	24.5034	0.000140162
2	1	0	1	0	1	927.152	0.586293	0.586515	0.355474	10	0.902686	11	0	27.0036	0.000208491
2	1	0	1	0	1	929.652	0.598795	0.599071	0.532924	10	0.903784	11	0	29.504	0.00031926
2	1	0	1	0	1	932.152	0.611297	0.611561	0.786122	10	0.905416	11	0	32.0044	0.000480762
2	1	0	1	0	1	934.653	0.623799	0.624009	1.11969	10	0.907784	11	0	34.5048	0.000698693
2	1	0	0	0	1	937.153	0.6363	0.636538	1.53885	10	0.911094	11	0	37.005	0.000979538
2	1	0	0	0	1	939.653	0.648802	0.648997	2.02544	10	0.915536	11	0	39.5054	0.00131451
2	1	0	0	0	1	942.154	0.661304	0.661495	2.57314	10	0.92128	11	0	42.0058	0.00170212
2	1	0	1	0	1	944.654	0.673805	0.674015	3.16935	10	0.928455	11	0	44.5061	0.00213619
2	1	0	1	0	1	947.154	0.686307	0.68653	3.80191	10	0.937165	11	0	47.0064	0.00261013
2	1	0	1	0	1	949.655	0.698809	0.699073	4.47213	10	0.947508	11	0	49.5068	0.00312635
2	1	0	1	0	1	951.953	0.689658	0.689891	3.94131	10	0.957293	11	0	51.8052	0.00271908
2	1	0	1	0	1	954.454	0.677156	0.67743	3.28228	10	0.966314	11	0	54.3056	0.00222352
2	1	0	1	0	1	956.954	0.664654	0.66491	2.65755	10	0.97373	11	0	56.806	0.00176703
2	1	0	1	0	1	959.454	0.652152	0.652349	2.08806	10	0.979645	11	0	59.3063	0.00136214
2	1	0	0	0	1	961.955	0.639651	0.639894	1.56843	10	0.984201	11	0	61.8066	0.00100363
2	1	0	0	0	1	964.455	0.627149	0.627404	1.13097	10	0.987556	11	0	64.307	0.000709578
2	1	0	0	0	1	966.955	0.614647	0.614834	0.769826	10	0.989915	11	0	66.8074	0.000473315
2	1	0	1	0	1	969.456	0.602146	0.602383	0.48222	10	0.991459	11	0	69.3076	0.000290481
2	1	0	1	0	1	971.956	0.589644	0.589903	0.273752	10	0.992389	11	0	71.808	0.000161487
2	1	0	1	0	1	974.456	0.577142	0.57734	0.137883	10	0.99289	11	0	74.3084	7.96054e-05
2	1	0	1	0	1	976.957	0.56464	0.564896	0.0472906	10	0.993112	11	0	76.8088	2.67143e-05
2	0	0	0	0	1	979.457	0.552139	0.552344	-0.0059121	10	0.993159	11	0	0.2	-3.26551e-06
2	0	0	0	0	1	981.957	0.539637	0.539923	-0.0375271	10	0.993099	11	0	2.7004	-2.02618e-05
2	0	0	0	0	1	984.458	0.527135	0.527382	-0.0605794	10	0.992974	11	0	5.2008	-3.19485e-05
2	0	0	1	0	1	986.958	0.514634	0.514946	-0.0707788	10	0.992809	11	0	7.7011	-3.64473e-05
2	0	0	1	0	1	989.458	0.502132	0.502401	-0.0794221	10	0.992618	11	0	10.2014	-3.99017e-05
2	0	0	1	0	1	991.959	0.48963	0.489873	-0.0869266	10	0.992412	11	0	12.7018	-4.2583e-05
2	0	0	1	0	1	994.459	0.477128	0.477346	-0.0917611	10	0.992191	11	0	15.2022	-4.38018e-05
2	0	0	0	0	1	996.959	0.464627	0.464881	-0.0954319	10	0.991957	11	0	17.7024	-4.43644e-05
2	0	0	0	0	1	999.46	0.452125	0.45236	-0.0995788	10	0.991711	11	0	20.2028	-4.50455e-05
2	1	0	0	0	0	1001.84	0.459776	0.460009	0.0880144	11	0.99179	11	0	1.7002	4.04874e-05
2	1	0	0	0	0	1004.34	0.472278	0.472514	0.0879149	11	0.992012	11	0	4.2006	4.1541e-05
2	1	0	1	0	0	1006.84	0.48478	0.485044	0.0878923	11	0.992235	11	0	6.7008	4.26317e-05
2	1	0	1	0	0	1009.34	0.497281	0.497533	0.0904737	11	0.992459	11	0	9.2012	4.50137e-05
2	1	0	1	0	0	1011.84	0.509783	0.509988	0.0926699	11	0.992685	11	0	11.7016	4.72605e-05
2	1	0	1	0	0	1014.34	0.522285	0.522486	0.0956151	11	0.992919	11	0	14.202	4.99576e-05
2	1	0	0	0	0	1016.84	0.534786	0.535034	0.10597	11	0.993173	11	0	16.7022	5.66976e-05
2	1	0	0	0	0	1019.34	0.547288	0.547524	0.12802	11	0.993465	11	0	19.2026	7.00941e-05
2	1	0	0	0	0	1021.84	0.55979	0.56003	0.166417	11	0.993827	11	0	21.703	9.31986e-05
2	1	0	1	0	0	1024.34	0.572292	0.572519	0.228389	11	0.994313	11	0	24.2033	0.000130757
2	1	0	1	0	0	1026.84	0.584793	0.584998	0.333128	11	0.995007	11	0	26.7036	0.000194879
2	1	0	1	0	0	1029.34	0.597295	0.597536	0.499453	11	0.996036	11	0	29.204	0.000298441
2	1	0	1	0	0	1031.84	0.609797	0.610034	0.740548	11	0.997569	11	0	31.7044	0.000451759
2	1	0	0	0	0	1034.34	0.622298	0.622558	1.06257	11	0.999804	11	0	34.2046	0.000661513
2	1	0	0	0	0	1036.84	0.6348	0.63508	1.4649	11	1.00295	11	0	36.705	0.000930328
2	1	0	0	0	0	1039.34	0.647302	0.647605	1.94418	11	1.0072	11	0	39.2054	0.00125906
2	1	0	0	0	0	1041.84	0.659804	0.659999	2.48487	11	1.01273	11	0	41.7058	0.00164001
2	1	0	1	0	0	1044.34	0.672305	0.672563	3.07462	11	1.01967	11	0	44.206	0.00206788
2	1	0	1	0	0	1046.84	0.684807	0.685044	3.70642	11	1.02815	11	0	46.7064	0.00253906
2	1	0	1	0	0	1049.34	0.697309	0.697537	4.36453	11	1.03824	11	0	49.2068	0.00304442
2	1	0	1	0	0	1051.64	0.691158	0.691402	3.99211	11	1.0481	11	0	51.5052	0.00276016
2	1	0	1	0	0	1054.14	0.678656	0.678895	3.31299	11	1.05722	11	0	54.0056	0.00224917
2	1	0	1	0	0	1056.64	0.666155	0.666366	2.68986	11	1.0647	11	0	56.506	0.00179243
2	1	0	0	0	0	1059.14	0.653653	0.653942	2.1158	11	1.0707	11	0	59.0062	0.00138361
2	1	0	0	0	0	1061.64	0.641151	0.641382	1.60302	11	1.07533	11	0	61.5066	0.00102815
2	1	0	0	0	0	1064.14	0.628649	0.62882	1.15715	11	1.07877	11	0	64.007	0.000727636
2	1	0	1	0	0	1066.64	0.616148	0.616352	0.785808	11	1.08117	11	0	66.5072	0.000484334
2	1	0	1	0	0	1069.14	0.603646	0.603921	0.4979	11	1.08276	11	0	69.0076	0.000300692
2	1	0	1	0	0	1071.64	0.591144	0.591379	0.290516	11	1.08373	11	0	71.508	0.000171805
2	1	0	1	0	0	1074.14	0.578642	0.578929	0.149368	11	1.08427	11	0	74.0084	8.64736e-05
2	1	0	0	0	0	1076.64	0.566141	0.566323	0.0555728	11	1.08451	11	0	76.5086	3.14722e-05
2	0	0	0	0	0	1079.14	0.553639	0.553925	-0.00383621	11	1.08457	11	0	0.000000000000000E+000	-2.12497e-06
2	0	0	0	0	0	1081.64	0.541137	0.541414	-0.0363634	11	1.08452	11	0	2.5004	-1.96877e-05
2	0	0	0	0	0	1084.14	0.528636	0.5289	-0.0558704	11	1.0844	11	0	5.0008	-2.95499e-05
2	0	0	1	0	0	1086.64	0.516134	0.516369	-0.0712324	11	1.08424	11	0	7.501	-3.67822e-05
2	0	0	1	0	0	1089.15	0.503632	0.503893	-0.0795627	11	1.08405	11	0	10.0014	-4.00911e-05
2	0	0	1	0	0	1091.65	0.49113	0.491355	-0.0836611	11	1.08384	11	0	12.5018	-4.11073e-05
2	0	0	1	0	0	1094.15	0.478629	0.478869	-0.0910589	11	1.08362	11	0	15.0021	-4.36053e-05
2	0	0	0	0	0	1096.65	0.466127	0.466401	-0.09553	11	1.08339	11	0	17.5024	-4.45553e-05
2	0	0	0	0	0	1099.15	0.453625	0.453852	-0.0988463	11	1.08315	11	0	20.0028	-4.48616e-05
2	1	0	0	0	1	1101.52	0.458276	0.458523	0.0854141	12	1.08317	11	0	1.4002	3.91643e-05
2	1	0	1	0	1	1104.02	0.470778	0.470971	0.0891202	12	1.08339	11	0	3.9004	4.19731e-05
2	1	0	1	0	1	1106.52	0.483279	0.483499	0.0898456	12	1.08362	11	0	6.4008	4.34403e-05
2	1	0	1	0	1	1109.02	0.495781	0.49595	0.0874763	12	1.08384	11	0	8.9012	4.33838e-05
2	1	0	1	0	1	1111.52	0.508283	0.508536	0.0917125	12	1.08406	11	0	11.4016	4.66391e-05
2	1	0	0	0	1	1114.02	0.520784	0.521008	0.0964304	12	1.08429	11	0	13.9018	5.0241e-05
2	1	0	0	0	1	1116.52	0.533286	0.53347	0.106312	12	1.08454	11	0	16.4022	5.67144e-05
2	1	0	0	0	1	1119.02	0.545788	0.546015	0.125048	12	1.08483	11	0	18.9026	6.82782e-05
2	1	0	1	0	1	1121.52	0.558289	0.558519	0.158642	12	1.08517	11	0	21.4029	8.86045e-05
2	1	0	1	0	1	1124.03	0.570791	0.571073	0.216423	12	1.08563	11	0	23.9032	0.000123593
2	1	0	1	0	1	1126.53	0.583293	0.583531	0.312593	12	1.08629	11	0	26.4036	0.000182407
2	1	0	1	0	1	1129.03	0.595795	0.596058	0.46748	12	1.08725	11	0	28.904	0.000278645
2	1	0	0	0	1	1131.53	0.608297	0.608531	0.697175	12	1.08869	11	0	31.4042	0.000424253
2	1	0	0	0	1	1134.03	0.620798	0.621031	1.00659	12	1.09081	11	0	33.9046	0.000625126
2	1	0	0	0	1	1136.53	0.6333	0.6335	1.39681	12	1.0938	11	0	36.405	0.000884877
2	1	0	0	0	1	1139.03	0.645802	0.646039	1.86638	12	1.09787	11	0	38.9054	0.00120575
2	1	0	1	0	1	1141.53	0.658303	0.658578	2.40114	12	1.10319	11	0	41.4056	0.00158134
2	1	0	1	0	1	1144.03	0.670805	0.671088	2.98863	12	1.10992	11	0	43.906	0.00200563
2	1	0	1	0	1	1146.53	0.683307	0.68352	3.61366	12	1.11817	11	0	46.4064	0.00247001
2	1	0	1	0	1	1149.03	0.695809	0.696011	4.26633	12	1.12802	11	0	48.9068	0.00296941
2	1	0	1	0	1	1151.33	0.692658	0.692925	4.06102	12	1.13792	11	0	51.2052	0.00281398
2	1	0	1	0	1	1153.83	0.680157	0.680445	3.37837	12	1.14721	11	0	53.7056	0.0022988
2	1	0	0	0	1	1156.33	0.667655	0.667982	2.74813	12	1.15486	11	0	56.2058	0.0018357
2	1	0	0	0	1	1158.83	0.655153	0.655379	2.16956	12	1.16099	11	0	58.7062	0.00142189
2	1	0	0	0	1	1161.33	0.642651	0.642931	1.64903	12	1.16575	11	0	61.2066	0.00106021
2	1	0	1	0	1	1163.83	0.63015	0.630373	1.19799	12	1.16929	11	0	63.7069	0.000755182
2	1	0	1	0	1	1166.33	0.617648	0.617964	0.819451	12	1.1718	11	0	66.2072	0.000506391
2	1	0	1	0	1	1168.83	0.605146	0.605313	0.524161	12	1.17346	11	0	68.7076	0.000317281
2	1	0	1	0	1	1171.33	0.592644	0.592943	0.306404	12	1.17448	11	0	71.208	0.00018168
2	1	0	0	0	1	1173.83	0.580143	0.580372	0.155875	12	1.17504	11	0	73.7082	9.04656e-05
2	1	0	0	0	1	1176.33	0.567641	0.567789	0.0630178	12	1.17531	11	0	76.2086	3.57808e-05
2	1	0	0	0	1	1178.83	0.555139	0.555438	0.000448502	12	1.17538	11	0	78.709	2.49115e-07
2	0	0	0	0	1	1181.33	0.542637	0.542883	-0.0322426	12	1.17534	11	0	2.3004	-1.7504e-05
2	0	0	1	0	1	1183.83	0.530136	0.530347	-0.0551868	12	1.17522	11	0	4.8006	-2.92681e-05
2	0	0	1	0	1	1186.33	0.517634	0.517864	-0.070452	12	1.17507	11	0	7.301	-3.64846e-05
2	0	0	1	0	1	1188.83	0.505132	0.505361	-0.0764967	12	1.17488	11	0	9.8014	-3.86584e-05
2	0	0	1	0	1	1191.33	0.492631	0.492863	-0.0841282	12	1.17468	11	0	12.3018	-4.14636e-05
2	0	0	0	0	1	1193.83	0.480129	0.480357	-0.0907873	12	1.17446	11	0	14.802	-4.36103e-05
2	0	0	0	0	1	1196.33	0.467627	0.467847	-0.0926593	12	1.17423	11	0	17.3024	-4.33504e-05
2	0	0	0	0	1	1198.83	0.455125	0.455343	-0.100376	12	1.17399	11	0	19.8028	-4.57057e-05
2	1	0	1	0	0	1201.21	0.456776	0.456973	0.0855556	13	1.17396	11	0	1.1001	3.90966e-05
2	1	0	1	0	0	1203.71	0.469277	0.469527	0.0895135	13	1.17418	11	0	3.6004	4.2029e-05
2	1	0	1	0	0	1206.21	0.481779	0.482051	0.0869009	13	1.1744	11	0	6.1008	4.18907e-05
2	1	0	1	0	0	1208.71	0.494281	0.4946	0.0897501	13	1.17462	11	0	8.6012	4.43904e-05
2	1	0	0	0	0	1211.21	0.506783	0.506999	0.0891071	13	1.17484	11	0	11.1014	4.51772e-05
2	1	0	0	0	0	1213.71	0.519284	0.5196	0.0939041	13	1.17507	11	0	13.6018	4.87926e-05
2	1	0	0	0	0	1216.21	0.531786	0.532097	0.103619	13	1.17531	11	0	16.1022	5.51356e-05
2	1	0	0	0	0	1218.71	0.544288	0.544514	0.118495	13	1.17559	11	0	18.6026	6.45221e-05
2	1	0	1	0	0	1221.21	0.556789	0.557094	0.15248	13	1.17593	11	0	21.1028	8.49458e-05
2	1	0	1	0	0	1223.71	0.569291	0.56953	0.203955	13	1.17637	11	0	23.6032	0.000116158
2	1	0	1	0	0	1226.21	0.581793	0.581997	0.297519	13	1.17698	11	0	26.1036	0.000173155
2	1	0	1	0	0	1228.71	0.594295	0.594531	0.440692	13	1.17789	11	0	28.604	0.000262005
2	1	0	0	0	0	1231.21	0.606796	0.607025	0.658124	13	1.17925	11	0	31.1042	0.000399498
2	1	0	0	0	0	1233.71	0.619298	0.619488	0.955444	13	1.18125	11	0	33.6046	0.000591885
2	1	0	0	0	0	1236.21	0.6318	0.632092	1.33493	13	1.1841	11	0	36.105	0.000843801
2	1	0	1	0	0	1238.71	0.644302	0.644549	1.79321	13	1.188	11	0	38.6052	0.00115581
2	1	0	1	0	0	1241.21	0.656803	0.657024	2.31159	13	1.19312	11	0	41.1056	0.00151877
2	1	0	1	0	0	1243.71	0.669305	0.669531	2.89018	13	1.19962	11	0	43.606	0.00193507
2	1	0	1	0	0	1246.22	0.681807	0.682052	3.50662	13	1.20761	11	0	46.1064	0.0023917
2	1	0	0	0	0	1248.72	0.694308	0.694555	4.17369	13	1.21721	11	0	48.6066	0.00289886
2	1	0	1	0	0	1251.01	0.694158	0.694423	4.13325	13	1.22712	11	0	50.9052	0.00287022
2	1	0	0	0	0	1253.51	0.681657	0.681867	3.44935	13	1.23658	11	0	53.4054	0.002352
2	1	0	0	0	0	1256.01	0.669155	0.669393	2.81142	13	1.2444	11	0	55.9058	0.00188194
2	1	0	0	0	0	1258.52	0.656653	0.656894	2.22759	13	1.25068	11	0	58.4062	0.00146329
2	1	0	0	0	0	1261.02	0.644152	0.6444	1.70146	13	1.25558	11	0	60.9066	0.00109642
2	1	0	1	0	0	1263.52	0.63165	0.631919	1.2409	13	1.25925	11	0	63.4068	0.000784147
2	1	0	1	0	0	1266.02	0.619148	0.619408	0.855162	13	1.26185	11	0	65.9072	0.000529694
2	1	0	1	0	0	1268.52	0.606646	0.606875	0.548628	13	1.26358	11	0	68.4076	0.000332948
2	1	0	1	0	0	1271.02	0.594144	0.594317	0.326114	13	1.26466	11	0	70.9079	0.000193815
2	1	0	0	0	0	1273.52	0.581643	0.58186	0.169288	13	1.26527	11	0	73.4082	9.8502e-05
2	1	0	0	0	0	1276.02	0.569141	0.569357	0.0691619	13	1.26555	11	0	75.9086	3.93778e-05
2	1	0	0	0	0	1278.52	0.556639	0.556876	0.00743792	13	1.26564	11	0	78.409	4.14199e-06
2	0	0	1	0	0	1281.02	0.544138	0.544373	-0.0321325	13	1.26561	11	0	2.0002	-1.74921e-05
2	0	0	1	0	0	1283.52	0.531636	0.53191	-0.0520075	13	1.2655	11	0	4.5006	-2.76633e-05
2	0	0	1	0	0	1286.02	0.519134	0.519348	-0.0685805	13	1.26535	11	0	7.001	-3.56171e-05
2	0	0	1	0	0	1288.52	0.506633	0.506835	-0.0767848	13	1.26517	11	0	9.5014	-3.89172e-05
2	0	0	0	0	0	1291.02	0.494131	0.494353	-0.0821521	13	1.26497	11	0	12.0016	-4.06121e-05
2	0	0	0	0	0	1293.52	0.481629	0.481884	-0.0904071	13	1.26475	11	0	14.502	-4.35657e-05
2	0	0	0	0	0	1296.02	0.469127	0.469369	-0.092989	13	1.26452	11	0	17.0024	-4.36461e-05
2	0	0	0	0	0	1298.52	0.456626	0.456891	-0.0979431	13	1.26428	11	0	19.5028	-4.47493e-05
2	1	0	1	0	1	1300.9	0.455275	0.455493	0.0805938	14	1.26419	11	0	0.8	3.67099e-05
2	1	0	1	0	1	1303.4	0.467777	0.468022	0.0898176	14	1.26441	11	0	3.3004	4.20366e-05
2	1	0	1	0	1	1305.9	0.480279	0.480523	0.0868193	14	1.26463	11	0	5.8008	4.17187e-05
2	1	0	0	0	1	1308.4	0.492781	0.493076	0.0884588	14	1.26485	11	0	8.301	4.36169e-05
2	1	0	0	0	1	1310.9	0.505282	0.505469	0.0899792	14	1.26507	11	0	10.8014	4.54817e-05
2	1	0	0	0	1	1313.4	0.517784	0.518053	0.0912784	14	1.2653	11	0	13.3018	4.7287e-05
2	1	0	0	0	1	1315.9	0.530286	0.530561	0.10163	14	1.26554	11	0	15.8022	5.39209e-05
2	1	0	1	0	1	1318.4	0.542787	0.543046	0.117321	14	1.26581	11	0	18.3024	6.37107e-05
2	1	0	1	0	1	1320.9	0.555289	0.555503	0.143254	14	1.26613	11	0	20.8028	7.95778e-05
2	1	0	1	0	1	1323.4	0.567791	0.568017	0.19593	14	1.26655	11	0	23.3032	0.000111291
2	1	0	1	0	1	1325.9	0.580293	0.580505	0.279213	14	1.26714	11	0	25.8036	0.000162085
2	1	0	0	0	1	1328.4	0.592794	0.592992	0.414522	14	1.268	11	0	28.3038	0.000245808
2	1	0	0	0	1	1330.9	0.605296	0.605499	0.621756	14	1.26928	11	0	30.8042	0.000376473
2	1	0	0	0	1	1333.4	0.617798	0.617983	0.904277	14	1.27117	11	0	33.3046	0.000558828
2	1	0	1	0	1	1335.9	0.630299	0.630536	1.27472	14	1.27388	11	0	35.8049	0.000803754
2	1	0	1	0	1	1338.4	0.642801	0.643024	1.72113	14	1.27761	11	0	38.3052	0.00110672
2	1	0	1	0	1	1340.9	0.655303	0.655538	2.23342	14	1.28254	11	0	40.8056	0.00146409
2	1	0	1	0	1	1343.4	0.667805	0.668039	2.80446	14	1.28883	11	0	43.306	0.00187349
2	1	0	0	0	1	1345.9	0.680306	0.680548	3.41647	14	1.2966	11	0	45.8062	0.00232507
2	1	0	0	0	1	1348.4	0.692808	0.693067	4.07231	14	1.30597	11	0	48.3066	0.00282239
2	1	0	0	0	1	1350.7	0.695659	0.695898	4.20734	14	1.31583	11	0	50.605	0.00292788
2	1	0	0	0	1	1353.2	0.683157	0.6834	3.51501	14	1.32547	11	0	53.1054	0.00240215
2	1	0	0	0	1	1355.7	0.670655	0.670844	2.87264	14	1.33345	11	0	55.6058	0.0019271
2	1	0	0	0	1	1358.2	0.658153	0.658395	2.27611	14	1.33987	11	0	58.1062	0.00149858
2	1	0	1	0	1	1360.7	0.645652	0.64584	1.74238	14	1.34487	11	0	60.6064	0.0011253
2	1	0	1	0	1	1363.2	0.63315	0.633322	1.27707	14	1.34863	11	0	63.1068	0.000808797
2	1	0	1	0	1	1365.7	0.620648	0.620849	0.883344	14	1.35131	11	0	65.6072	0.000548423
2	1	0	1	0	1	1368.2	0.608147	0.608429	0.574076	14	1.35312	11	0	68.1076	0.000349284
2	1	0	0	0	1	1370.7	0.595645	0.595819	0.341496	14	1.35424	11	0	70.6078	0.00020347
2	1	0	0	0	1	1373.2	0.583143	0.583388	0.180705	14	1.35488	11	0	73.1082	0.000105421
2	1	0	0	0	1	1375.7	0.570641	0.570913	0.0776089	14	1.35519	11	0	75.6086	4.43079e-05
2	1	0	1	0	1	1378.2	0.55814	0.55833	0.010409	14	1.3553	11	0	78.1089	5.81167e-06
2	0	0	1	0	1	1380.71	0.545638	0.545839	-0.0296696	14	1.35527	11	0	1.8002	-1.61948e-05
2	0	0	1	0	1	1383.21	0.533136	0.533382	-0.0504409	14	1.35517	11	0	4.3006	-2.69043e-05
2	0	0	1	0	1	1385.71	0.520634	0.520855	-0.06665	14	1.35502	11	0	6.801	-3.4715e-05
2	0	0	0	0	1	1388.21	0.508133	0.508378	-0.0770546	14	1.35484	11	0	9.3012	-3.91729e-05
2	0	0	0	0	1	1390.71	0.495631	0.495838	-0.0809045	14	1.35464	11	0	11.8016	-4.01156e-05
2	0	0	0	0	1	1393.21	0.483129	0.483376	-0.0888822	14	1.35443	11	0	14.302	-4.29636e-05
2	0	0	0	0	1	1395.71	0.470628	0.470851	-0.092662	14	1.3542	11	0	16.8024	-4.363e-05
2	0	0	1	0	1	1398.21	0.458126	0.458377	-0.0962233	14	1.35396	11	0	19.3026	-4.41065e-05
2	1	0	1	0	0	1400.58	0.453775	0.454006	0.0730694	15	1.35382	11	0	0.5	3.31739e-05
2	1	0	1	0	0	1403.08	0.466277	0.466512	0.0891203	15	1.35404	11	0	3.0004	4.15756e-05
2	1	0	1	0	0	1405.58	0.478779	0.478998	0.0884418	15	1.35426	11	0	5.5008	4.23635e-05
2	1	0	0	0	0	1408.08	0.49128	0.491443	0.0863774	15	1.35448	11	0	8.001	4.24496e-05
2	1	0	0	0	0	1410.58	0.503782	0.503976	0.0897521	15	1.3547	11	0	10.5014	4.52329e-05
2	1	0	0	0	0	1413.08	0.516284	0.516497	0.0926282	15	1.35492	11	0	13.0018	4.78422e-05
2	1	0	1	0	0	1415.59	0.528786	0.529016	0.0973901	15	1.35516	11	0	15.5021	5.15209e-05
2	1	0	1	0	0	1418.09	0.541287	0.541528	0.114476	15	1.35543	11	0	18.0024	6.19917e-05
2	1	0	1	0	0	1420.59	0.553789	0.554031	0.138964	15	1.35574	11	0	20.5028	7.69905e-05
2	1	0	1	0	0	1423.09	0.566291	0.566564	0.184537	15	1.35614	11	0	23.0032	0.000104552
2	1	0	0	0	0	1425.59	0.578792	0.579057	0.265232	15	1.35669	11	0	25.5034	0.000153584
2	1	0	0	0	0	1428.09	0.591294	0.591514	0.38945	15	1.3575	11	0	28.0038	0.000230365
2	1	0	0	0	0	1430.59	0.603796	0.604062	0.585296	15	1.3587	11	0	30.5042	0.000353555
2	1	0	0	0	0	1433.09	0.616298	0.616539	0.855805	15	1.36049	11	0	33.0046	0.000527637
2	1	0	1	0	0	1435.59	0.628799	0.629024	1.21284	15	1.36306	11	0	35.5048	0.000762903
2	1	0	1	0	0	1438.09	0.641301	0.641524	1.64739	15	1.36662	11	0	38.0052	0.00105684
2	1	0	1	0	0	1440.59	0.653803	0.654017	2.14912	15	1.37136	11	0	40.5056	0.00140556
2	1	0	1	0	0	1443.09	0.666305	0.666596	2.71094	15	1.37743	11	0	43.0059	0.0018071
2	1	0	0	0	0	1445.59	0.678806	0.679019	3.31885	15	1.38496	11	0	45.5062	0.00225356
2	1	0	0	0	0	1448.09	0.691308	0.691552	3.96018	15	1.39406	11	0	48.0066	0.00273867
2	1	0	0	0	0	1450.39	0.697159	0.697392	4.24752	15	1.40376	11	0	50.305	0.00296219
2	1	0	0	0	0	1452.89	0.684657	0.68493	3.54152	15	1.41349	11	0	52.8054	0.0024257
2	1	0	0	0	0	1455.39	0.672155	0.672386	2.89713	15	1.42152	11	0	55.3058	0.00194799
2	1	0	1	0	0	1457.89	0.659654	0.659882	2.31173	15	1.42802	11	0	57.806	0.00152547
2	1	0	1	0	0	1460.39	0.647152	0.647433	1.76998	15	1.43311	11	0	60.3064	0.00114595
2	1	0	1	0	0	1462.89	0.63465	0.63483	1.30023	15	1.43694	11	0	62.8068	0.000825424
2	1	0	1	0	0	1465.39	0.622148	0.622396	0.907095	15	1.43968	11	0	65.3072	0.000564572
2	1	0	0	0	0	1467.89	0.609647	0.609906	0.591621	15	1.44154	11	0	67.8074	0.000360833
2	1	0	0	0	0	1470.39	0.597145	0.59742	0.358057	15	1.4427	11	0	70.3078	0.000213911
2	1	0	0	0	0	1472.89	0.584643	0.584874	0.193088	15	1.44338	11	0	72.8082	0.000112932
2	1	0	0	0	0	1475.39	0.572142	0.572373	0.0850833	15	1.44371	11	0	75.3086	4.86994e-05
2	1	0	1	0	0	1477.89	0.55964	0.559927	0.0168383	15	1.44383	11	0	77.8088	9.42824e-06
2	0	0	1	0	0	1480.39	0.547138	0.547398	-0.0252984	15	1.44381	11	0	1.5002	-1.38483e-05
2	0	0	1	0	0	1482.89	0.534636	0.534895	-0.051266	15	1.44371	11	0	4.0006	-2.7422e-05
2	0	0	1	0	0	1485.39	0.522134	0.522314	-0.0669008	15	1.44357	11	0	6.5009	-3.49432e-05
2	0	0	0	0	0	1487.89	0.509633	0.509872	-0.0751956	15	1.44339	11	0	9.0012	-3.83402e-05
2	0	0	0	0	0	1490.39	0.497131	0.497422	-0.0807284	15	1.44319	11	0	11.5016	-4.01561e-05
2	0	0	0	0	0	1492.89	0.484629	0.484872	-0.0856503	15	1.44298	11	0	14.002	-4.15294e-05
2	0	0	1	0	0	1495.39	0.472128	0.472331	-0.0908963	15	1.44276	11	0	16.5022	-4.29332e-05
2	0	0	1	0	0	1497.89	0.459626	0.45985	-0.0973638	15	1.44252	11	0	19.0026	-4.47727e-05
2	0	0	1	0	0	1499.81	0.45	0.450209	-0.0938681	15	1.44233	11	0	20.9228	-4.22602e-05