File: ACS_Catal_2026/Figures_Na_K/main_figures/data/EC/20240126_2-102_Add_Na/20240125_2-102_003_K_elctrode1_C01.mpt
EC-Lab ASCII FILE
Nb header lines : 66

Cyclic Voltammetry Advanced

Run on channel : 1 (SN 66412)
User :
CE vs. WE compliance from -10 V to 10 V
Electrode connection : standard
Potential control : Ewe
Ewe ctrl range : min = -1.00 V, max = 1.00 V
Safety Limits :
	Do not start on E overload
Acquisition started on : 01/26/2024 15:49:54.608
Loaded Setting File :  C:\Users\NakamuraT\Documents\EC-Lab\Data\Yatsuzuka\20240125_2-101_K_new_condition\20240125_2-101_004_reused_solution_30min_wait_elctrode1_C01.mpr
Saved on :
	File : 20240125_2-102_003_K_elctrode1_C01.mpr
	Directory : C:\Users\NakamuraT\Documents\EC-Lab\Data\Yatsuzuka\20240126_2-102_Add_Na\
	Host : 192.109.209.100
Device : SP-150e (SN .003411)
Address : 192.109.209.236
EC-Lab for windows v11.50 (software)
Internet server v11.50 (firmware)
Command interpretor v11.50 (firmware)
Electrode material :
Initial state :
Electrolyte :
Comments :
Electrode surface area : 0.001 cm2
Characteristic mass : 0.001 g
Equivalent Weight : 0.000 g/eq.
Density : 0.000 g/cm3
Volume (V) : 0.001 cm3
Cycle Definition : Charge/Discharge alternance
Ei (V)              0.450
vs.                 Ref
ti (h:m:s)          0:00:10.0000
dti (s)             0.0000
dE/dt               5.000
dE/dt unit          mV/s
E1 (V)              0.700
vs.                 Ref
t1 (h:m:s)          0:00:0.0000
dt1 (s)             0.1000
Step percent        50
N                   10
E range min (V)     -1.000
E range max (V)     1.000
I Range             10 mA
I Range min         Unset
I Range max         Unset
I Range init        Unset
Bandwidth           5
E2 (V)              0.450
vs.                 Ref
t2 (h:m:s)          0:00:0.0000
dt2 (s)             0.1000
nc cycles           14
nr                  1
Reverse Scan        0
Ef (V)              0.000
vs.                 Eoc
tf (h:m:s)          0:00:0.0000
dtf (s)             0.1000

mode	ox/red	error	control changes	Ns changes	counter inc.	time/s	control/V	Ewe/V	<I>/mA	cycle number	(Q-Qo)/C	I Range	Ns	step time/s	P/W
2	1	0	1	0	0	0.000000000000000E+000	0.44994	0.45018	0.0194731	1	0.0000000E+000	11	0	0.000000000000000E+000	8.76642e-06
2	1	0	1	0	0	2.4554	0.462217	0.46259	0.135231	1	0.000290938	11	0	2.4004	6.25566e-05
2	1	0	1	0	0	4.9558	0.47472	0.475048	0.139991	1	0.000634185	11	0	4.9008	6.65022e-05
2	1	0	1	0	0	7.4562	0.487222	0.487537	0.152567	1	0.00099954	11	0	7.4012	7.4382e-05
2	1	0	1	0	0	9.9566	0.499724	0.500039	0.167542	1	0.00139731	11	0	9.9016	8.37773e-05
2	1	0	0	0	0	12.4572	0.512226	0.512592	0.18852	1	0.00184186	11	0	12.4022	9.6634e-05
2	1	0	0	0	0	14.9576	0.524729	0.525039	0.223136	1	0.00235358	11	0	14.9026	0.000117155
2	1	0	0	0	0	17.458	0.537231	0.537573	0.269873	1	0.00296598	11	0	17.403	0.000145077
2	1	0	0	0	0	19.9584	0.549733	0.550025	0.346828	1	0.00373165	11	0	19.9034	0.000190764
2	1	0	1	0	0	22.4589	0.562236	0.562512	0.464291	1	0.00473527	11	0	22.4039	0.00026117
2	1	0	1	0	0	24.9594	0.574737	0.575073	0.639241	1	0.0061028	11	0	24.9044	0.00036761
2	1	0	1	0	0	27.4598	0.58724	0.587574	0.895848	1	0.00800583	11	0	27.4048	0.000526378
2	1	0	1	0	0	29.9602	0.599742	0.600031	1.23563	1	0.0106533	11	0	29.9052	0.000741418
2	1	0	1	0	0	32.4606	0.612244	0.612566	1.67036	1	0.0142709	11	0	32.4056	0.00102321
2	1	0	0	0	0	34.9612	0.624746	0.625038	2.1866	1	0.0190801	11	0	34.9062	0.00136671
2	1	0	0	0	0	37.4616	0.637249	0.637601	2.78217	1	0.0252597	11	0	37.4066	0.00177391
2	1	0	0	0	0	39.962	0.649751	0.650011	3.4381	1	0.0330262	11	0	39.907	0.0022348
2	1	0	0	0	0	42.4624	0.662253	0.662524	4.14088	1	0.0424933	11	0	42.4074	0.00274343
2	1	0	1	0	0	44.9629	0.674755	0.675053	4.87892	1	0.0537704	11	0	44.9079	0.00329353
2	1	0	1	0	0	47.4634	0.687257	0.687547	5.64947	1	0.0669281	11	0	47.4084	0.00388428
2	1	0	1	0	0	49.9588	0.699735	0.700022	6.44993	1	0.0820244	11	0	49.9038	0.00451509
2	1	0	1	0	0	52.2722	0.688658	0.688968	5.62467	1	0.0960018	11	0	52.2172	0.00387522
2	1	0	1	0	0	54.7726	0.676155	0.676449	4.77444	1	0.108982	11	0	54.7176	0.00322967
2	1	0	1	0	0	57.2731	0.663653	0.663969	3.99129	1	0.119925	11	0	57.2181	0.00265009
2	1	0	0	0	0	59.7736	0.651151	0.651455	3.25124	1	0.128963	11	0	59.7186	0.00211803
2	1	0	0	0	0	62.274	0.638649	0.638987	2.56973	1	0.136226	11	0	62.219	0.00164203
2	1	0	0	0	0	64.7744	0.626147	0.626455	1.95857	1	0.141868	11	0	64.7194	0.00122695
2	1	0	0	0	0	67.2748	0.613644	0.613962	1.42638	1	0.146077	11	0	67.2198	0.000875742
2	1	0	1	0	0	69.7754	0.601142	0.601446	0.980846	1	0.149068	11	0	69.7204	0.000589926
2	1	0	1	0	0	72.2758	0.58864	0.588944	0.629413	1	0.15106	11	0	72.2208	0.000370689
2	1	0	1	0	0	74.7762	0.576138	0.576389	0.365181	1	0.152284	11	0	74.7212	0.000210487
2	1	0	1	0	0	77.2766	0.563635	0.563924	0.185463	1	0.152958	11	0	77.2216	0.000104587
2	1	0	1	0	0	79.7771	0.551133	0.551491	0.0704706	1	0.153265	11	0	79.7221	3.88639e-05
2	0	0	0	0	0	82.2776	0.538631	0.538953	-0.00304155	1	0.153342	11	0	0.000000000000000E+000	-1.63925e-06
2	0	0	0	0	0	84.778	0.526129	0.52649	-0.0439139	1	0.153279	11	0	2.5004	-2.31202e-05
2	0	0	0	0	0	87.2784	0.513627	0.513961	-0.0695524	1	0.153133	11	0	5.0008	-3.57472e-05
2	0	0	0	0	0	89.7788	0.501124	0.501494	-0.086564	1	0.152937	11	0	7.5012	-4.34113e-05
2	0	0	1	0	0	92.2794	0.488622	0.48888	-0.0943306	1	0.15271	11	0	10.0018	-4.61163e-05
2	0	0	1	0	0	94.7798	0.47612	0.476436	-0.103834	1	0.15246	11	0	12.5022	-4.94705e-05
2	0	0	1	0	0	97.2802	0.463618	0.463957	-0.109663	1	0.152194	11	0	15.0026	-5.08788e-05
2	0	0	1	0	0	99.7806	0.451115	0.451429	-0.11397	1	0.151913	11	0	17.503	-5.14494e-05
2	1	0	0	0	1	102.154	0.460767	0.461108	0.101849	2	0.152048	11	0	1.9002	4.69632e-05
2	1	0	1	0	1	104.655	0.473269	0.473526	0.108315	2	0.152313	11	0	4.4008	5.12899e-05
2	1	0	1	0	1	107.155	0.485772	0.486089	0.109317	2	0.152585	11	0	6.9012	5.31377e-05
2	1	0	1	0	1	109.656	0.498274	0.498603	0.112555	2	0.152863	11	0	9.4016	5.61202e-05
2	1	0	1	0	1	112.156	0.510776	0.511191	0.122113	2	0.153155	11	0	11.902	6.24232e-05
2	1	0	1	0	1	114.656	0.523278	0.523611	0.134821	2	0.153475	11	0	14.4025	7.05938e-05
2	1	0	0	0	1	117.157	0.53578	0.536147	0.164239	2	0.153847	11	0	16.903	8.8056e-05
2	1	0	0	0	1	119.657	0.548283	0.548607	0.215019	2	0.154314	11	0	19.4034	0.000117961
2	1	0	0	0	1	122.158	0.560785	0.56106	0.300985	2	0.154952	11	0	21.9038	0.000168871
2	1	0	0	0	1	124.658	0.573287	0.573605	0.447502	2	0.155876	11	0	24.4042	0.000256689
2	1	0	1	0	1	127.159	0.585789	0.586067	0.666815	2	0.157251	11	0	26.9048	0.000390798
2	1	0	1	0	1	129.659	0.598292	0.598584	0.978474	2	0.15929	11	0	29.4052	0.000585698
2	1	0	1	0	1	132.16	0.610794	0.611134	1.38932	2	0.162233	11	0	31.9056	0.000849063
2	1	0	1	0	1	134.66	0.623296	0.623637	1.88799	2	0.166314	11	0	34.406	0.00117742
2	1	0	0	0	1	137.161	0.635798	0.636096	2.46916	2	0.17175	11	0	36.9066	0.00157062
2	1	0	0	0	1	139.661	0.648301	0.648585	3.1158	2	0.178722	11	0	39.407	0.00202086
2	1	0	0	0	1	142.161	0.660803	0.661121	3.81422	2	0.187381	11	0	41.9074	0.00252166
2	1	0	0	0	1	144.662	0.673305	0.67358	4.55788	2	0.197842	11	0	44.4078	0.00307009
2	1	0	1	0	1	147.162	0.685808	0.6861	5.33882	2	0.210208	11	0	46.9083	0.00366297
2	1	0	1	0	1	149.663	0.698309	0.698632	6.14658	2	0.224568	11	0	49.4088	0.0042942
2	1	0	1	0	1	151.961	0.690158	0.690443	5.54646	2	0.238208	11	0	51.7072	0.00382951
2	1	0	1	0	1	154.462	0.677656	0.677915	4.72124	2	0.251038	11	0	54.2076	0.0032006
2	1	0	1	0	1	156.962	0.665153	0.665472	3.9318	2	0.261843	11	0	56.708	0.0026165
2	1	0	1	0	1	159.462	0.652651	0.6529	3.19815	2	0.270736	11	0	59.2084	0.00208807
2	1	0	0	0	1	161.963	0.640149	0.640478	2.52365	2	0.277877	11	0	61.709	0.00161634
2	1	0	0	0	1	164.463	0.627647	0.627951	1.91873	2	0.283414	11	0	64.2094	0.00120486
2	1	0	0	0	1	166.964	0.615145	0.61542	1.38968	2	0.287529	11	0	66.7098	0.000855234
2	1	0	0	0	1	169.464	0.602642	0.602946	0.947111	2	0.290429	11	0	69.2102	0.000571056
2	1	0	1	0	1	171.965	0.59014	0.590484	0.603366	2	0.292346	11	0	71.7108	0.000356278
2	1	0	1	0	1	174.465	0.577638	0.577993	0.348084	2	0.293515	11	0	74.2112	0.00020119
2	1	0	1	0	1	176.966	0.565136	0.565532	0.172707	2	0.294151	11	0	76.7116	9.76715e-05
2	1	0	1	0	1	179.466	0.552633	0.552983	0.0633967	2	0.294434	11	0	79.212	3.50573e-05
2	0	0	1	0	1	181.966	0.540131	0.540507	-0.00688047	2	0.294495	11	0	0.2	-3.71894e-06
2	0	0	0	0	1	184.467	0.527629	0.527935	-0.0478466	2	0.294424	11	0	2.7006	-2.52599e-05
2	0	0	0	0	1	186.967	0.515127	0.515376	-0.069793	2	0.294273	11	0	5.201	-3.59696e-05
2	0	0	0	0	1	189.468	0.502625	0.502958	-0.0858505	2	0.294075	11	0	7.7014	-4.31792e-05
2	0	0	0	0	1	191.968	0.490122	0.490416	-0.0968693	2	0.293846	11	0	10.2018	-4.75063e-05
2	0	0	1	0	1	194.469	0.47762	0.477977	-0.102127	2	0.293598	11	0	12.7024	-4.88143e-05
2	0	0	1	0	1	196.969	0.465118	0.465442	-0.108018	2	0.293333	11	0	15.2028	-5.0276e-05
2	0	0	1	0	1	199.47	0.452616	0.452891	-0.115481	2	0.293053	11	0	17.7032	-5.23005e-05
2	1	0	0	0	0	201.843	0.459267	0.459546	0.0986539	3	0.293119	11	0	1.6002	4.5336e-05
2	1	0	0	0	0	204.344	0.471769	0.471987	0.104403	3	0.293373	11	0	4.1006	4.92767e-05
2	1	0	1	0	0	206.844	0.484271	0.484563	0.104923	3	0.293634	11	0	6.6012	5.08419e-05
2	1	0	1	0	0	209.345	0.496774	0.497021	0.106659	3	0.293901	11	0	9.1016	5.30116e-05
2	1	0	1	0	0	211.845	0.509276	0.509538	0.114085	3	0.294178	11	0	11.602	5.81307e-05
2	1	0	1	0	0	214.345	0.521778	0.522052	0.127742	3	0.294477	11	0	14.1024	6.66879e-05
2	1	0	1	0	0	216.846	0.53428	0.534546	0.149454	3	0.29482	11	0	16.6029	7.98898e-05
2	1	0	0	0	0	219.346	0.546782	0.547171	0.191178	3	0.295243	11	0	19.1034	0.000104607
2	1	0	0	0	0	221.847	0.559285	0.55955	0.268638	3	0.29581	11	0	21.6038	0.000150316
2	1	0	0	0	0	224.347	0.571787	0.572166	0.394834	3	0.296626	11	0	24.1042	0.000225911
2	1	0	0	0	0	226.848	0.584289	0.58461	0.590476	3	0.297842	11	0	26.6046	0.000345198
2	1	0	1	0	0	229.348	0.596791	0.597103	0.877066	3	0.29966	11	0	29.1052	0.000523699
2	1	0	1	0	0	231.849	0.609294	0.609653	1.26305	3	0.302317	11	0	31.6056	0.000770025
2	1	0	1	0	0	234.349	0.621796	0.622106	1.74113	3	0.306055	11	0	34.106	0.00108317
2	1	0	1	0	0	236.849	0.634298	0.634611	2.30156	3	0.311097	11	0	36.6064	0.0014606
2	1	0	1	0	0	239.35	0.6468	0.647092	2.93596	3	0.317635	11	0	39.1069	0.00189984
2	1	0	0	0	0	241.85	0.659302	0.6596	3.63395	3	0.325843	11	0	41.6074	0.00239695
2	1	0	0	0	0	244.351	0.671805	0.672134	4.37223	3	0.335846	11	0	44.1078	0.00293872
2	1	0	0	0	0	246.851	0.684307	0.684637	5.14583	3	0.347744	11	0	46.6082	0.00352302
2	1	0	0	0	0	249.352	0.696809	0.6971	5.9555	3	0.361619	11	0	49.1086	0.00415158
2	1	0	1	0	0	251.65	0.691658	0.691984	5.56412	3	0.37521	11	0	51.4071	0.00385028
2	1	0	1	0	0	254.151	0.679156	0.679428	4.72618	3	0.388062	11	0	53.9076	0.0032111
2	1	0	1	0	0	256.651	0.666654	0.667039	3.94375	3	0.398882	11	0	56.408	0.00263064
2	1	0	1	0	0	259.151	0.654152	0.654381	3.20551	3	0.407805	11	0	58.9084	0.00209763
2	1	0	1	0	0	261.652	0.641649	0.641933	2.53074	3	0.414961	11	0	61.4088	0.00162456
2	1	0	0	0	0	264.152	0.629147	0.629447	1.9245	3	0.420512	11	0	63.9094	0.00121137
2	1	0	0	0	0	266.653	0.616645	0.617013	1.39611	3	0.424644	11	0	66.4098	0.000861419
2	1	0	0	0	0	269.153	0.604143	0.604394	0.952807	3	0.427561	11	0	68.9102	0.000575871
2	1	0	0	0	0	271.654	0.59164	0.59196	0.605999	3	0.429488	11	0	71.4106	0.000358727
2	1	0	1	0	0	274.154	0.579138	0.579488	0.349834	3	0.430661	11	0	73.9111	0.000202725
2	1	0	1	0	0	276.655	0.566636	0.567002	0.174201	3	0.431301	11	0	76.4116	9.87725e-05
2	1	0	1	0	0	279.155	0.554134	0.5544	0.0635565	3	0.431586	11	0	78.912	3.52358e-05
2	1	0	1	0	0	281.655	0.541632	0.541956	-0.00482881	3	0.431649	11	0	0.1	-2.617e-06
2	0	0	1	0	0	284.156	0.529129	0.529338	-0.0478338	3	0.431579	11	0	2.6004	-2.53203e-05
2	0	0	0	0	0	286.656	0.516627	0.517018	-0.0706112	3	0.43143	11	0	5.101	-3.65073e-05
2	0	0	0	0	0	289.157	0.504125	0.504361	-0.0839437	3	0.431234	11	0	7.6014	-4.2338e-05
2	0	0	0	0	0	291.657	0.491623	0.491984	-0.0958723	3	0.431007	11	0	10.1018	-4.71676e-05
2	0	0	0	0	0	294.158	0.47912	0.479371	-0.102418	3	0.430761	11	0	12.6022	-4.90965e-05
2	0	0	1	0	0	296.658	0.466618	0.466923	-0.106843	3	0.430498	11	0	15.1027	-4.98873e-05
2	0	0	1	0	0	299.159	0.454116	0.454445	-0.114417	3	0.430221	11	0	17.6032	-5.19963e-05
2	1	0	0	0	1	301.532	0.457767	0.458078	0.0960289	4	0.430222	11	0	1.3002	4.39888e-05
2	1	0	0	0	1	304.033	0.470269	0.470554	0.102224	4	0.430471	11	0	3.8006	4.8102e-05
2	1	0	0	0	1	306.533	0.482771	0.483081	0.101765	4	0.430727	11	0	6.301	4.91607e-05
2	1	0	1	0	1	309.034	0.495273	0.495602	0.105992	4	0.430987	11	0	8.8016	5.25297e-05
2	1	0	1	0	1	311.534	0.507776	0.50815	0.111154	4	0.431256	11	0	11.302	5.64827e-05
2	1	0	1	0	1	314.034	0.520278	0.520638	0.119603	4	0.431544	11	0	13.8024	6.22696e-05
2	1	0	1	0	1	316.535	0.53278	0.533078	0.141357	4	0.431868	11	0	16.3028	7.53545e-05
2	1	0	1	0	1	319.035	0.545282	0.545629	0.179212	4	0.432263	11	0	18.8033	9.77836e-05
2	1	0	0	0	1	321.536	0.557784	0.55803	0.243506	4	0.432785	11	0	21.3038	0.000135884
2	1	0	0	0	1	324.036	0.570287	0.570669	0.358309	4	0.433527	11	0	23.8042	0.000204476
2	1	0	0	0	1	326.537	0.582789	0.583133	0.538206	4	0.434631	11	0	26.3046	0.000313845
2	1	0	0	0	1	329.037	0.595291	0.595564	0.801457	4	0.436288	11	0	28.805	0.000477319
2	1	0	1	0	1	331.538	0.607793	0.608034	1.16499	4	0.438729	11	0	31.3056	0.000708352
2	1	0	1	0	1	334.038	0.620296	0.620591	1.62408	4	0.442198	11	0	33.806	0.00100789
2	1	0	1	0	1	336.538	0.632798	0.633086	2.16726	4	0.446925	11	0	36.3064	0.00137206
2	1	0	1	0	1	339.039	0.6453	0.645601	2.78585	4	0.453108	11	0	38.8068	0.00179855
2	1	0	1	0	1	341.539	0.657802	0.658067	3.46581	4	0.460915	11	0	41.3072	0.00228073
2	1	0	0	0	1	344.04	0.670304	0.670624	4.1905	4	0.470481	11	0	43.8078	0.00281025
2	1	0	0	0	1	346.54	0.682807	0.683134	4.96455	4	0.481921	11	0	46.3082	0.00339145
2	1	0	0	0	1	349.041	0.695309	0.695592	5.766	4	0.495341	11	0	48.8086	0.00401079
2	1	0	0	0	1	351.339	0.693158	0.693443	5.57809	4	0.508802	11	0	51.107	0.00386809
2	1	0	0	0	1	353.839	0.680656	0.680982	4.7374	4	0.521689	11	0	53.6074	0.00322608
2	1	0	1	0	1	356.34	0.668154	0.668473	3.95104	4	0.532538	11	0	56.108	0.00264117
2	1	0	1	0	1	358.84	0.655652	0.655916	3.22262	4	0.541492	11	0	58.6084	0.00211377
2	1	0	1	0	1	361.341	0.64315	0.643462	2.55129	4	0.548697	11	0	61.1088	0.00164166
2	1	0	1	0	1	363.841	0.630647	0.630962	1.94281	4	0.554298	11	0	63.6092	0.00122584
2	1	0	0	0	1	366.342	0.618145	0.618469	1.4074	4	0.558463	11	0	66.1098	0.000870433
2	1	0	0	0	1	368.842	0.605643	0.605969	0.962995	4	0.561407	11	0	68.6102	0.000583546
2	1	0	0	0	1	371.343	0.593141	0.593449	0.613909	4	0.563357	11	0	71.1106	0.000364324
2	1	0	0	0	1	373.843	0.580638	0.580975	0.356312	4	0.564549	11	0	73.611	0.000207008
2	1	0	1	0	1	376.343	0.568136	0.56849	0.177631	4	0.565201	11	0	76.1115	0.000100982
2	1	0	1	0	1	378.844	0.555634	0.555943	0.0656727	4	0.565494	11	0	78.612	3.65103e-05
2	1	0	1	0	1	381.344	0.543132	0.543411	-0.00338073	4	0.565563	11	0	0.1	-1.83713e-06
2	0	0	1	0	1	383.845	0.53063	0.530875	-0.0463281	4	0.565497	11	0	2.6004	-2.45944e-05
2	0	0	1	0	1	386.345	0.518127	0.518438	-0.068186	4	0.565352	11	0	5.1008	-3.53502e-05
2	0	0	0	0	1	388.846	0.505625	0.505907	-0.0837118	4	0.565159	11	0	7.6014	-4.23504e-05
2	0	0	0	0	1	391.346	0.493123	0.493471	-0.0952642	4	0.564936	11	0	10.1018	-4.70102e-05
2	0	0	0	0	1	393.847	0.480621	0.480923	-0.0999627	4	0.564692	11	0	12.6022	-4.80744e-05
2	0	0	0	0	1	396.347	0.468119	0.468433	-0.106505	4	0.564432	11	0	15.1026	-4.98904e-05
2	0	0	1	0	1	398.847	0.455616	0.455894	-0.113614	4	0.564158	11	0	17.6031	-5.17957e-05
2	1	0	0	0	0	401.221	0.456266	0.456581	0.0936075	5	0.564096	11	0	1.0002	4.27395e-05
2	1	0	0	0	0	403.722	0.468769	0.469089	0.0993012	5	0.56434	11	0	3.5006	4.65811e-05
2	1	0	0	0	0	406.222	0.481271	0.481565	0.101146	5	0.564592	11	0	6.001	4.87085e-05
2	1	0	0	0	0	408.722	0.493773	0.494092	0.105089	5	0.564848	11	0	8.5014	5.19237e-05
2	1	0	1	0	0	411.223	0.506275	0.506624	0.107026	5	0.565112	11	0	11.0019	5.42217e-05
2	1	0	1	0	0	413.723	0.518777	0.519083	0.11668	5	0.565391	11	0	13.5024	6.05668e-05
2	1	0	1	0	0	416.224	0.53128	0.531565	0.135638	5	0.565703	11	0	16.0028	7.21002e-05
2	1	0	1	0	0	418.724	0.543782	0.5441	0.166296	5	0.566077	11	0	18.5032	9.04814e-05
2	1	0	1	0	0	421.225	0.556284	0.556584	0.226783	5	0.566564	11	0	21.0036	0.000126224
2	1	0	0	0	0	423.725	0.568786	0.569086	0.330145	5	0.567249	11	0	23.5042	0.000187881
2	1	0	0	0	0	426.226	0.581289	0.581624	0.492513	5	0.568263	11	0	26.0046	0.000286457
2	1	0	0	0	0	428.726	0.593791	0.594062	0.740996	5	0.569789	11	0	28.505	0.000440197
2	1	0	0	0	0	431.226	0.606293	0.606652	1.08535	5	0.572053	11	0	31.0054	0.000658432
2	1	0	1	0	0	433.727	0.618795	0.619122	1.52305	5	0.575297	11	0	33.5059	0.000942956
2	1	0	1	0	0	436.227	0.631297	0.631582	2.05293	5	0.579755	11	0	36.0064	0.00129659
2	1	0	1	0	0	438.728	0.6438	0.644096	2.66138	5	0.585636	11	0	38.5068	0.00171418
2	1	0	1	0	0	441.228	0.656302	0.656599	3.32879	5	0.593116	11	0	41.0072	0.00218568
2	1	0	1	0	0	443.729	0.668805	0.669082	4.05242	5	0.602338	11	0	43.5077	0.0027114
2	1	0	0	0	0	446.229	0.681306	0.681593	4.81159	5	0.613415	11	0	46.0082	0.00327954
2	1	0	0	0	0	448.73	0.693809	0.694156	5.59919	5	0.626428	11	0	48.5086	0.00388671
2	1	0	0	0	0	451.028	0.694659	0.694953	5.61733	5	0.639765	11	0	50.807	0.00390378
2	1	0	0	0	0	453.528	0.682157	0.682499	4.77074	5	0.652738	11	0	53.3074	0.00325603
2	1	0	0	0	0	456.029	0.669654	0.669968	3.98197	5	0.663667	11	0	55.8078	0.00266779
2	1	0	1	0	0	458.529	0.657152	0.657451	3.24859	5	0.672688	11	0	58.3084	0.00213579
2	1	0	1	0	0	461.03	0.64465	0.644904	2.57267	5	0.679949	11	0	60.8088	0.00165912
2	1	0	1	0	0	463.53	0.632148	0.63245	1.96342	5	0.685606	11	0	63.3092	0.00124177
2	1	0	1	0	0	466.031	0.619645	0.619959	1.43018	5	0.689829	11	0	65.8096	0.00088665
2	1	0	0	0	0	468.531	0.607143	0.607465	0.980404	5	0.69282	11	0	68.3102	0.000595561
2	1	0	0	0	0	471.032	0.594641	0.594998	0.62465	5	0.694806	11	0	70.8106	0.000371665
2	1	0	0	0	0	473.532	0.582139	0.58249	0.365829	5	0.696025	11	0	73.311	0.000213092
2	1	0	0	0	0	476.032	0.569637	0.569956	0.185548	5	0.696697	11	0	75.8114	0.000105754
2	1	0	0	0	0	478.533	0.557134	0.557457	0.0682834	5	0.697004	11	0	78.3118	3.80651e-05
2	1	0	1	0	0	481.033	0.544632	0.544928	-0.000182075	5	0.697082	11	0	0.000000000000000E+000	-9.92178e-08
2	0	0	1	0	0	483.534	0.53213	0.532396	-0.0426044	5	0.697022	11	0	2.4004	-2.26824e-05
2	0	0	1	0	0	486.034	0.519628	0.519963	-0.0690202	5	0.696881	11	0	4.9008	-3.5888e-05
2	0	0	1	0	0	488.535	0.507125	0.507506	-0.0822026	5	0.696691	11	0	7.4012	-4.17183e-05
2	0	0	1	0	0	491.035	0.494624	0.494913	-0.0918095	5	0.696471	11	0	9.9017	-4.54377e-05
2	0	0	0	0	0	493.536	0.482121	0.48245	-0.101093	5	0.696229	11	0	12.4022	-4.87724e-05
2	0	0	0	0	0	496.036	0.469619	0.469966	-0.104896	5	0.695972	11	0	14.9026	-4.92974e-05
2	0	0	0	0	0	498.536	0.457117	0.457437	-0.110527	5	0.695701	11	0	17.403	-5.05592e-05
2	1	0	1	0	1	500.91	0.454766	0.455063	0.0856152	6	0.695579	11	0	0.7	3.89603e-05
2	1	0	0	0	1	503.411	0.467268	0.467544	0.0995015	6	0.695817	11	0	3.2006	4.65213e-05
2	1	0	0	0	1	505.911	0.479771	0.48003	0.100164	6	0.696066	11	0	5.701	4.80819e-05
2	1	0	0	0	1	508.411	0.492273	0.492515	0.100733	6	0.696319	11	0	8.2014	4.96126e-05
2	1	0	0	0	1	510.912	0.504775	0.505107	0.106757	6	0.696578	11	0	10.7018	5.39236e-05
2	1	0	1	0	1	513.412	0.517278	0.51757	0.113291	6	0.696851	11	0	13.2023	5.86361e-05
2	1	0	1	0	1	515.913	0.529779	0.5301	0.127953	6	0.697152	11	0	15.7028	6.78278e-05
2	1	0	1	0	1	518.413	0.542282	0.542609	0.159647	6	0.697508	11	0	18.2032	8.66258e-05
2	1	0	1	0	1	520.914	0.554784	0.555118	0.211952	6	0.697966	11	0	20.7036	0.000117658
2	1	0	1	0	1	523.414	0.567286	0.567632	0.303168	6	0.698602	11	0	23.204	0.000172088
2	1	0	0	0	1	525.915	0.579788	0.580095	0.457091	6	0.699541	11	0	25.7046	0.000265156
2	1	0	0	0	1	528.415	0.592291	0.592582	0.688062	6	0.700954	11	0	28.205	0.000407734
2	1	0	0	0	1	530.915	0.604793	0.605021	1.01164	6	0.703061	11	0	30.7054	0.000612066
2	1	0	0	0	1	533.416	0.617295	0.617658	1.43661	6	0.706104	11	0	33.2058	0.000887336
2	1	0	1	0	1	535.916	0.629797	0.630078	1.9489	6	0.71032	11	0	35.7063	0.00122796
2	1	0	1	0	1	538.417	0.642299	0.642648	2.53973	6	0.715921	11	0	38.2068	0.00163215
2	1	0	1	0	1	540.917	0.654802	0.655059	3.19844	6	0.723085	11	0	40.7072	0.00209517
2	1	0	1	0	1	543.418	0.667304	0.667647	3.91181	6	0.731965	11	0	43.2076	0.00261171
2	1	0	1	0	1	545.918	0.679806	0.680162	4.66071	6	0.742679	11	0	45.708	0.00317003
2	1	0	0	0	1	548.419	0.692308	0.69264	5.44343	6	0.755311	11	0	48.2086	0.00377034
2	1	0	0	0	1	550.717	0.696159	0.696474	5.65692	6	0.768464	11	0	50.507	0.0039399
2	1	0	0	0	1	553.217	0.683657	0.683946	4.8015	6	0.781526	11	0	53.0074	0.00328397
2	1	0	0	0	1	555.718	0.671155	0.671548	4.00536	6	0.79252	11	0	55.5078	0.00268979
2	1	0	0	0	1	558.218	0.658652	0.658937	3.27373	6	0.801602	11	0	58.0082	0.00215718
2	1	0	1	0	1	560.719	0.64615	0.646478	2.59353	6	0.808922	11	0	60.5088	0.00167666
2	1	0	1	0	1	563.219	0.633648	0.633901	1.97927	6	0.814623	11	0	63.0092	0.00125466
2	1	0	1	0	1	565.72	0.621146	0.621428	1.44629	6	0.818886	11	0	65.5096	0.000898766
2	1	0	1	0	1	568.22	0.608643	0.608976	0.992835	6	0.821912	11	0	68.01	0.000604613
2	1	0	1	0	1	570.72	0.596141	0.596393	0.638536	6	0.823933	11	0	70.5105	0.000380818
2	1	0	0	0	1	573.221	0.583639	0.583906	0.378473	6	0.825184	11	0	73.011	0.000220993
2	1	0	0	0	1	575.721	0.571137	0.571451	0.193827	6	0.825882	11	0	75.5114	0.000110763
2	1	0	0	0	1	578.222	0.558635	0.558907	0.0743345	6	0.826207	11	0	78.0118	4.1546e-05
2	1	0	0	0	1	580.722	0.546132	0.546424	0.00384717	6	0.826296	11	0	80.5122	2.10219e-06
2	0	0	1	0	1	583.223	0.53363	0.533899	-0.0401478	6	0.826244	11	0	2.3004	-2.14349e-05
2	0	0	1	0	1	585.723	0.521128	0.521463	-0.0667755	6	0.826109	11	0	4.8008	-3.4821e-05
2	0	0	1	0	1	588.224	0.508626	0.508881	-0.0803803	6	0.825923	11	0	7.3012	-4.09041e-05
2	0	0	1	0	1	590.724	0.496123	0.496491	-0.090623	6	0.825706	11	0	9.8016	-4.49935e-05
2	0	0	1	0	1	593.224	0.483621	0.483931	-0.0995388	6	0.825468	11	0	12.3021	-4.817e-05
2	0	0	0	0	1	595.725	0.471119	0.471364	-0.103905	6	0.825214	11	0	14.8026	-4.89772e-05
2	0	0	0	0	1	598.225	0.458617	0.458908	-0.109164	6	0.824945	11	0	17.303	-5.00961e-05
2	1	0	1	0	0	600.599	0.453266	0.453514	0.0743577	7	0.824767	11	0	0.4	3.37223e-05
2	1	0	1	0	0	603.099	0.465768	0.466061	0.0968811	7	0.825	11	0	2.9004	4.51525e-05
2	1	0	0	0	0	605.6	0.47827	0.47857	0.100498	7	0.825246	11	0	5.401	4.80951e-05
2	1	0	0	0	0	608.1	0.490773	0.491054	0.100727	7	0.825497	11	0	7.9014	4.94624e-05
2	1	0	0	0	0	610.601	0.503275	0.503615	0.102627	7	0.825753	11	0	10.4018	5.16846e-05
2	1	0	0	0	0	613.101	0.515777	0.516083	0.111587	7	0.826021	11	0	12.9022	5.75879e-05
2	1	0	0	0	0	615.602	0.528279	0.528554	0.12583	7	0.826315	11	0	15.4026	6.65081e-05
2	1	0	1	0	0	618.102	0.540781	0.541158	0.150248	7	0.826657	11	0	17.9032	8.1308e-05
2	1	0	1	0	0	620.603	0.553284	0.55364	0.199302	7	0.82709	11	0	20.4036	0.000110341
2	1	0	1	0	0	623.103	0.565786	0.566146	0.285561	7	0.827687	11	0	22.904	0.000161669
2	1	0	1	0	0	625.603	0.578288	0.578596	0.423962	7	0.82856	11	0	25.4044	0.000245303
2	1	0	0	0	0	628.104	0.59079	0.59111	0.638962	7	0.829875	11	0	27.905	0.000377697
2	1	0	0	0	0	630.604	0.603293	0.603635	0.949242	7	0.831843	11	0	30.4054	0.000572996
2	1	0	0	0	0	633.105	0.615795	0.616049	1.35681	7	0.834705	11	0	32.9058	0.00083586
2	1	0	0	0	0	635.605	0.628297	0.628639	1.85461	7	0.838703	11	0	35.4062	0.00116588
2	1	0	0	0	0	638.106	0.640799	0.641137	2.43359	7	0.844054	11	0	37.9066	0.00156026
2	1	0	1	0	0	640.606	0.653301	0.653607	3.0825	7	0.850941	11	0	40.4072	0.00201474
2	1	0	1	0	0	643.107	0.665804	0.666031	3.78664	7	0.859523	11	0	42.9076	0.00252202
2	1	0	1	0	0	645.607	0.678306	0.67867	4.53011	7	0.869916	11	0	45.408	0.00307445
2	1	0	1	0	0	648.107	0.690808	0.691141	5.31321	7	0.882222	11	0	47.9084	0.00367218
2	1	0	1	0	0	650.406	0.697659	0.697984	5.73176	7	0.895209	11	0	50.2068	0.00400067
2	1	0	0	0	0	652.906	0.685157	0.685495	4.87866	7	0.908458	11	0	52.7074	0.0033443
2	1	0	0	0	0	655.407	0.672655	0.673002	4.07771	7	0.919644	11	0	55.2078	0.0027443
2	1	0	0	0	0	657.907	0.660153	0.660465	3.33889	7	0.928906	11	0	57.7082	0.00220522
2	1	0	0	0	0	660.408	0.64765	0.647945	2.64707	7	0.936372	11	0	60.2086	0.00171515
2	1	0	1	0	0	662.908	0.635148	0.6354	2.02621	7	0.942198	11	0	62.7092	0.00128746
2	1	0	1	0	0	665.409	0.622646	0.622984	1.48383	7	0.946566	11	0	65.2096	0.000924404
2	1	0	1	0	0	667.909	0.610144	0.610503	1.02871	7	0.949684	11	0	67.71	0.000628033
2	1	0	1	0	0	670.409	0.597642	0.597969	0.663456	7	0.951778	11	0	70.2104	0.000396726
2	1	0	1	0	0	672.91	0.585139	0.585484	0.391712	7	0.953079	11	0	72.7108	0.000229341
2	1	0	0	0	0	675.41	0.572637	0.572961	0.205913	7	0.953809	11	0	75.2114	0.00011798
2	1	0	0	0	0	677.911	0.560135	0.560447	0.0830294	7	0.954156	11	0	77.7118	4.65336e-05
2	1	0	0	0	0	680.411	0.547633	0.547893	0.00604715	7	0.954259	11	0	80.2122	3.31319e-06
2	0	0	0	0	0	682.912	0.53513	0.535431	-0.0371586	7	0.954216	11	0	2.1003	-1.98959e-05
2	0	0	1	0	0	685.412	0.522628	0.522887	-0.0631575	7	0.954085	11	0	4.6009	-3.30242e-05
2	0	0	1	0	0	687.913	0.510126	0.510425	-0.081266	7	0.953903	11	0	7.1013	-4.14802e-05
2	0	0	1	0	0	690.413	0.497624	0.497931	-0.0905183	7	0.953689	11	0	9.6017	-4.50718e-05
2	0	0	1	0	0	692.913	0.485122	0.485436	-0.09658	7	0.953453	11	0	12.1021	-4.68834e-05
2	0	0	1	0	0	695.414	0.472619	0.472991	-0.104269	7	0.953201	11	0	14.6025	-4.93184e-05
2	0	0	0	0	0	697.914	0.460117	0.460401	-0.110087	7	0.952935	11	0	17.1031	-5.06843e-05
2	1	0	1	0	1	700.288	0.451766	0.452154	0.0437956	8	0.952706	11	0	0.1	1.98023e-05
2	1	0	1	0	1	702.788	0.464268	0.464553	0.0958223	8	0.952927	11	0	2.6004	4.45145e-05
2	1	0	1	0	1	705.289	0.47677	0.477081	0.0975787	8	0.953172	11	0	5.1008	4.6553e-05
2	1	0	1	0	1	707.789	0.489272	0.489598	0.100915	8	0.95342	11	0	7.6013	4.94079e-05
2	1	0	0	0	1	710.29	0.501774	0.502059	0.102792	8	0.953673	11	0	10.1018	5.16076e-05
2	1	0	0	0	1	712.79	0.514277	0.514526	0.1076	8	0.953937	11	0	12.6022	5.5363e-05
2	1	0	0	0	1	715.291	0.526779	0.527076	0.121307	8	0.954223	11	0	15.1026	6.39378e-05
2	1	0	0	0	1	717.791	0.539281	0.539573	0.146177	8	0.954553	11	0	17.603	7.88733e-05
2	1	0	1	0	1	720.292	0.551783	0.552119	0.188008	8	0.954965	11	0	20.1036	0.000103803
2	1	0	1	0	1	722.792	0.564286	0.564577	0.265693	8	0.955526	11	0	22.604	0.000150004
2	1	0	1	0	1	725.292	0.576788	0.577145	0.396612	8	0.95634	11	0	25.1044	0.000228903
2	1	0	1	0	1	727.793	0.58929	0.589621	0.596926	8	0.957565	11	0	27.6048	0.00035196
2	1	0	1	0	1	730.293	0.601792	0.602097	0.888015	8	0.959404	11	0	30.1053	0.000534671
2	1	0	0	0	1	732.794	0.614294	0.61464	1.27967	8	0.962097	11	0	32.6058	0.000786536
2	1	0	0	0	1	735.294	0.626797	0.627052	1.76425	8	0.965885	11	0	35.1062	0.00110628
2	1	0	0	0	1	737.795	0.639299	0.63957	2.33076	8	0.970992	11	0	37.6066	0.00149068
2	1	0	0	0	1	740.295	0.651801	0.652113	2.97144	8	0.977613	11	0	40.107	0.00193771
2	1	0	1	0	1	742.796	0.664303	0.664588	3.67139	8	0.985909	11	0	42.6076	0.00243996
2	1	0	1	0	1	745.296	0.676806	0.677107	4.41342	8	0.996012	11	0	45.108	0.00298836
2	1	0	1	0	1	747.796	0.689308	0.689593	5.19403	8	1.00802	11	0	47.6084	0.00358177
2	1	0	1	0	1	750.095	0.69916	0.699507	5.81707	8	1.02081	11	0	49.9068	0.00406908
2	1	0	1	0	1	752.595	0.686657	0.686939	4.9571	8	1.03425	11	0	52.4072	0.00340523
2	1	0	0	0	1	755.096	0.674155	0.674471	4.15487	8	1.04563	11	0	54.9078	0.00280234
2	1	0	0	0	1	757.596	0.661653	0.661946	3.40746	8	1.05507	11	0	57.4082	0.00225556
2	1	0	0	0	1	760.097	0.649151	0.649478	2.72075	8	1.06272	11	0	59.9086	0.00176707
2	1	0	0	0	1	762.597	0.636648	0.636938	2.09305	8	1.06872	11	0	62.409	0.00133314
2	1	0	1	0	1	765.097	0.624146	0.624445	1.53944	8	1.07324	11	0	64.9095	0.000961297
2	1	0	1	0	1	767.598	0.611644	0.611995	1.06884	8	1.07648	11	0	67.41	0.000654127
2	1	0	1	0	1	770.098	0.599142	0.599432	0.694332	8	1.07866	11	0	69.9104	0.000416205
2	1	0	1	0	1	772.599	0.58664	0.586911	0.414255	8	1.08003	11	0	72.4108	0.000243131
2	1	0	1	0	1	775.099	0.574137	0.574384	0.217279	8	1.0808	11	0	74.9112	0.000124801
2	1	0	0	0	1	777.6	0.561635	0.561946	0.0904644	8	1.08117	11	0	77.4118	5.08361e-05
2	1	0	0	0	1	780.1	0.549133	0.549422	0.0135897	8	1.08129	11	0	79.9122	7.46648e-06
2	0	0	0	0	1	782.601	0.536631	0.536942	-0.0344964	8	1.08126	11	0	1.8003	-1.85226e-05
2	0	0	0	0	1	785.101	0.524128	0.524442	-0.0632111	8	1.08114	11	0	4.3007	-3.31506e-05
2	0	0	1	0	1	787.601	0.511626	0.511897	-0.0786072	8	1.08096	11	0	6.8012	-4.02388e-05
2	0	0	1	0	1	790.102	0.499124	0.499488	-0.0880136	8	1.08075	11	0	9.3017	-4.39618e-05
2	0	0	1	0	1	792.602	0.486622	0.486952	-0.0974197	8	1.08052	11	0	11.8021	-4.74387e-05
2	0	0	1	0	1	795.103	0.47412	0.474441	-0.103727	8	1.08027	11	0	14.3025	-4.92124e-05
2	0	0	1	0	1	797.603	0.461617	0.461933	-0.10702	8	1.08	11	0	16.8029	-4.94359e-05
2	0	0	1	0	0	799.977	0.450265	0.450562	-0.0724936	9	1.07974	11	0	19.1767	-3.26629e-05
2	1	0	1	0	0	802.477	0.462768	0.463099	0.0945078	9	1.07993	11	0	2.3004	4.37665e-05
2	1	0	1	0	0	804.978	0.47527	0.475562	0.0988228	9	1.08018	11	0	4.8008	4.69964e-05
2	1	0	1	0	0	807.478	0.487772	0.48816	0.100591	9	1.08042	11	0	7.3012	4.91044e-05
2	1	0	1	0	0	809.979	0.500274	0.500602	0.101358	9	1.08067	11	0	9.8017	5.07401e-05
2	1	0	0	0	0	812.479	0.512776	0.513132	0.106314	9	1.08093	11	0	12.3022	5.45532e-05
2	1	0	0	0	0	814.98	0.525279	0.525624	0.119117	9	1.08121	11	0	14.8026	6.26106e-05
2	1	0	0	0	0	817.48	0.537781	0.538084	0.140601	9	1.08153	11	0	17.303	7.56553e-05
2	1	0	0	0	0	819.98	0.550283	0.550545	0.178421	9	1.08193	11	0	19.8034	9.82288e-05
2	1	0	1	0	0	822.481	0.562785	0.563108	0.249618	9	1.08246	11	0	22.304	0.000140562
2	1	0	1	0	0	824.981	0.575287	0.575622	0.371017	9	1.08322	11	0	24.8044	0.000213566
2	1	0	1	0	0	827.482	0.58779	0.588104	0.558937	9	1.08437	11	0	27.3048	0.000328713
2	1	0	1	0	0	829.982	0.600292	0.600629	0.834012	9	1.08609	11	0	29.8052	0.000500932
2	1	0	1	0	0	832.483	0.612794	0.613006	1.20904	9	1.08863	11	0	32.3056	0.000741152
2	1	0	0	0	0	834.983	0.625296	0.625616	1.68029	9	1.09223	11	0	34.8062	0.00105122
2	1	0	0	0	0	837.484	0.637799	0.638108	2.23441	9	1.09711	11	0	37.3066	0.0014258
2	1	0	0	0	0	839.984	0.650301	0.650595	2.86128	9	1.10347	11	0	39.807	0.00186154
2	1	0	0	0	0	842.484	0.662803	0.66316	3.54962	9	1.11148	11	0	42.3074	0.00235396
2	1	0	1	0	0	844.985	0.675305	0.675576	4.28557	9	1.12127	11	0	44.808	0.00289523
2	1	0	1	0	0	847.485	0.687808	0.688125	5.05194	9	1.13294	11	0	47.3084	0.00347637
2	1	0	1	0	0	849.919	0.699985	0.700427	5.83235	9	1.14618	11	0	49.7418	0.00408514
2	1	0	1	0	0	852.284	0.688158	0.688401	5.00249	9	1.15896	11	0	52.1072	0.00344372
2	1	0	1	0	0	854.785	0.675655	0.675985	4.19419	9	1.17044	11	0	54.6076	0.00283521
2	1	0	0	0	0	857.285	0.663153	0.66345	3.43304	9	1.17996	11	0	57.1082	0.00227765
2	1	0	0	0	0	859.786	0.650651	0.650969	2.73661	9	1.18766	11	0	59.6086	0.00178145
2	1	0	0	0	0	862.286	0.638149	0.638518	2.10854	9	1.1937	11	0	62.109	0.00134634
2	1	0	0	0	0	864.786	0.625646	0.625934	1.55228	9	1.19825	11	0	64.6094	0.000971625
2	1	0	1	0	0	867.287	0.613144	0.613523	1.08336	9	1.20153	11	0	67.1099	0.000664665
2	1	0	1	0	0	869.787	0.600642	0.600974	0.709953	9	1.20375	11	0	69.6104	0.000426663
2	1	0	1	0	0	872.288	0.58814	0.588456	0.429101	9	1.20515	11	0	72.1108	0.000252507
2	1	0	1	0	0	874.788	0.575638	0.57594	0.227697	9	1.20596	11	0	74.6112	0.00013114
2	1	0	1	0	0	877.289	0.563135	0.563434	0.0975456	9	1.20635	11	0	77.1116	5.49605e-05
2	1	0	0	0	0	879.789	0.550633	0.550988	0.0179983	9	1.20649	11	0	79.6122	9.91684e-06
2	0	0	0	0	0	882.29	0.538131	0.538414	-0.0310487	9	1.20647	11	0	1.6004	-1.67171e-05
2	0	0	0	0	0	884.79	0.525629	0.526	-0.0613323	9	1.20635	11	0	4.1008	-3.22608e-05
2	0	0	0	0	0	887.29	0.513127	0.513391	-0.0770714	9	1.20617	11	0	6.6012	-3.95677e-05
2	0	0	1	0	0	889.791	0.500624	0.500942	-0.0869669	9	1.20597	11	0	9.1017	-4.35653e-05
2	0	0	1	0	0	892.291	0.488122	0.488445	-0.0964992	9	1.20574	11	0	11.6022	-4.71345e-05
2	0	0	1	0	0	894.792	0.47562	0.476008	-0.102253	9	1.20549	11	0	14.1026	-4.8673e-05
2	0	0	1	0	0	897.292	0.463118	0.463422	-0.105499	9	1.20523	11	0	16.603	-4.88906e-05
2	0	0	1	0	0	899.793	0.450615	0.450948	-0.112526	9	1.20495	11	0	19.1034	-5.07432e-05
2	1	0	1	0	1	902.166	0.461267	0.461601	0.0941247	10	1.2051	11	0	2.0003	4.3448e-05
2	1	0	1	0	1	904.667	0.47377	0.474129	0.0985675	10	1.20534	11	0	4.5008	4.67337e-05
2	1	0	1	0	1	907.167	0.486272	0.486601	0.0977724	10	1.20558	11	0	7.0012	4.75762e-05
2	1	0	1	0	1	909.668	0.498774	0.499076	0.0997401	10	1.20583	11	0	9.5016	4.97778e-05
2	1	0	1	0	1	912.168	0.511276	0.511633	0.106457	10	1.20609	11	0	12.002	5.44668e-05
2	1	0	0	0	1	914.669	0.523778	0.524121	0.11456	10	1.20636	11	0	14.5026	6.00431e-05
2	1	0	0	0	1	917.169	0.536281	0.536601	0.13363	10	1.20667	11	0	17.003	7.17059e-05
2	1	0	0	0	1	919.669	0.548783	0.549091	0.171945	10	1.20705	11	0	19.5034	9.44135e-05
2	1	0	0	0	1	922.17	0.561285	0.561588	0.235854	10	1.20755	11	0	22.0038	0.000132453
2	1	0	1	0	1	924.67	0.573787	0.574105	0.344312	10	1.20827	11	0	24.5043	0.000197671
2	1	0	1	0	1	927.171	0.586289	0.586572	0.522386	10	1.20934	11	0	27.0048	0.000306417
2	1	0	1	0	1	929.671	0.598792	0.599072	0.785199	10	1.21095	11	0	29.5052	0.00047039
2	1	0	1	0	1	932.172	0.611294	0.611584	1.1425	10	1.21334	11	0	32.0056	0.000698735
2	1	0	1	0	1	934.672	0.623796	0.624118	1.59937	10	1.21676	11	0	34.506	0.000998195
2	1	0	0	0	1	937.173	0.636298	0.6366	2.14453	10	1.22142	11	0	37.0066	0.00136521
2	1	0	0	0	1	939.673	0.648801	0.649086	2.76074	10	1.22754	11	0	39.507	0.00179196
2	1	0	0	0	1	942.173	0.661303	0.661624	3.43782	10	1.23528	11	0	42.0074	0.00227455
2	1	0	0	0	1	944.674	0.673805	0.674112	4.16726	10	1.24479	11	0	44.5078	0.0028092
2	1	0	1	0	1	947.174	0.686307	0.686557	4.93542	10	1.25616	11	0	47.0084	0.00338845
2	1	0	1	0	1	949.675	0.698809	0.699104	5.74412	10	1.26952	11	0	49.5088	0.00401574
2	1	0	1	0	1	951.973	0.689658	0.689947	5.08705	10	1.2821	11	0	51.8072	0.0035098
2	1	0	1	0	1	954.474	0.677156	0.677458	4.27595	10	1.29379	11	0	54.3076	0.00289678
2	1	0	1	0	1	956.974	0.664653	0.664956	3.51508	10	1.30352	11	0	56.808	0.00233737
2	1	0	0	0	1	959.475	0.652151	0.652441	2.81314	10	1.31142	11	0	59.3086	0.00183541
2	1	0	0	0	1	961.975	0.639649	0.639893	2.17748	10	1.31763	11	0	61.809	0.00139335
2	1	0	0	0	1	964.475	0.627147	0.627394	1.61359	10	1.32236	11	0	64.3094	0.00101236
2	1	0	0	0	1	966.976	0.614645	0.615005	1.13689	10	1.32577	11	0	66.8098	0.000699191
2	1	0	0	0	1	969.476	0.602142	0.602442	0.750052	10	1.32811	11	0	69.3102	0.000451862
2	1	0	1	0	1	971.977	0.58964	0.589949	0.453385	10	1.32959	11	0	71.8108	0.000267474
2	1	0	1	0	1	974.477	0.577138	0.577452	0.245867	10	1.33045	11	0	74.3112	0.000141976
2	1	0	1	0	1	976.978	0.564636	0.564986	0.109659	10	1.33088	11	0	76.8116	6.19556e-05
2	1	0	1	0	1	979.478	0.552133	0.552418	0.0222242	10	1.33104	11	0	79.312	1.22771e-05
2	0	0	1	0	1	981.978	0.539631	0.539984	-0.0276377	10	1.33103	11	0	1.4003	-1.49239e-05
2	0	0	0	0	1	984.479	0.527129	0.527475	-0.0564045	10	1.33092	11	0	3.9008	-2.97519e-05
2	0	0	0	0	1	986.979	0.514627	0.514944	-0.0764086	10	1.33075	11	0	6.4012	-3.93462e-05
2	0	0	0	0	1	989.48	0.502125	0.50249	-0.0867297	10	1.33054	11	0	8.9016	-4.35808e-05
2	0	0	0	0	1	991.98	0.489622	0.489956	-0.0928788	10	1.33032	11	0	11.402	-4.55065e-05
2	0	0	1	0	1	994.481	0.47712	0.477392	-0.101155	10	1.33007	11	0	13.9026	-4.82908e-05
2	0	0	1	0	1	996.981	0.464618	0.464959	-0.106299	10	1.32981	11	0	16.403	-4.94246e-05
2	0	0	1	0	1	999.482	0.452116	0.452382	-0.110175	10	1.32954	11	0	18.9034	-4.98411e-05
2	1	0	0	0	0	1001.86	0.459767	0.460127	0.092231	11	1.32962	11	0	1.7002	4.2438e-05
2	1	0	1	0	0	1004.36	0.472269	0.472587	0.0966366	11	1.32986	11	0	4.2007	4.56692e-05
2	1	0	1	0	0	1006.86	0.484771	0.485083	0.0992084	11	1.3301	11	0	6.7012	4.81243e-05
2	1	0	1	0	0	1009.36	0.497274	0.49752	0.0989872	11	1.33035	11	0	9.2016	4.92481e-05
2	1	0	1	0	0	1011.86	0.509776	0.510102	0.102835	11	1.33061	11	0	11.702	5.24564e-05
2	1	0	1	0	0	1014.36	0.522278	0.522635	0.113904	11	1.33088	11	0	14.2024	5.953e-05
2	1	0	0	0	0	1016.86	0.53478	0.535098	0.130628	11	1.33118	11	0	16.703	6.98989e-05
2	1	0	0	0	0	1019.36	0.547283	0.547636	0.162558	11	1.33154	11	0	19.2034	8.90226e-05
2	1	0	0	0	0	1021.86	0.559785	0.560076	0.223989	11	1.33202	11	0	21.7038	0.000125451
2	1	0	0	0	0	1024.36	0.572287	0.572619	0.325935	11	1.3327	11	0	24.2042	0.000186637
2	1	0	1	0	0	1026.86	0.584789	0.5851	0.489445	11	1.3337	11	0	26.7047	0.000286374
2	1	0	1	0	0	1029.36	0.597291	0.597581	0.738592	11	1.33522	11	0	29.2052	0.000441369
2	1	0	1	0	0	1031.86	0.609794	0.610124	1.08428	11	1.33748	11	0	31.7056	0.000661545
2	1	0	1	0	0	1034.36	0.622296	0.622606	1.52476	11	1.34072	11	0	34.206	0.000949327
2	1	0	1	0	0	1036.86	0.634798	0.635067	2.05507	11	1.34518	11	0	36.7064	0.00130511
2	1	0	0	0	0	1039.36	0.6473	0.647517	2.66374	11	1.35107	11	0	39.207	0.00172482
2	1	0	0	0	0	1041.86	0.659802	0.660155	3.33341	11	1.35856	11	0	41.7074	0.00220057
2	1	0	0	0	0	1044.36	0.672305	0.672618	4.05185	11	1.36779	11	0	44.2078	0.00272535
2	1	0	0	0	0	1046.86	0.684807	0.685081	4.81202	11	1.37887	11	0	46.7082	0.00329662
2	1	0	1	0	0	1049.36	0.697309	0.697631	5.60344	11	1.39189	11	0	49.2087	0.00390914
2	1	0	1	0	0	1051.66	0.691158	0.69145	5.14499	11	1.40454	11	0	51.5072	0.0035575
2	1	0	1	0	0	1054.16	0.678656	0.678942	4.33884	11	1.41639	11	0	54.0076	0.00294582
2	1	0	1	0	0	1056.66	0.666154	0.66647	3.58666	11	1.42628	11	0	56.508	0.0023904
2	1	0	1	0	0	1059.16	0.653651	0.653973	2.87728	11	1.43434	11	0	59.0084	0.00188166
2	1	0	1	0	0	1061.66	0.641149	0.641416	2.22765	11	1.4407	11	0	61.5089	0.00142885
2	1	0	0	0	0	1064.16	0.628647	0.628949	1.65783	11	1.44555	11	0	64.0094	0.00104269
2	1	0	0	0	0	1066.66	0.616145	0.616433	1.17392	11	1.44906	11	0	66.5098	0.000723644
2	1	0	0	0	0	1069.17	0.603643	0.603957	0.776224	11	1.45148	11	0	69.0102	0.000468806
2	1	0	0	0	0	1071.67	0.59114	0.591424	0.472943	11	1.45302	11	0	71.5106	0.00027971
2	1	0	1	0	0	1074.17	0.578638	0.578944	0.260703	11	1.45392	11	0	74.0112	0.000150932
2	1	0	1	0	0	1076.67	0.566136	0.566459	0.118325	11	1.45438	11	0	76.5116	6.70263e-05
2	1	0	1	0	0	1079.17	0.553634	0.553964	0.0281902	11	1.45455	11	0	79.012	1.56164e-05
2	0	0	1	0	0	1081.67	0.541131	0.541437	-0.0234016	11	1.45455	11	0	1.2002	-1.26705e-05
2	0	0	1	0	0	1084.17	0.52863	0.528921	-0.0541051	11	1.45445	11	0	3.7007	-2.86174e-05
2	0	0	0	0	0	1086.67	0.516127	0.516458	-0.0749216	11	1.45428	11	0	6.2012	-3.86939e-05
2	0	0	0	0	0	1089.17	0.503625	0.503925	-0.0864811	11	1.45408	11	0	8.7016	-4.358e-05
2	0	0	0	0	0	1091.67	0.491123	0.491413	-0.0925523	11	1.45386	11	0	11.202	-4.54814e-05
2	0	0	0	0	0	1094.17	0.47862	0.478902	-0.0996224	11	1.45362	11	0	13.7024	-4.77094e-05
2	0	0	1	0	0	1096.67	0.466118	0.4664	-0.106418	11	1.45336	11	0	16.203	-4.96334e-05
2	0	0	1	0	0	1099.17	0.453616	0.453945	-0.110092	11	1.45309	11	0	18.7034	-4.99759e-05
2	1	0	0	0	1	1101.54	0.458267	0.45851	0.0919475	12	1.45311	11	0	1.4002	4.21589e-05
2	1	0	0	0	1	1104.04	0.470769	0.471074	0.0951318	12	1.45335	11	0	3.9006	4.48141e-05
2	1	0	0	0	1	1106.54	0.483271	0.483548	0.0974515	12	1.45359	11	0	6.401	4.71225e-05
2	1	0	1	0	1	1109.05	0.495773	0.496097	0.100244	12	1.45384	11	0	8.9016	4.97307e-05
2	1	0	1	0	1	1111.55	0.508276	0.508622	0.102332	12	1.45409	11	0	11.402	5.20482e-05
2	1	0	1	0	1	1114.05	0.520778	0.52106	0.109673	12	1.45435	11	0	13.9024	5.71462e-05
2	1	0	1	0	1	1116.55	0.53328	0.53355	0.127174	12	1.45465	11	0	16.4028	6.78535e-05
2	1	0	0	0	1	1119.05	0.545782	0.546095	0.1582	12	1.455	11	0	18.9034	8.63922e-05
2	1	0	0	0	1	1121.55	0.558285	0.558623	0.211384	12	1.45545	11	0	21.4038	0.000118084
2	1	0	0	0	1	1124.05	0.570787	0.57106	0.304961	12	1.45609	11	0	23.9042	0.000174151
2	1	0	0	0	1	1126.55	0.583289	0.583538	0.460975	12	1.45704	11	0	26.4046	0.000268997
2	1	0	0	0	1	1129.05	0.595791	0.596149	0.696357	12	1.45846	11	0	28.905	0.000415132
2	1	0	1	0	1	1131.55	0.608293	0.608636	1.02382	12	1.4606	11	0	31.4056	0.000623135
2	1	0	1	0	1	1134.05	0.620796	0.621149	1.45027	12	1.46367	11	0	33.906	0.000900834
2	1	0	1	0	1	1136.55	0.633298	0.633642	1.96924	12	1.46793	11	0	36.4064	0.00124779
2	1	0	1	0	1	1139.05	0.6458	0.646091	2.56734	12	1.47359	11	0	38.9068	0.00165873
2	1	0	0	0	1	1141.55	0.658302	0.658576	3.22883	12	1.48083	11	0	41.4074	0.00212643
2	1	0	0	0	1	1144.05	0.670804	0.671039	3.94555	12	1.48979	11	0	43.9078	0.00264761
2	1	0	0	0	1	1146.55	0.683307	0.683621	4.70537	12	1.50061	11	0	46.4082	0.00321669
2	1	0	0	0	1	1149.05	0.695809	0.696069	5.4948	12	1.51336	11	0	48.9086	0.00382476
2	1	0	0	0	1	1151.35	0.692658	0.69295	5.23777	12	1.5261	11	0	51.207	0.00362951
2	1	0	1	0	1	1153.85	0.680156	0.68051	4.41731	12	1.53816	11	0	53.7076	0.00300602
2	1	0	1	0	1	1156.35	0.667654	0.667994	3.65947	12	1.54824	11	0	56.208	0.0024445
2	1	0	1	0	1	1158.85	0.655152	0.655473	2.94157	12	1.55647	11	0	58.7084	0.00192812
2	1	0	1	0	1	1161.35	0.642649	0.642916	2.28696	12	1.56299	11	0	61.2088	0.00147032
2	1	0	1	0	1	1163.85	0.630147	0.630504	1.71256	12	1.56797	11	0	63.7092	0.00107977
2	1	0	0	0	1	1166.35	0.617645	0.617926	1.21923	12	1.57161	11	0	66.2098	0.000753395
2	1	0	0	0	1	1168.85	0.605143	0.605543	0.811726	12	1.57413	11	0	68.7102	0.000491535
2	1	0	0	0	1	1171.35	0.592641	0.592908	0.499223	12	1.57575	11	0	71.2106	0.000295994
2	1	0	0	0	1	1173.85	0.580138	0.580499	0.278175	12	1.5767	11	0	73.711	0.00016148
2	1	0	1	0	1	1176.36	0.567636	0.56786	0.130651	12	1.5772	11	0	76.2116	7.41915e-05
2	1	0	1	0	1	1178.86	0.555134	0.555362	0.0355022	12	1.5774	11	0	78.712	1.97166e-05
2	0	0	1	0	1	1181.36	0.542632	0.542885	-0.0205716	12	1.57741	11	0	1.0002	-1.1168e-05
2	0	0	1	0	1	1183.86	0.530129	0.530368	-0.0517032	12	1.57732	11	0	3.5006	-2.74217e-05
2	0	0	1	0	1	1186.36	0.517627	0.517852	-0.0719175	12	1.57716	11	0	6.0011	-3.72427e-05
2	0	0	0	0	1	1188.86	0.505125	0.505378	-0.0858748	12	1.57696	11	0	8.5016	-4.33992e-05
2	0	0	0	0	1	1191.36	0.492623	0.492934	-0.092344	12	1.57674	11	0	11.002	-4.55195e-05
2	0	0	0	0	1	1193.86	0.480121	0.48044	-0.097577	12	1.5765	11	0	13.5024	-4.68798e-05
2	0	0	0	0	1	1196.36	0.467618	0.467976	-0.105103	12	1.57625	11	0	16.0028	-4.91857e-05
2	0	0	1	0	1	1198.86	0.455116	0.455413	-0.110383	12	1.57598	11	0	18.5034	-5.02697e-05
2	1	0	0	0	0	1201.23	0.456766	0.457066	0.0908338	13	1.57594	11	0	1.1002	4.15171e-05
2	1	0	0	0	0	1203.73	0.469269	0.469595	0.0959965	13	1.57617	11	0	3.6006	4.50794e-05
2	1	0	0	0	0	1206.23	0.481771	0.482058	0.0957884	13	1.57641	11	0	6.101	4.61756e-05
2	1	0	0	0	0	1208.73	0.494273	0.494586	0.0981918	13	1.57666	11	0	8.6014	4.85643e-05
2	1	0	1	0	0	1211.23	0.506775	0.507082	0.102972	13	1.57691	11	0	11.102	5.22153e-05
2	1	0	1	0	0	1213.74	0.519278	0.51958	0.109287	13	1.57717	11	0	13.6024	5.67832e-05
2	1	0	1	0	0	1216.24	0.53178	0.532114	0.122127	13	1.57746	11	0	16.1028	6.49853e-05
2	1	0	1	0	0	1218.74	0.544282	0.54461	0.151086	13	1.5778	11	0	18.6032	8.22831e-05
2	1	0	1	0	0	1221.24	0.556784	0.557072	0.201935	13	1.57823	11	0	21.1037	0.000112492
2	1	0	0	0	0	1223.74	0.569286	0.569627	0.287788	13	1.57884	11	0	23.6042	0.000163932
2	1	0	0	0	0	1226.24	0.581789	0.582132	0.431319	13	1.57972	11	0	26.1046	0.000251085
2	1	0	0	0	0	1228.74	0.594291	0.594641	0.654649	13	1.58107	11	0	28.605	0.000389281
2	1	0	0	0	0	1231.24	0.606793	0.607164	0.970225	13	1.58308	11	0	31.1054	0.000589086
2	1	0	1	0	0	1233.74	0.619295	0.619601	1.38124	13	1.586	11	0	33.606	0.000855821
2	1	0	1	0	0	1236.24	0.631798	0.632066	1.88575	13	1.59007	11	0	36.1064	0.00119192
2	1	0	1	0	0	1238.74	0.6443	0.644615	2.47229	13	1.59551	11	0	38.6068	0.00159368
2	1	0	1	0	0	1241.24	0.656802	0.657103	3.12378	13	1.60249	11	0	41.1072	0.00205265
2	1	0	0	0	0	1243.74	0.669304	0.669617	3.82904	13	1.61118	11	0	43.6078	0.00256399
2	1	0	0	0	0	1246.24	0.681806	0.682163	4.57739	13	1.62168	11	0	46.1082	0.00312253
2	1	0	0	0	0	1248.74	0.694309	0.694544	5.36092	13	1.63411	11	0	48.6086	0.00372339
2	1	0	0	0	0	1251.04	0.694159	0.694549	5.29975	13	1.6468	11	0	50.907	0.00368093
2	1	0	0	0	0	1253.54	0.681656	0.681908	4.47806	13	1.659	11	0	53.4074	0.00305363
2	1	0	1	0	0	1256.04	0.669154	0.669428	3.70476	13	1.66922	11	0	55.9079	0.00248007
2	1	0	1	0	0	1258.54	0.656652	0.656904	2.98965	13	1.67757	11	0	58.4084	0.00196391
2	1	0	1	0	0	1261.04	0.64415	0.644444	2.33998	13	1.68422	11	0	60.9088	0.00150799
2	1	0	1	0	0	1263.54	0.631647	0.631962	1.75547	13	1.68932	11	0	63.4092	0.00110939
2	1	0	1	0	0	1266.04	0.619145	0.619451	1.25275	13	1.69306	11	0	65.9096	0.000776014
2	1	0	0	0	0	1268.54	0.606643	0.606959	0.837634	13	1.69565	11	0	68.4102	0.00050841
2	1	0	0	0	0	1271.04	0.594141	0.594416	0.521451	13	1.69733	11	0	70.9106	0.000309959
2	1	0	0	0	0	1273.54	0.581639	0.581945	0.293642	13	1.69833	11	0	73.411	0.000170883
2	1	0	0	0	0	1276.04	0.569136	0.569398	0.138807	13	1.69885	11	0	75.9114	7.90362e-05
2	1	0	1	0	0	1278.54	0.556634	0.55693	0.0409698	13	1.69907	11	0	78.4119	2.28173e-05
2	0	0	1	0	0	1281.05	0.544132	0.544465	-0.0160411	13	1.6991	11	0	0.7002	-8.73381e-06
2	0	0	1	0	0	1283.55	0.53163	0.531962	-0.0493315	13	1.69901	11	0	3.2006	-2.62425e-05
2	0	0	1	0	0	1286.05	0.519127	0.519455	-0.0707338	13	1.69886	11	0	5.701	-3.6743e-05
2	0	0	1	0	0	1288.55	0.506625	0.506988	-0.0845997	13	1.69866	11	0	8.2014	-4.2891e-05
2	0	0	0	0	0	1291.05	0.494123	0.494421	-0.0912522	13	1.69844	11	0	10.702	-4.5117e-05
2	0	0	0	0	0	1293.55	0.481621	0.481867	-0.0962446	13	1.69821	11	0	13.2024	-4.63771e-05
2	0	0	0	0	0	1296.05	0.469119	0.469473	-0.10355	13	1.69795	11	0	15.7028	-4.86139e-05
2	0	0	0	0	0	1298.55	0.456616	0.456936	-0.109307	13	1.69769	11	0	18.2032	-4.99463e-05
2	1	0	1	0	1	1300.92	0.455267	0.455573	0.087821	14	1.69759	11	0	0.8001	4.00088e-05
2	1	0	0	0	1	1303.42	0.467768	0.468116	0.0949963	14	1.69782	11	0	3.3006	4.44693e-05
2	1	0	0	0	1	1305.92	0.480271	0.480617	0.0953205	14	1.69806	11	0	5.801	4.58127e-05
2	1	0	0	0	1	1308.42	0.492773	0.49306	0.0984515	14	1.69831	11	0	8.3014	4.85426e-05
2	1	0	0	0	1	1310.92	0.505275	0.505621	0.101305	14	1.69855	11	0	10.8018	5.1222e-05
2	1	0	1	0	1	1313.42	0.517777	0.51812	0.105732	14	1.69881	11	0	13.3024	5.47816e-05
2	1	0	1	0	1	1315.92	0.53028	0.53058	0.119839	14	1.6991	11	0	15.8028	6.35844e-05
2	1	0	1	0	1	1318.43	0.542782	0.543069	0.146664	14	1.69942	11	0	18.3032	7.96485e-05
2	1	0	1	0	1	1320.93	0.555284	0.555563	0.191109	14	1.69984	11	0	20.8036	0.000106173
2	1	0	1	0	1	1323.43	0.567786	0.568038	0.27092	14	1.70041	11	0	23.304	0.000153893
2	1	0	0	0	1	1325.93	0.580288	0.580573	0.40728	14	1.70125	11	0	25.8046	0.000236456
2	1	0	0	0	1	1328.43	0.592791	0.593118	0.615937	14	1.70251	11	0	28.305	0.000365323
2	1	0	0	0	1	1330.93	0.605293	0.605578	0.914655	14	1.70441	11	0	30.8054	0.000553895
2	1	0	0	0	1	1333.43	0.617795	0.618117	1.31423	14	1.70718	11	0	33.3058	0.000812348
2	1	0	1	0	1	1335.93	0.630297	0.630623	1.80776	14	1.71106	11	0	35.8064	0.00114001
2	1	0	1	0	1	1338.43	0.642799	0.643067	2.38135	14	1.71628	11	0	38.3068	0.00153137
2	1	0	1	0	1	1340.93	0.655302	0.655589	3.02614	14	1.72304	11	0	40.8072	0.0019839
2	1	0	1	0	1	1343.43	0.667804	0.668109	3.73138	14	1.73148	11	0	43.3076	0.00249297
2	1	0	1	0	1	1345.93	0.680306	0.680563	4.47476	14	1.74173	11	0	45.8081	0.00304535
2	1	0	0	0	1	1348.43	0.692808	0.693152	5.25401	14	1.75389	11	0	48.3086	0.00364183
2	1	0	0	0	1	1350.73	0.695659	0.695958	5.4021	14	1.76656	11	0	50.607	0.00375964
2	1	0	0	0	1	1353.23	0.683157	0.683457	4.56598	14	1.779	11	0	53.1074	0.00312065
2	1	0	0	0	1	1355.73	0.670654	0.670947	3.79408	14	1.78943	11	0	55.6078	0.00254563
2	1	0	1	0	1	1358.23	0.658152	0.658469	3.07124	14	1.798	11	0	58.1083	0.00202232
2	1	0	1	0	1	1360.73	0.64565	0.645948	2.40763	14	1.80483	11	0	60.6088	0.0015552
2	1	0	1	0	1	1363.23	0.633148	0.633408	1.81417	14	1.81009	11	0	63.1092	0.00114911
2	1	0	1	0	1	1365.73	0.620646	0.620984	1.30399	14	1.81397	11	0	65.6096	0.000809756
2	1	0	1	0	1	1368.23	0.608143	0.608511	0.879375	14	1.81668	11	0	68.11	0.000535109
2	1	0	0	0	1	1370.73	0.595641	0.595895	0.552433	14	1.81845	11	0	70.6106	0.000329192
2	1	0	0	0	1	1373.23	0.583139	0.583518	0.315428	14	1.81952	11	0	73.111	0.000184058
2	1	0	0	0	1	1375.73	0.570637	0.57094	0.152961	14	1.82009	11	0	75.6114	8.73315e-05
2	1	0	0	0	1	1378.23	0.558134	0.558447	0.0496855	14	1.82033	11	0	78.1118	2.77467e-05
2	0	0	1	0	1	1380.73	0.545632	0.54595	-0.010013	14	1.82037	11	0	0.4001	-5.4666e-06
2	0	0	1	0	1	1383.23	0.53313	0.533437	-0.0458031	14	1.8203	11	0	2.9006	-2.44331e-05
2	0	0	1	0	1	1385.74	0.520628	0.52096	-0.0692583	14	1.82015	11	0	5.401	-3.60808e-05
2	0	0	1	0	1	1388.24	0.508126	0.508415	-0.0823853	14	1.81996	11	0	7.9014	-4.18859e-05
2	0	0	1	0	1	1390.74	0.495623	0.495903	-0.0893138	14	1.81974	11	0	10.4018	-4.4291e-05
2	0	0	0	0	1	1393.24	0.483121	0.48343	-0.0963636	14	1.81951	11	0	12.9024	-4.6585e-05
2	0	0	0	0	1	1395.74	0.470619	0.470999	-0.103265	14	1.81926	11	0	15.4028	-4.86377e-05
2	0	0	0	0	1	1398.24	0.458117	0.458408	-0.107092	14	1.819	11	0	17.9032	-4.9092e-05
2	1	0	1	0	0	1400.61	0.453766	0.453981	0.0791341	15	1.81884	11	0	0.5	3.59254e-05
2	1	0	1	0	0	1403.11	0.466268	0.466517	0.0931313	15	1.81907	11	0	3.0004	4.34473e-05
2	1	0	0	0	0	1405.61	0.47877	0.479085	0.0958944	15	1.81931	11	0	5.501	4.59415e-05
2	1	0	0	0	0	1408.11	0.491273	0.491593	0.0984042	15	1.81955	11	0	8.0014	4.83748e-05
2	1	0	0	0	0	1410.61	0.503775	0.504014	0.099045	15	1.8198	11	0	10.5018	4.99201e-05
2	1	0	0	0	0	1413.11	0.516277	0.516594	0.104518	15	1.82005	11	0	13.0022	5.39935e-05
2	1	0	1	0	0	1415.61	0.528779	0.529078	0.118392	15	1.82033	11	0	15.5027	6.26388e-05
2	1	0	1	0	0	1418.11	0.541281	0.541526	0.141002	15	1.82065	11	0	18.0032	7.6356e-05
2	1	0	1	0	0	1420.61	0.553784	0.554129	0.181935	15	1.82105	11	0	20.5036	0.000100815
2	1	0	1	0	0	1423.11	0.566286	0.56666	0.25778	15	1.82159	11	0	23.004	0.000146073
2	1	0	1	0	0	1425.62	0.578788	0.579015	0.38428	15	1.82238	11	0	25.5044	0.000222504
2	1	0	0	0	0	1428.12	0.59129	0.591639	0.579256	15	1.82357	11	0	28.005	0.00034271
2	1	0	0	0	0	1430.62	0.603793	0.604157	0.866068	15	1.82536	11	0	30.5054	0.000523241
2	1	0	0	0	0	1433.12	0.616295	0.616565	1.25223	15	1.82799	11	0	33.0058	0.000772084
2	1	0	0	0	0	1435.62	0.628797	0.629114	1.72974	15	1.8317	11	0	35.5062	0.00108821
2	1	0	1	0	0	1438.12	0.641299	0.641608	2.29267	15	1.83672	11	0	38.0068	0.00147099
2	1	0	1	0	0	1440.62	0.653802	0.654136	2.93164	15	1.84324	11	0	40.5072	0.00191769
2	1	0	1	0	0	1443.12	0.666304	0.666602	3.63063	15	1.85143	11	0	43.0076	0.00242018
2	1	0	1	0	0	1445.62	0.678806	0.679104	4.37094	15	1.86143	11	0	45.508	0.00296832
2	1	0	1	0	0	1448.12	0.691308	0.691602	5.15645	15	1.87334	11	0	48.0084	0.00356621
2	1	0	0	0	0	1450.42	0.697159	0.697432	5.49907	15	1.88592	11	0	50.307	0.00383523
2	1	0	0	0	0	1452.92	0.684657	0.684867	4.65037	15	1.89859	11	0	52.8074	0.00318488
2	1	0	0	0	0	1455.42	0.672155	0.672505	3.872	15	1.90922	11	0	55.3078	0.00260394
2	1	0	0	0	0	1457.92	0.659653	0.659933	3.14002	15	1.91798	11	0	57.8082	0.0020722
2	1	0	0	0	0	1460.42	0.64715	0.647487	2.46619	15	1.92497	11	0	60.3086	0.00159682
2	1	0	1	0	0	1462.92	0.634648	0.634939	1.86777	15	1.93037	11	0	62.8092	0.00118592
2	1	0	1	0	0	1465.42	0.622146	0.622454	1.34793	15	1.93437	11	0	65.3096	0.000839023
2	1	0	1	0	0	1467.92	0.609644	0.609915	0.916783	15	1.93718	11	0	67.81	0.00055916
2	1	0	1	0	0	1470.42	0.597141	0.597401	0.577727	15	1.93902	11	0	70.3104	0.000345135
2	1	0	1	0	0	1472.92	0.584639	0.5849	0.331731	15	1.94014	11	0	72.8109	0.000194029
2	1	0	0	0	0	1475.42	0.572137	0.572477	0.166005	15	1.94075	11	0	75.3114	9.50342e-05
2	1	0	0	0	0	1477.92	0.559635	0.559952	0.0597127	15	1.94102	11	0	77.8118	3.34362e-05
2	0	0	0	0	0	1480.42	0.547132	0.547509	-0.00680943	15	1.94107	11	0	0.2	-3.72823e-06
2	0	0	0	0	0	1482.92	0.53463	0.534978	-0.0443545	15	1.94101	11	0	2.7004	-2.37287e-05
2	0	0	1	0	0	1485.42	0.522128	0.522422	-0.0652222	15	1.94086	11	0	5.201	-3.40735e-05
2	0	0	1	0	0	1487.92	0.509626	0.509908	-0.0798143	15	1.94068	11	0	7.7014	-4.0698e-05
2	0	0	1	0	0	1490.42	0.497124	0.497453	-0.0905359	15	1.94047	11	0	10.2018	-4.50374e-05
2	0	0	1	0	0	1492.93	0.484621	0.484904	-0.096473	15	1.94023	11	0	12.7022	-4.67802e-05
2	0	0	1	0	0	1495.43	0.47212	0.472411	-0.100127	15	1.93999	11	0	15.2027	-4.73009e-05
2	0	0	0	0	0	1497.93	0.459617	0.459949	-0.105911	15	1.93973	11	0	17.7032	-4.87138e-05
2	0	0	1	0	0	1499.84	0.44999	0.450429	-0.112268	15	1.93952	11	0	19.6216	-5.05688e-05