File: ACS_Catal_2026/Figures_Na_K/main_figures/data/EC/20240126_2-102_Add_Na/20240201_2-102_013_preconditioning_elctrode5_01_CVA_C01.mpt
EC-Lab ASCII FILE
Nb header lines : 66

Cyclic Voltammetry Advanced

Run on channel : 1 (SN 66412)
User :
CE vs. WE compliance from -10 V to 10 V
Electrode connection : standard
Potential control : Ewe
Ewe ctrl range : min = -1.00 V, max = 1.00 V
Safety Limits :
	Do not start on E overload
Acquisition started on : 02/01/2024 14:47:09.385
Loaded Setting File :  C:\Users\NakamuraT\Documents\EC-Lab\Data\Yatsuzuka\20240126_2-102_Add_Na\20240201_2-102_014_preconditioning_elctrode6.mps
Saved on :
	File : 20240201_2-102_013_preconditioning_elctrode5_01_CVA_C01.mpr
	Directory : C:\Users\NakamuraT\Documents\EC-Lab\Data\Yatsuzuka\20240126_2-102_Add_Na\
	Host : 192.109.209.100
Device : SP-150e (SN .003411)
Address : 192.109.209.236
EC-Lab for windows v11.50 (software)
Internet server v11.50 (firmware)
Command interpretor v11.50 (firmware)
Electrode material :
Initial state :
Electrolyte :
Comments :
Electrode surface area : 0.001 cm2
Characteristic mass : 0.001 g
Equivalent Weight : 0.000 g/eq.
Density : 0.000 g/cm3
Volume (V) : 0.001 cm3
Cycle Definition : Charge/Discharge alternance
Ei (V)              0.350
vs.                 Ref
ti (h:m:s)          0:00:10.0000
dti (s)             1.0000
dE/dt               10.000
dE/dt unit          mV/s
E1 (V)              0.450
vs.                 Ref
t1 (h:m:s)          0:00:0.0000
dt1 (s)             0.1000
Step percent        50
N                   10
E range min (V)     -1.000
E range max (V)     1.000
I Range             Auto
I Range min         Unset
I Range max         Unset
I Range init        Unset
Bandwidth           5
E2 (V)              0.350
vs.                 Ref
t2 (h:m:s)          0:00:0.0000
dt2 (s)             0.1000
nc cycles           9
nr                  1
Reverse Scan        0
Ef (V)              0.000
vs.                 Eoc
tf (h:m:s)          0:00:0.0000
dtf (s)             0.1000

mode	ox/red	error	control changes	Ns changes	counter inc.	time/s	control/V	Ewe/V	<I>/mA	cycle number	(Q-Qo)/C	I Range	Ns	step time/s	P/W
2	1	0	1	0	0	0.000000000000000E+000	0.349989	0.350422	9.02351	1	0.0000000E+000	10	0	0.000000000000000E+000	0.00316204
2	1	0	1	0	0	7	0.349989	0.35025	0.131264	1	0.00571641	12	0	6	4.59751e-05
2	1	0	1	0	0	10.1771	0.351712	0.352017	0.180899	1	0.00603654	12	0	9.1771	6.36794e-05
2	1	0	1	0	0	10.5267	0.355207	0.355473	0.242465	1	0.00611318	12	0	9.5267	8.61898e-05
2	1	0	1	0	0	10.8763	0.358703	0.358985	0.25523	1	0.0062013	12	0	9.8763	9.16238e-05
2	1	0	1	0	0	11.2258	0.362199	0.362551	0.25912	1	0.00629237	12	0	10.2258	9.39441e-05
2	1	0	1	0	0	11.5753	0.365693	0.365993	0.264339	1	0.00638434	12	0	10.5753	9.67465e-05
2	1	0	1	0	0	11.9249	0.369189	0.369482	0.268005	1	0.00647692	12	0	10.9249	9.9023e-05
2	1	0	1	0	0	12.2744	0.372685	0.373033	0.269634	1	0.00656989	12	0	11.2744	0.000100582
2	1	0	1	0	0	12.6239	0.376179	0.376507	0.267612	1	0.00666311	12	0	11.6239	0.000100758
2	1	0	1	0	0	12.9735	0.379675	0.380009	0.265031	1	0.00675658	12	0	11.9735	0.000100714
2	1	0	1	0	0	13.323	0.383171	0.383458	0.264918	1	0.00685019	12	0	12.323	0.000101585
2	1	0	1	0	0	13.6725	0.386666	0.386973	0.267954	1	0.0069441	12	0	12.6725	0.000103691
2	1	0	1	0	0	14.0221	0.390161	0.390459	0.272057	1	0.00703834	12	0	13.0221	0.000106227
2	1	0	1	0	0	14.3716	0.393657	0.393958	0.274383	1	0.007133	12	0	13.3716	0.000108095
2	1	0	1	0	0	14.7211	0.397152	0.397458	0.274511	1	0.00722793	12	0	13.7211	0.000109107
2	1	0	1	0	0	15.0707	0.400647	0.40094	0.271546	1	0.00732322	12	0	14.0707	0.000108874
2	1	0	1	0	0	15.4202	0.404142	0.404414	0.271035	1	0.00741871	12	0	14.4202	0.00010961
2	1	0	1	0	0	15.7697	0.407638	0.407946	0.272031	1	0.00751458	12	0	14.7697	0.000110974
2	1	0	1	0	0	16.1193	0.411133	0.411465	0.277163	1	0.00761113	12	0	15.1193	0.000114043
2	1	0	1	0	0	16.4688	0.414628	0.414919	0.280666	1	0.00770814	12	0	15.4688	0.000116454
2	1	0	1	0	0	16.8183	0.418124	0.418418	0.283129	1	0.00780566	12	0	15.8183	0.000118466
2	1	0	1	0	0	17.1679	0.421619	0.421969	0.282424	1	0.00790378	12	0	16.1679	0.000119174
2	1	0	1	0	0	17.5174	0.425114	0.425478	0.281314	1	0.00800254	12	0	16.5174	0.000119693
2	1	0	1	0	0	17.8669	0.42861	0.428966	0.282312	1	0.00810192	12	0	16.8669	0.000121102
2	1	0	1	0	0	18.2165	0.432105	0.432464	0.286506	1	0.00820227	12	0	17.2165	0.000123904
2	1	0	1	0	0	18.566	0.4356	0.435979	0.292621	1	0.00830352	12	0	17.566	0.000127577
2	1	0	1	0	0	18.9155	0.439096	0.439439	0.298006	1	0.00840596	12	0	17.9155	0.000130956
2	1	0	1	0	0	19.2651	0.442591	0.442937	0.301489	1	0.00850972	12	0	18.2651	0.000133541
2	1	0	1	0	0	19.6146	0.446086	0.446415	0.302472	1	0.00861481	12	0	18.6146	0.000135028
2	1	0	1	0	0	19.9641	0.449582	0.449889	0.304589	1	0.00872142	12	0	18.9641	0.000137031
2	1	0	1	0	0	20.1859	0.448184	0.448578	0.133262	1	0.00877044	12	0	19.1859	5.97785e-05
2	1	0	1	0	0	20.5354	0.444688	0.44503	0.0449217	1	0.00879752	12	0	19.5354	1.99915e-05
2	1	0	1	0	0	20.9149	0.440893	0.441239	0.00457491	1	0.00880657	13	0	19.9149	2.01863e-06
2	1	0	1	0	0	21.2644	0.437399	0.437764	-0.0147939	1	0.00880549	13	0	0.1498	-6.47622e-06
2	0	0	1	0	0	21.6139	0.433903	0.43423	-0.0285452	1	0.00879802	13	0	0.4993	-1.23952e-05
2	0	0	1	0	0	21.9635	0.430407	0.430732	-0.039611	1	0.00878541	13	0	0.8489	-1.70617e-05
2	0	0	1	0	0	22.313	0.426913	0.427253	-0.0510378	1	0.00876844	13	0	1.1984	-2.1806e-05
2	0	0	1	0	0	22.6625	0.423417	0.423707	-0.0630924	1	0.00874781	13	0	1.5479	-2.67327e-05
2	0	0	1	0	0	23.0121	0.419921	0.420218	-0.0751184	1	0.00872384	13	0	1.8975	-3.15661e-05
2	0	0	1	0	0	23.3616	0.416427	0.416709	-0.0838602	1	0.00869704	13	0	2.247	-3.49453e-05
2	0	0	1	0	0	23.7111	0.412931	0.413262	-0.0882319	1	0.00866764	13	0	2.5965	-3.64629e-05
2	0	0	1	0	0	24.0607	0.409435	0.409754	-0.0928326	1	0.00863608	13	0	2.9461	-3.80386e-05
2	0	0	1	0	0	24.4402	0.40564	0.405938	-0.102707	1	0.008599	12	0	3.3256	-4.16926e-05
2	0	0	1	0	0	24.7897	0.402145	0.402442	-0.107452	1	0.00856321	12	0	3.6751	-4.32433e-05
2	0	0	1	0	0	25.1393	0.39865	0.398992	-0.108568	1	0.00852568	12	0	4.0247	-4.33179e-05
2	0	0	1	0	0	25.4888	0.395154	0.395448	-0.111005	1	0.00848651	12	0	4.3742	-4.38968e-05
2	0	0	1	0	0	25.8383	0.391659	0.391921	-0.115752	1	0.00844597	12	0	4.7237	-4.53658e-05
2	0	0	1	0	0	26.1879	0.388164	0.388514	-0.122936	1	0.00840379	12	0	5.0733	-4.77623e-05
2	0	0	1	0	0	26.5374	0.384668	0.384967	-0.130019	1	0.0083602	12	0	5.4228	-5.00531e-05
2	0	0	1	0	0	26.8869	0.381173	0.381509	-0.133752	1	0.00831516	12	0	5.7723	-5.10276e-05
2	0	0	1	0	0	27.2365	0.377678	0.377967	-0.134856	1	0.0082688	12	0	6.1219	-5.09713e-05
2	0	0	1	0	0	27.586	0.374183	0.374444	-0.135062	1	0.00822114	12	0	6.4714	-5.05733e-05
2	0	0	1	0	0	27.9355	0.370687	0.370983	-0.138421	1	0.00817233	12	0	6.8209	-5.1352e-05
2	0	0	1	0	0	28.2851	0.367191	0.367413	-0.1441	1	0.00812218	12	0	7.1705	-5.29441e-05
2	0	0	1	0	0	28.6346	0.363697	0.363973	-0.151309	1	0.00807074	12	0	7.52	-5.50725e-05
2	0	0	1	0	0	28.9841	0.360201	0.360506	-0.156196	1	0.00801791	12	0	7.8695	-5.63097e-05
2	0	0	1	0	0	29.3337	0.356705	0.357007	-0.158671	1	0.00796371	12	0	8.2191	-5.66465e-05
2	0	0	1	0	0	29.6832	0.353211	0.353491	-0.158695	1	0.00790833	12	0	8.5686	-5.60972e-05
2	0	0	1	0	0	30.0018	0.349989	0.350155	-0.175623	1	0.00785676	12	0	8.8872	-6.14951e-05
2	1	0	1	0	1	30.284	0.35281	0.353136	0.0857743	2	0.00785383	12	0	0.0999	3.02899e-05
2	1	0	1	0	1	30.6335	0.356306	0.35659	0.163339	2	0.00790017	12	0	0.4494	5.82449e-05
2	1	0	1	0	1	30.9831	0.359801	0.360101	0.181456	2	0.00796015	12	0	0.799	6.53425e-05
2	1	0	1	0	1	31.3326	0.363296	0.363593	0.183037	2	0.00802346	12	0	1.1485	6.65511e-05
2	1	0	1	0	1	31.6821	0.366792	0.367071	0.181744	2	0.0080877	12	0	1.498	6.6713e-05
2	1	0	1	0	1	32.0317	0.370287	0.370579	0.18109	2	0.00815212	12	0	1.8476	6.71082e-05
2	1	0	1	0	1	32.3813	0.373783	0.37406	0.183696	2	0.00821666	12	0	2.1972	6.87133e-05
2	1	0	1	0	1	32.7308	0.377279	0.377553	0.18645	2	0.0082811	12	0	2.5467	7.03949e-05
2	1	0	1	0	1	33.0803	0.380773	0.38103	0.187331	2	0.00834553	12	0	2.8962	7.13789e-05
2	1	0	1	0	1	33.4299	0.384269	0.384519	0.185581	2	0.00840979	12	0	3.2458	7.13593e-05
2	1	0	1	0	1	33.7794	0.387765	0.388051	0.181714	2	0.00847385	12	0	3.5953	7.05141e-05
2	1	0	1	0	1	34.1289	0.391259	0.391537	0.179703	2	0.00853777	12	0	3.9448	7.03604e-05
2	1	0	1	0	1	34.4785	0.394755	0.395025	0.179687	2	0.0086016	12	0	4.2944	7.09811e-05
2	1	0	1	0	1	34.828	0.398251	0.398525	0.182731	2	0.0086654	12	0	4.6439	7.28228e-05
2	1	0	1	0	1	35.1775	0.401745	0.401984	0.185227	2	0.00872923	12	0	4.9934	7.44583e-05
2	1	0	1	0	1	35.5271	0.405241	0.405542	0.186556	2	0.00879326	12	0	5.343	7.56562e-05
2	1	0	1	0	1	35.8766	0.408737	0.409044	0.185026	2	0.00885739	12	0	5.6925	7.56839e-05
2	1	0	1	0	1	36.2261	0.412232	0.41253	0.183258	2	0.00892202	12	0	6.042	7.55996e-05
2	1	0	1	0	1	36.5757	0.415727	0.416015	0.181941	2	0.00898664	12	0	6.3916	7.56904e-05
2	1	0	1	0	1	36.9252	0.419222	0.419526	0.184331	2	0.0090517	12	0	6.7411	7.73316e-05
2	1	0	1	0	1	37.2747	0.422718	0.423019	0.189564	2	0.00911729	12	0	7.0906	8.01892e-05
2	1	0	1	0	1	37.6243	0.426213	0.426529	0.193663	2	0.00918369	12	0	7.4402	8.2603e-05
2	1	0	1	0	1	37.9738	0.429708	0.429953	0.19698	2	0.00925092	12	0	7.7897	8.46924e-05
2	1	0	1	0	1	38.3233	0.433204	0.433487	0.197435	2	0.00931917	12	0	8.1392	8.55854e-05
2	1	0	1	0	1	38.6729	0.436699	0.43698	0.198047	2	0.00938854	12	0	8.4888	8.65425e-05
2	1	0	1	0	1	39.0224	0.440194	0.440457	0.200958	2	0.00945922	12	0	8.8383	8.85133e-05
2	1	0	1	0	1	39.3719	0.44369	0.443953	0.207379	2	0.00953155	12	0	9.1878	9.20668e-05
2	1	0	1	0	1	39.7215	0.447185	0.447475	0.216117	2	0.00960575	12	0	9.5374	9.6707e-05
2	1	0	0	0	1	40.0006	0.450007	0.450307	0.233271	2	0.00966662	12	0	9.8165	0.000105043
2	1	0	1	0	1	40.2977	0.447035	0.447299	0.0081045	2	0.00969142	12	0	10.1136	3.62514e-06
2	0	0	1	0	1	40.6622	0.44339	0.443689	-0.0327294	2	0.00968505	13	0	0.2497	-1.45217e-05
2	0	0	1	0	1	41.0117	0.439895	0.44019	-0.0526211	2	0.00966915	13	0	0.5992	-2.31633e-05
2	0	0	1	0	1	41.3613	0.436399	0.436629	-0.0669709	2	0.00964838	13	0	0.9488	-2.92414e-05
2	0	0	1	0	1	41.7108	0.432905	0.433138	-0.0781136	2	0.00962385	13	0	1.2983	-3.3834e-05
2	0	0	1	0	1	42.0603	0.429409	0.429731	-0.0846476	2	0.00959634	13	0	1.6478	-3.63757e-05
2	0	0	1	0	1	42.4099	0.425913	0.426218	-0.0888684	2	0.00956626	13	0	1.9974	-3.78773e-05
2	0	0	1	0	1	42.7594	0.422419	0.422686	-0.0922458	2	0.00953404	13	0	2.3469	-3.8991e-05
2	0	0	1	0	1	43.1389	0.418623	0.418881	-0.104288	2	0.00949636	12	0	2.7264	-4.36842e-05
2	0	0	1	0	1	43.4885	0.415128	0.415405	-0.107792	2	0.00946002	12	0	3.076	-4.47776e-05
2	0	0	1	0	1	43.838	0.411632	0.4119	-0.108823	2	0.00942212	12	0	3.4255	-4.48242e-05
2	0	0	1	0	1	44.1875	0.408137	0.408391	-0.111986	2	0.0093826	12	0	3.775	-4.57341e-05
2	0	0	1	0	1	44.5371	0.404642	0.404888	-0.115669	2	0.00934185	12	0	4.1246	-4.6833e-05
2	0	0	1	0	1	44.8866	0.401146	0.401461	-0.121941	2	0.00929985	12	0	4.4741	-4.89546e-05
2	0	0	1	0	1	45.2361	0.397651	0.397926	-0.127922	2	0.00925661	12	0	4.8236	-5.09034e-05
2	0	0	1	0	1	45.5857	0.394156	0.394403	-0.132473	2	0.00921205	12	0	5.1732	-5.22476e-05
2	0	0	1	0	1	45.9352	0.39066	0.390922	-0.133562	2	0.00916642	12	0	5.5227	-5.22125e-05
2	0	0	1	0	1	46.2847	0.387165	0.387446	-0.134101	2	0.00911957	12	0	5.8722	-5.19569e-05
2	0	0	1	0	1	46.6343	0.38367	0.383968	-0.135005	2	0.00907181	12	0	6.2218	-5.18376e-05
2	0	0	1	0	1	46.9838	0.380174	0.380407	-0.138081	2	0.00902298	12	0	6.5713	-5.25271e-05
2	0	0	1	0	1	47.3333	0.376679	0.376963	-0.144104	2	0.00897308	12	0	6.9208	-5.4322e-05
2	0	0	1	0	1	47.6829	0.373183	0.373451	-0.149577	2	0.00892205	12	0	7.2704	-5.58597e-05
2	0	0	1	0	1	48.0324	0.369689	0.370015	-0.154098	2	0.00886993	12	0	7.6199	-5.70186e-05
2	0	0	1	0	1	48.3819	0.366193	0.366508	-0.155705	2	0.00881672	12	0	7.9694	-5.7067e-05
2	0	0	1	0	1	48.7315	0.362697	0.362989	-0.156021	2	0.00876237	12	0	8.319	-5.66338e-05
2	0	0	1	0	1	49.081	0.359203	0.359518	-0.156959	2	0.00870703	12	0	8.6685	-5.64297e-05
2	0	0	1	0	1	49.4305	0.355707	0.355955	-0.16036	2	0.00865047	12	0	9.018	-5.70809e-05
2	0	0	1	0	1	49.7801	0.352211	0.352453	-0.166082	2	0.0085928	12	0	9.3676	-5.85362e-05
2	0	0	1	0	0	50.0313	0.350314	0.350619	-0.119317	3	0.00855167	12	0	9.6188	-4.18348e-05
2	1	0	1	0	0	50.3809	0.353809	0.354081	0.113069	3	0.00856101	12	0	0.1998	4.00355e-05
2	1	0	1	0	0	50.7304	0.357304	0.357582	0.156197	3	0.00860991	12	0	0.5493	5.58531e-05
2	1	0	1	0	0	51.0799	0.3608	0.361062	0.165061	3	0.00866726	12	0	0.8988	5.95971e-05
2	1	0	1	0	0	51.4295	0.364295	0.364607	0.168218	3	0.00872661	12	0	1.2484	6.13336e-05
2	1	0	1	0	0	51.7791	0.367791	0.368006	0.171281	3	0.00878664	12	0	1.598	6.30323e-05
2	1	0	1	0	0	52.1285	0.371286	0.371522	0.174745	3	0.00884675	12	0	1.9474	6.49217e-05
2	1	0	1	0	0	52.4781	0.374781	0.375078	0.174918	3	0.00890696	12	0	2.297	6.56078e-05
2	1	0	1	0	0	52.8277	0.378277	0.378573	0.173554	3	0.00896698	12	0	2.6466	6.5703e-05
2	1	0	1	0	0	53.1772	0.381773	0.382067	0.169731	3	0.00902681	12	0	2.9961	6.48488e-05
2	1	0	1	0	0	53.5267	0.385267	0.385523	0.166856	3	0.00908627	12	0	3.3456	6.43266e-05
2	1	0	1	0	0	53.8763	0.388763	0.388958	0.166094	3	0.00914552	12	0	3.6952	6.46035e-05
2	1	0	1	0	0	54.2258	0.392259	0.392614	0.168689	3	0.00920463	12	0	4.0447	6.62295e-05
2	1	0	1	0	0	54.5753	0.395753	0.395987	0.170598	3	0.00926358	12	0	4.3942	6.75546e-05
2	1	0	1	0	0	54.9249	0.399249	0.399505	0.171878	3	0.00932251	12	0	4.7438	6.86662e-05
2	1	0	1	0	0	55.2744	0.402745	0.40302	0.170134	3	0.00938128	12	0	5.0933	6.85673e-05
2	1	0	1	0	0	55.6239	0.40624	0.406539	0.167067	3	0.00944005	12	0	5.4428	6.79191e-05
2	1	0	1	0	0	55.9735	0.409735	0.410042	0.166491	3	0.00949877	12	0	5.7924	6.82685e-05
2	1	0	1	0	0	56.323	0.41323	0.413442	0.165371	3	0.0095578	12	0	6.1419	6.83714e-05
2	1	0	1	0	0	56.6725	0.416726	0.416979	0.168863	3	0.00961678	12	0	6.4914	7.04124e-05
2	1	0	1	0	0	57.0221	0.420221	0.420473	0.172406	3	0.00967609	12	0	6.841	7.24922e-05
2	1	0	1	0	0	57.3716	0.423716	0.424049	0.174965	3	0.00973584	12	0	7.1905	7.41937e-05
2	1	0	1	0	0	57.7211	0.427212	0.427557	0.174691	3	0.00979606	12	0	7.54	7.46906e-05
2	1	0	1	0	0	58.0707	0.430707	0.431083	0.173476	3	0.00985691	12	0	7.8896	7.47826e-05
2	1	0	1	0	0	58.4202	0.434202	0.434464	0.17379	3	0.00991838	12	0	8.2391	7.55054e-05
2	1	0	1	0	0	58.7697	0.437698	0.438	0.177669	3	0.00998081	12	0	8.5886	7.78189e-05
2	1	0	1	0	0	59.1193	0.441193	0.441437	0.18376	3	0.0100444	12	0	8.9382	8.11184e-05
2	1	0	1	0	0	59.4688	0.444688	0.444936	0.190562	3	0.0101094	12	0	9.2877	8.47879e-05
2	1	0	1	0	0	59.8183	0.448184	0.448491	0.196724	3	0.010176	12	0	9.6372	8.82289e-05
2	1	0	1	0	0	60.0301	0.449682	0.450022	0.147512	3	0.0102161	12	0	9.849	6.63835e-05
2	0	0	1	0	0	60.4095	0.445887	0.446202	-0.0311087	3	0.0102263	13	0	0.0998	-1.38808e-05
2	0	0	1	0	0	60.7591	0.442391	0.442547	-0.0610643	3	0.0102093	13	0	0.4494	-2.70239e-05
2	0	0	1	0	0	61.1086	0.438897	0.439213	-0.0756311	3	0.010186	13	0	0.7989	-3.32182e-05
2	0	0	1	0	0	61.4581	0.435401	0.435745	-0.083962	3	0.010159	13	0	1.1484	-3.65861e-05
2	0	0	1	0	0	61.8077	0.431905	0.432211	-0.0883516	3	0.0101293	13	0	1.498	-3.81865e-05
2	0	0	1	0	0	62.1572	0.428411	0.42869	-0.0924954	3	0.0100973	13	0	1.8475	-3.96518e-05
2	0	0	1	0	0	62.5367	0.424615	0.424889	-0.104097	3	0.01006	12	0	2.227	-4.42295e-05
2	0	0	1	0	0	62.8863	0.42112	0.421357	-0.107675	3	0.0100238	12	0	2.5766	-4.53698e-05
2	0	0	1	0	0	63.2358	0.417624	0.417936	-0.109056	3	0.00998606	12	0	2.9261	-4.55784e-05
2	0	0	1	0	0	63.5853	0.414129	0.414384	-0.110863	3	0.0099469	12	0	3.2756	-4.59397e-05
2	0	0	1	0	0	63.9349	0.410634	0.410859	-0.11435	3	0.00990647	12	0	3.6252	-4.69819e-05
2	0	0	1	0	0	64.2844	0.407138	0.407369	-0.120957	3	0.00986452	12	0	3.9747	-4.92741e-05
2	0	0	1	0	0	64.6339	0.403643	0.403801	-0.126714	3	0.00982156	12	0	4.3242	-5.11673e-05
2	0	0	1	0	0	64.9835	0.400148	0.400445	-0.130802	3	0.00977743	12	0	4.6738	-5.23789e-05
2	0	0	1	0	0	65.333	0.396652	0.396932	-0.132902	3	0.00973228	12	0	5.0233	-5.27529e-05
2	0	0	1	0	0	65.6825	0.393157	0.393351	-0.131988	3	0.00968609	12	0	5.3728	-5.19177e-05
2	0	0	1	0	0	66.0321	0.389662	0.38996	-0.13321	3	0.00963897	12	0	5.7224	-5.19465e-05
2	0	0	1	0	0	66.3816	0.386166	0.386411	-0.136082	3	0.00959089	12	0	6.0719	-5.25835e-05
2	0	0	1	0	0	66.7311	0.382671	0.38292	-0.141994	3	0.00954182	12	0	6.4214	-5.43725e-05
2	0	0	1	0	0	67.0807	0.379176	0.379443	-0.147282	3	0.0094917	12	0	6.771	-5.5885e-05
2	0	0	1	0	0	67.4302	0.375681	0.375974	-0.151267	3	0.0094405	12	0	7.1205	-5.68723e-05
2	0	0	1	0	0	67.7797	0.372185	0.372468	-0.151813	3	0.00938835	12	0	7.47	-5.65455e-05
2	0	0	1	0	0	68.1293	0.368689	0.368865	-0.152109	3	0.00933516	12	0	7.8196	-5.61076e-05
2	0	0	1	0	0	68.4788	0.365195	0.365371	-0.152756	3	0.00928109	12	0	8.1691	-5.58125e-05
2	0	0	1	0	0	68.8283	0.361699	0.362052	-0.156897	3	0.00922591	12	0	8.5186	-5.6805e-05
2	0	0	1	0	0	69.1779	0.358203	0.35838	-0.163358	3	0.00916968	12	0	8.8682	-5.85442e-05
2	0	0	1	0	0	69.5274	0.354709	0.355018	-0.168675	3	0.0091122	12	0	9.2177	-5.98827e-05
2	0	0	1	0	0	69.8769	0.351213	0.351488	-0.172445	3	0.00905363	12	0	9.5672	-6.06125e-05
2	0	0	1	0	1	70.1282	0.351312	0.3516	-0.0165419	4	0.00902293	12	0	9.8185	-5.81615e-06
2	1	0	1	0	1	70.4777	0.354808	0.355048	0.124527	4	0.00904953	12	0	0.2996	4.4213e-05
2	1	0	1	0	1	70.8273	0.358303	0.358573	0.154496	4	0.00910043	12	0	0.6492	5.53981e-05
2	1	0	1	0	1	71.1768	0.361798	0.36206	0.164672	4	0.00915681	12	0	0.9987	5.9621e-05
2	1	0	1	0	1	71.5263	0.365294	0.365552	0.169233	4	0.00921451	12	0	1.3482	6.18636e-05
2	1	0	1	0	1	71.8759	0.368789	0.369115	0.169217	4	0.00927271	12	0	1.6978	6.24604e-05
2	1	0	1	0	1	72.2255	0.372285	0.372556	0.1666	4	0.00933088	12	0	2.0474	6.20678e-05
2	1	0	1	0	1	72.5749	0.37578	0.376042	0.16297	4	0.00938882	12	0	2.3968	6.12837e-05
2	1	0	1	0	1	72.9245	0.379275	0.37952	0.161543	4	0.00944654	12	0	2.7464	6.13088e-05
2	1	0	1	0	1	73.2741	0.382771	0.383009	0.162253	4	0.00950401	12	0	3.096	6.21445e-05
2	1	0	1	0	1	73.6236	0.386267	0.386527	0.164773	4	0.00956128	12	0	3.4455	6.36892e-05
2	1	0	1	0	1	73.9731	0.389761	0.390052	0.166164	4	0.00961834	12	0	3.795	6.48126e-05
2	1	0	1	0	1	74.3227	0.393257	0.393556	0.165337	4	0.00967529	12	0	4.1446	6.50692e-05
2	1	0	1	0	1	74.6722	0.396753	0.397059	0.162234	4	0.00973192	12	0	4.4941	6.44162e-05
2	1	0	1	0	1	75.0217	0.400248	0.400457	0.158623	4	0.00978842	12	0	4.8436	6.35215e-05
2	1	0	1	0	1	75.3713	0.403743	0.404049	0.157561	4	0.00984465	12	0	5.1932	6.36624e-05
2	1	0	1	0	1	75.7208	0.407239	0.407514	0.158747	4	0.00990083	12	0	5.5427	6.46916e-05
2	1	0	1	0	1	76.0703	0.410734	0.411064	0.163046	4	0.00995715	12	0	5.8922	6.70221e-05
2	1	0	1	0	1	76.4199	0.414229	0.414532	0.164373	4	0.0100136	12	0	6.2418	6.8138e-05
2	1	0	1	0	1	76.7694	0.417724	0.418039	0.164637	4	0.0100701	12	0	6.5913	6.88247e-05
2	1	0	1	0	1	77.1189	0.42122	0.421479	0.162516	4	0.0101267	12	0	6.9408	6.84972e-05
2	1	0	1	0	1	77.4685	0.424715	0.425029	0.160605	4	0.0101836	12	0	7.2904	6.82616e-05
2	1	0	1	0	1	77.818	0.42821	0.428496	0.160996	4	0.0102407	12	0	7.6399	6.89861e-05
2	1	0	1	0	1	78.1675	0.431706	0.431985	0.164225	4	0.0102985	12	0	7.9894	7.09427e-05
2	1	0	1	0	1	78.5171	0.435201	0.435541	0.169466	4	0.0103569	12	0	8.339	7.38093e-05
2	1	0	1	0	1	78.8666	0.438696	0.439	0.17377	4	0.0104161	12	0	8.6885	7.62852e-05
2	1	0	1	0	1	79.2161	0.442192	0.442502	0.177407	4	0.0104765	12	0	9.038	7.85027e-05
2	1	0	1	0	1	79.5657	0.445687	0.446013	0.177916	4	0.010538	12	0	9.3876	7.93526e-05
2	1	0	1	0	1	79.9152	0.449182	0.449493	0.179728	4	0.0106009	12	0	9.7371	8.07863e-05
2	1	0	1	0	1	80.1269	0.448683	0.448994	0.0464073	4	0.0106286	12	0	9.9488	2.08366e-05
2	0	0	1	0	1	80.5064	0.444888	0.44518	-0.0571402	4	0.0106212	13	0	0.1997	-2.54377e-05
2	0	0	1	0	1	80.8559	0.441393	0.441678	-0.0736464	4	0.0105988	13	0	0.5492	-3.2528e-05
2	0	0	1	0	1	81.2055	0.437897	0.438165	-0.0801564	4	0.0105717	13	0	0.8988	-3.51218e-05
2	0	0	1	0	1	81.555	0.434403	0.434701	-0.0859405	4	0.0105418	13	0	1.2483	-3.73584e-05
2	0	0	1	0	1	81.9045	0.430907	0.431116	-0.0933783	4	0.0105095	13	0	1.5978	-4.02569e-05
2	0	0	1	0	1	82.2841	0.427112	0.427378	-0.102152	4	0.0104716	12	0	1.9774	-4.36577e-05
2	0	0	1	0	1	82.6336	0.423616	0.423922	-0.103798	4	0.0104352	12	0	2.3269	-4.40022e-05
2	0	0	1	0	1	82.9831	0.420121	0.420448	-0.10721	4	0.0103973	12	0	2.6764	-4.50763e-05
2	0	0	1	0	1	83.3327	0.416626	0.416876	-0.112426	4	0.0103581	12	0	3.026	-4.68676e-05
2	0	0	1	0	1	83.6822	0.41313	0.41339	-0.119288	4	0.0103174	12	0	3.3755	-4.93124e-05
2	0	0	1	0	1	84.0317	0.409635	0.409886	-0.125357	4	0.0102755	12	0	3.725	-5.13823e-05
2	0	0	1	0	1	84.3813	0.40614	0.406364	-0.127208	4	0.0102322	12	0	4.0746	-5.1693e-05
2	0	0	1	0	1	84.7308	0.402644	0.403004	-0.12763	4	0.0101881	12	0	4.4241	-5.14355e-05
2	0	0	1	0	1	85.0803	0.399149	0.399401	-0.127089	4	0.0101431	12	0	4.7736	-5.07594e-05
2	0	0	1	0	1	85.4299	0.395654	0.39595	-0.129863	4	0.0100971	12	0	5.1232	-5.14192e-05
2	0	0	1	0	1	85.7794	0.392158	0.392416	-0.1344	4	0.0100502	12	0	5.4727	-5.27407e-05
2	0	0	1	0	1	86.1289	0.388663	0.388975	-0.140514	4	0.0100023	12	0	5.8222	-5.46564e-05
2	0	0	1	0	1	86.4785	0.385168	0.385419	-0.144519	4	0.00995339	12	0	6.1718	-5.57005e-05
2	0	0	1	0	1	86.828	0.381672	0.381981	-0.14621	4	0.00990349	12	0	6.5213	-5.58493e-05
2	0	0	1	0	1	87.1775	0.378177	0.378353	-0.145928	4	0.00985274	12	0	6.8708	-5.52124e-05
2	0	0	1	0	1	87.5271	0.374682	0.374895	-0.146189	4	0.00980102	12	0	7.2204	-5.48056e-05
2	0	0	1	0	1	87.8766	0.371187	0.37148	-0.14893	4	0.00974846	12	0	7.5699	-5.53246e-05
2	0	0	1	0	1	88.2261	0.367691	0.367947	-0.154011	4	0.00969485	12	0	7.9194	-5.66679e-05
2	0	0	1	0	1	88.5757	0.364195	0.364458	-0.160168	4	0.00964021	12	0	8.269	-5.83746e-05
2	0	0	1	0	1	88.9252	0.360701	0.360964	-0.164131	4	0.00958447	12	0	8.6185	-5.92452e-05
2	0	0	1	0	1	89.2747	0.357205	0.357451	-0.166109	4	0.00952765	12	0	8.968	-5.93758e-05
2	0	0	1	0	1	89.6243	0.353709	0.353986	-0.165765	4	0.00946979	12	0	9.3176	-5.86785e-05
2	0	0	1	0	1	89.9714	0.350239	0.350485	-0.165274	4	0.00941135	12	0	9.6647	-5.7926e-05
2	1	0	1	0	0	90.2251	0.352311	0.352595	0.0508401	5	0.00939917	12	0	0.05	1.7926e-05
2	1	0	1	0	0	90.5746	0.355806	0.356091	0.14068	5	0.00943643	12	0	0.3995	5.00948e-05
2	1	0	1	0	0	90.9241	0.359302	0.359525	0.160619	5	0.00948886	12	0	0.749	5.77466e-05
2	1	0	1	0	0	91.2737	0.362797	0.363117	0.162951	5	0.00954473	12	0	1.0986	5.91701e-05
2	1	0	1	0	0	91.6233	0.366293	0.366557	0.16107	5	0.00960143	12	0	1.4482	5.90412e-05
2	1	0	1	0	0	91.9727	0.369788	0.370046	0.15933	5	0.00965821	12	0	1.7976	5.89595e-05
2	1	0	1	0	0	92.3223	0.373283	0.373585	0.159692	5	0.00971502	12	0	2.1472	5.96587e-05
2	1	0	1	0	0	92.6719	0.376779	0.3771	0.161712	5	0.00977162	12	0	2.4968	6.09818e-05
2	1	0	1	0	0	93.0214	0.380275	0.380506	0.163939	5	0.00982809	12	0	2.8463	6.23799e-05
2	1	0	1	0	0	93.3709	0.383769	0.384019	0.163764	5	0.00988429	12	0	3.1958	6.28885e-05
2	1	0	1	0	0	93.7205	0.387265	0.387493	0.1607	5	0.00994026	12	0	3.5454	6.227e-05
2	1	0	1	0	0	94.07	0.390761	0.391025	0.157498	5	0.0099959	12	0	3.8949	6.15857e-05
2	1	0	1	0	0	94.4195	0.394255	0.394517	0.154307	5	0.0100513	12	0	4.2444	6.08766e-05
2	1	0	1	0	0	94.7691	0.397751	0.398046	0.15504	5	0.0101064	12	0	4.594	6.17131e-05
2	1	0	1	0	0	95.1186	0.401247	0.401546	0.157148	5	0.0101613	12	0	4.9435	6.31022e-05
2	1	0	1	0	0	95.4681	0.404742	0.405027	0.15963	5	0.0102161	12	0	5.293	6.46544e-05
2	1	0	1	0	0	95.8177	0.408237	0.408485	0.159627	5	0.0102709	12	0	5.6426	6.52052e-05
2	1	0	1	0	0	96.1672	0.411732	0.412061	0.158163	5	0.0103258	12	0	5.9921	6.51728e-05
2	1	0	1	0	0	96.5167	0.415228	0.415496	0.154537	5	0.0103805	12	0	6.3416	6.42096e-05
2	1	0	1	0	0	96.8663	0.418723	0.419022	0.153392	5	0.0104353	12	0	6.6912	6.42745e-05
2	1	0	1	0	0	97.2158	0.422218	0.422504	0.154954	5	0.0104901	12	0	7.0407	6.54686e-05
2	1	0	1	0	0	97.5653	0.425714	0.426005	0.158554	5	0.0105452	12	0	7.3902	6.75447e-05
2	1	0	1	0	0	97.9149	0.429209	0.429459	0.162516	5	0.0106008	12	0	7.7398	6.97938e-05
2	1	0	1	0	0	98.2644	0.432704	0.43301	0.16394	5	0.0106568	12	0	8.0893	7.09879e-05
2	1	0	1	0	0	98.6139	0.4362	0.436468	0.163833	5	0.0107134	12	0	8.4388	7.15076e-05
2	1	0	1	0	0	98.9635	0.439695	0.439955	0.162711	5	0.0107707	12	0	8.7884	7.15854e-05
2	1	0	1	0	0	99.313	0.44319	0.443451	0.164828	5	0.010829	12	0	9.1379	7.3093e-05
2	1	0	1	0	0	99.6625	0.446686	0.446995	0.169823	5	0.0108883	12	0	9.4874	7.591e-05
2	1	0	1	0	0	99.9896	0.449957	0.450269	0.180955	5	0.0109451	12	0	9.8145	8.14782e-05
2	0	0	1	0	0	100.224	0.447684	0.447995	-0.0116252	5	0.0109588	12	0	0.000000000000000E+000	-5.20801e-06
2	0	0	1	0	0	100.603	0.443889	0.444162	-0.0627146	5	0.0109414	13	0	0.3795	-2.78555e-05
2	0	0	1	0	0	100.953	0.440394	0.440713	-0.076976	5	0.0109157	13	0	0.729	-3.39243e-05
2	0	0	1	0	0	101.302	0.436899	0.437137	-0.0882669	5	0.0108863	13	0	1.0785	-3.85847e-05
2	0	0	1	0	0	101.652	0.433403	0.433664	-0.0975359	5	0.0108543	13	0	1.4281	-4.22979e-05
2	0	0	1	0	0	102.031	0.429608	0.429909	-0.0970143	5	0.0108168	12	0	1.8076	-4.17073e-05
2	0	0	1	0	0	102.381	0.426113	0.426382	-0.103972	5	0.0107807	12	0	2.1571	-4.43319e-05
2	0	0	1	0	0	102.73	0.422618	0.422884	-0.110934	5	0.0107431	12	0	2.5067	-4.69122e-05
2	0	0	1	0	0	103.08	0.419122	0.419391	-0.117226	5	0.0107039	12	0	2.8562	-4.91635e-05
2	0	0	1	0	0	103.429	0.415627	0.415927	-0.120283	5	0.0106635	12	0	3.2057	-5.00291e-05
2	0	0	1	0	0	103.779	0.412132	0.412414	-0.120322	5	0.0106218	12	0	3.5553	-4.96227e-05
2	0	0	1	0	0	104.129	0.408636	0.408936	-0.122028	5	0.0105791	12	0	3.9048	-4.99018e-05
2	0	0	1	0	0	104.478	0.405141	0.405397	-0.123017	5	0.0105354	12	0	4.2543	-4.98705e-05
2	0	0	1	0	0	104.828	0.401646	0.401873	-0.127793	5	0.0104907	12	0	4.6039	-5.13564e-05
2	0	0	1	0	0	105.177	0.39815	0.398366	-0.133511	5	0.0104451	12	0	4.9534	-5.31861e-05
2	0	0	1	0	0	105.527	0.394655	0.394918	-0.138077	5	0.0103985	12	0	5.3029	-5.4529e-05
2	0	0	1	0	0	105.876	0.39116	0.391373	-0.139709	5	0.0103509	12	0	5.6525	-5.46783e-05
2	0	0	1	0	0	106.226	0.387665	0.387915	-0.139624	5	0.0103024	12	0	6.002	-5.41623e-05
2	0	0	1	0	0	106.575	0.384169	0.384461	-0.13947	5	0.0102532	12	0	6.3515	-5.36206e-05
2	0	0	1	0	0	106.925	0.380673	0.380907	-0.141369	5	0.0102031	12	0	6.7011	-5.38484e-05
2	0	0	1	0	0	107.274	0.377178	0.377407	-0.146521	5	0.010152	12	0	7.0506	-5.52981e-05
2	0	0	1	0	0	107.624	0.373683	0.373951	-0.152045	5	0.0101	12	0	7.4001	-5.68573e-05
2	0	0	1	0	0	107.973	0.370187	0.370469	-0.156562	5	0.0100469	12	0	7.7497	-5.80013e-05
2	0	0	1	0	0	108.323	0.366693	0.366972	-0.157888	5	0.0099929	12	0	8.0992	-5.79406e-05
2	0	0	1	0	0	108.672	0.363197	0.363471	-0.158017	5	0.0099379	12	0	8.4487	-5.74348e-05
2	0	0	1	0	0	109.022	0.359701	0.36002	-0.158465	5	0.00988198	12	0	8.7983	-5.70506e-05
2	0	0	1	0	0	109.372	0.356207	0.356479	-0.161419	5	0.00982497	12	0	9.1478	-5.75423e-05
2	0	0	1	0	0	109.721	0.352711	0.352953	-0.167037	5	0.00976696	12	0	9.4973	-5.89562e-05
2	0	0	0	0	1	109.995	0.350039	0.350269	-0.172834	6	0.00972072	12	0	9.771	-6.05385e-05
2	1	0	1	0	1	110.322	0.35331	0.353592	0.0925276	6	0.00972028	12	0	0.1498	3.2717e-05
2	1	0	1	0	1	110.671	0.356805	0.357071	0.143252	6	0.00976388	12	0	0.4994	5.11513e-05
2	1	0	1	0	1	111.021	0.3603	0.360565	0.153114	6	0.009817	12	0	0.8489	5.52074e-05
2	1	0	1	0	1	111.37	0.363796	0.364115	0.156703	6	0.00987226	12	0	1.1984	5.70578e-05
2	1	0	1	0	1	111.72	0.367291	0.367526	0.160562	6	0.00992814	12	0	1.548	5.90105e-05
2	1	0	1	0	1	112.07	0.370787	0.371063	0.16293	6	0.00998414	12	0	1.8976	6.04572e-05
2	1	0	1	0	1	112.419	0.374282	0.374569	0.162892	6	0.0100401	12	0	2.247	6.10141e-05
2	1	0	1	0	1	112.769	0.377777	0.377988	0.160283	6	0.0100958	12	0	2.5966	6.05852e-05
2	1	0	1	0	1	113.118	0.381273	0.381516	0.155895	6	0.0101513	12	0	2.9462	5.94766e-05
2	1	0	1	0	1	113.468	0.384769	0.385033	0.153877	6	0.0102064	12	0	3.2957	5.92478e-05
2	1	0	1	0	1	113.817	0.388263	0.388526	0.15432	6	0.0102612	12	0	3.6452	5.99575e-05
2	1	0	1	0	1	114.167	0.391759	0.392	0.156789	6	0.0103158	12	0	3.9948	6.14613e-05
2	1	0	1	0	1	114.516	0.395255	0.395526	0.158445	6	0.0103701	12	0	4.3443	6.2669e-05
2	1	0	1	0	1	114.866	0.398749	0.399051	0.157502	6	0.0104244	12	0	4.6938	6.28511e-05
2	1	0	1	0	1	115.215	0.402245	0.402532	0.154129	6	0.0104783	12	0	5.0434	6.20418e-05
2	1	0	1	0	1	115.565	0.405741	0.405988	0.151018	6	0.0105321	12	0	5.3929	6.13114e-05
2	1	0	1	0	1	115.914	0.409236	0.409488	0.149884	6	0.0105856	12	0	5.7424	6.13756e-05
2	1	0	1	0	1	116.264	0.412731	0.413003	0.151828	6	0.0106394	12	0	6.092	6.27056e-05
2	1	0	1	0	1	116.614	0.416227	0.416529	0.155297	6	0.0106929	12	0	6.4415	6.46857e-05
2	1	0	1	0	1	116.963	0.419722	0.420002	0.156687	6	0.0107466	12	0	6.791	6.58086e-05
2	1	0	1	0	1	117.313	0.423217	0.423485	0.156907	6	0.0108005	12	0	7.1406	6.64477e-05
2	1	0	1	0	1	117.662	0.426712	0.427005	0.154329	6	0.0108545	12	0	7.4901	6.58993e-05
2	1	0	1	0	1	118.012	0.430208	0.430498	0.15312	6	0.0109088	12	0	7.8396	6.59177e-05
2	1	0	1	0	1	118.361	0.433703	0.433971	0.153933	6	0.0109635	12	0	8.1892	6.68027e-05
2	1	0	1	0	1	118.711	0.437198	0.437492	0.158189	6	0.0110187	12	0	8.5387	6.92062e-05
2	1	0	1	0	1	119.06	0.440694	0.440967	0.163494	6	0.0110747	12	0	8.8882	7.20954e-05
2	1	0	1	0	1	119.41	0.444189	0.444482	0.167938	6	0.0111318	12	0	9.2378	7.46455e-05
2	1	0	1	0	1	119.759	0.447684	0.447958	0.170112	6	0.0111899	12	0	9.5873	7.62033e-05
2	1	0	1	0	1	119.994	0.449957	0.450078	0.168454	6	0.0112293	12	0	9.8215	7.58175e-05
2	0	0	1	0	1	120.351	0.446386	0.446624	-0.0465865	6	0.0112368	13	0	0.1298	-2.08067e-05
2	0	0	1	0	1	120.7	0.442891	0.443142	-0.0773356	6	0.0112146	13	0	0.4793	-3.42706e-05
2	0	0	1	0	1	121.05	0.439395	0.439631	-0.0886912	6	0.0111864	13	0	0.8289	-3.89914e-05
2	0	0	1	0	1	121.399	0.435901	0.436178	-0.0937528	6	0.0111552	13	0	1.1784	-4.08929e-05
2	0	0	1	0	1	121.779	0.432105	0.432381	-0.099261	6	0.0111187	12	0	1.5579	-4.29185e-05
2	0	0	1	0	1	122.128	0.42861	0.428896	-0.107595	6	0.0110832	12	0	1.9075	-4.61472e-05
2	0	0	1	0	1	122.478	0.425114	0.425411	-0.111195	6	0.011046	12	0	2.257	-4.73034e-05
2	0	0	1	0	1	122.827	0.421619	0.421869	-0.11312	6	0.0110073	12	0	2.6065	-4.77217e-05
2	0	0	1	0	1	123.177	0.418124	0.418413	-0.113166	6	0.0109674	12	0	2.9561	-4.735e-05
2	0	0	1	0	1	123.526	0.414628	0.414914	-0.115707	6	0.0109264	12	0	3.3056	-4.80086e-05
2	0	0	1	0	1	123.876	0.411133	0.41145	-0.120032	6	0.0108843	12	0	3.6551	-4.93871e-05
2	0	0	1	0	1	124.225	0.407638	0.407847	-0.126728	6	0.0108409	12	0	4.0047	-5.16854e-05
2	0	0	1	0	1	124.575	0.404142	0.404364	-0.131024	6	0.0107966	12	0	4.3542	-5.29812e-05
2	0	0	1	0	1	124.924	0.400647	0.40092	-0.133782	6	0.0107513	12	0	4.7037	-5.36358e-05
2	0	0	1	0	1	125.274	0.397152	0.397346	-0.133574	6	0.0107052	12	0	5.0533	-5.3075e-05
2	0	0	1	0	1	125.624	0.393656	0.393905	-0.133186	6	0.0106582	12	0	5.4028	-5.24627e-05
2	0	0	1	0	1	125.973	0.390161	0.390444	-0.134736	6	0.0106105	12	0	5.7523	-5.26066e-05
2	0	0	1	0	1	126.323	0.386666	0.386906	-0.138023	6	0.0105618	12	0	6.1019	-5.34018e-05
2	0	0	1	0	1	126.672	0.38317	0.383442	-0.144033	6	0.0105123	12	0	6.4514	-5.52284e-05
2	0	0	1	0	1	127.022	0.379675	0.379912	-0.148873	6	0.0104618	12	0	6.8009	-5.65586e-05
2	0	0	1	0	1	127.371	0.376179	0.376431	-0.151577	6	0.0104103	12	0	7.1505	-5.70582e-05
2	0	0	1	0	1	127.721	0.372685	0.372964	-0.151752	6	0.010358	12	0	7.5	-5.6598e-05
2	0	0	1	0	1	128.07	0.369189	0.369421	-0.151818	6	0.0103047	12	0	7.8495	-5.60848e-05
2	0	0	1	0	1	128.42	0.365693	0.365955	-0.15286	6	0.0102506	12	0	8.1991	-5.59398e-05
2	0	0	1	0	1	128.769	0.362199	0.362412	-0.156925	6	0.0101954	12	0	8.5486	-5.68715e-05
2	0	0	1	0	1	129.119	0.358703	0.358968	-0.162363	6	0.0101393	12	0	8.8981	-5.82832e-05
2	0	0	1	0	1	129.468	0.355207	0.355501	-0.168042	6	0.010082	12	0	9.2477	-5.9739e-05
2	0	0	1	0	1	129.818	0.351713	0.351975	-0.171328	6	0.0100237	12	0	9.5972	-6.03031e-05
2	0	0	1	0	0	130.069	0.350813	0.351106	-0.063932	7	0.0099865	12	0	9.8485	-2.24469e-05
2	1	0	1	0	0	130.419	0.354308	0.354574	0.110961	7	0.0100044	12	0	0.2497	3.9344e-05
2	1	0	1	0	0	130.768	0.357804	0.358065	0.145627	7	0.0100517	12	0	0.5992	5.21441e-05
2	1	0	1	0	0	131.118	0.361299	0.361587	0.156396	7	0.0101053	12	0	0.9488	5.65506e-05
2	1	0	1	0	0	131.467	0.364795	0.365058	0.160596	7	0.0101602	12	0	1.2984	5.86269e-05
2	1	0	1	0	0	131.817	0.36829	0.368543	0.161753	7	0.0102156	12	0	1.6478	5.96129e-05
2	1	0	1	0	0	132.166	0.371785	0.372042	0.159785	7	0.010271	12	0	1.9974	5.94468e-05
2	1	0	1	0	0	132.516	0.375281	0.375587	0.156185	7	0.0103262	12	0	2.347	5.86613e-05
2	1	0	1	0	0	132.866	0.378777	0.379063	0.153553	7	0.0103811	12	0	2.6965	5.82064e-05
2	1	0	1	0	0	133.215	0.382271	0.382588	0.153214	7	0.0104357	12	0	3.046	5.86179e-05
2	1	0	1	0	0	133.565	0.385767	0.386089	0.154899	7	0.0104901	12	0	3.3956	5.98047e-05
2	1	0	1	0	0	133.914	0.389263	0.389557	0.15698	7	0.0105442	12	0	3.7451	6.11527e-05
2	1	0	1	0	0	134.264	0.392757	0.393018	0.157115	7	0.0105981	12	0	4.0946	6.17491e-05
2	1	0	1	0	0	134.613	0.396253	0.396566	0.154623	7	0.0106517	12	0	4.4442	6.13182e-05
2	1	0	1	0	0	134.963	0.399749	0.400038	0.15084	7	0.0107051	12	0	4.7937	6.03417e-05
2	1	0	1	0	0	135.312	0.403243	0.40351	0.148479	7	0.0107581	12	0	5.1432	5.99129e-05
2	1	0	1	0	0	135.662	0.406739	0.407034	0.148042	7	0.010811	12	0	5.4928	6.02582e-05
2	1	0	1	0	0	136.011	0.410234	0.41055	0.152359	7	0.0108638	12	0	5.8423	6.25508e-05
2	1	0	1	0	0	136.361	0.41373	0.414	0.15362	7	0.0109168	12	0	6.1918	6.35984e-05
2	1	0	1	0	0	136.71	0.417225	0.417522	0.154366	7	0.0109696	12	0	6.5414	6.44511e-05
2	1	0	1	0	0	137.06	0.42072	0.421013	0.152585	7	0.0110224	12	0	6.8909	6.42401e-05
2	1	0	1	0	0	137.409	0.424216	0.424493	0.150408	7	0.0110753	12	0	7.2404	6.38473e-05
2	1	0	1	0	0	137.759	0.427711	0.428018	0.148944	7	0.0111284	12	0	7.59	6.37509e-05
2	1	0	1	0	0	138.109	0.431206	0.431494	0.150697	7	0.0111818	12	0	7.9395	6.50249e-05
2	1	0	1	0	0	138.458	0.434702	0.43498	0.154585	7	0.0112356	12	0	8.289	6.72413e-05
2	1	0	1	0	0	138.808	0.438197	0.438479	0.158943	7	0.0112901	12	0	8.6386	6.96932e-05
2	1	0	1	0	0	139.157	0.441692	0.441926	0.16261	7	0.0113452	12	0	8.9881	7.18615e-05
2	1	0	1	0	0	139.507	0.445188	0.44545	0.162914	7	0.0114012	12	0	9.3376	7.25699e-05
2	1	0	1	0	0	139.856	0.448683	0.448954	0.163919	7	0.0114583	12	0	9.6872	7.35923e-05
2	1	0	1	0	0	140.068	0.449182	0.449479	0.0666804	7	0.0114883	12	0	9.8989	2.99715e-05
2	0	0	1	0	0	140.447	0.445388	0.445668	-0.0648175	7	0.0114809	13	0	0.2297	-2.88871e-05
2	0	0	1	0	0	140.797	0.441892	0.442219	-0.0837453	7	0.0114555	13	0	0.5792	-3.70337e-05
2	0	0	1	0	0	141.146	0.438397	0.43868	-0.090116	7	0.0114255	13	0	0.9287	-3.95321e-05
2	0	0	1	0	0	141.496	0.434901	0.435186	-0.0938416	7	0.0113931	13	0	1.2783	-4.08386e-05
2	0	0	1	0	0	141.876	0.431106	0.43141	-0.104993	7	0.0113555	12	0	1.6578	-4.5295e-05
2	0	0	1	0	0	142.225	0.427611	0.427884	-0.109657	7	0.0113189	12	0	2.0073	-4.69206e-05
2	0	0	1	0	0	142.575	0.424116	0.424422	-0.110467	7	0.0112809	12	0	2.3569	-4.68847e-05
2	0	0	1	0	0	142.924	0.42062	0.420904	-0.112198	7	0.0112416	12	0	2.7064	-4.72248e-05
2	0	0	1	0	0	143.274	0.417125	0.417435	-0.114277	7	0.0112012	12	0	3.0559	-4.77031e-05
2	0	0	1	0	0	143.623	0.41363	0.413921	-0.118922	7	0.0111595	12	0	3.4055	-4.92244e-05
2	0	0	1	0	0	143.973	0.410134	0.410421	-0.12476	7	0.0111169	12	0	3.755	-5.12041e-05
2	0	0	1	0	0	144.322	0.406639	0.406879	-0.130042	7	0.0110729	12	0	4.1045	-5.29112e-05
2	0	0	1	0	0	144.672	0.403144	0.403401	-0.132023	7	0.0110282	12	0	4.4541	-5.32581e-05
2	0	0	1	0	0	145.021	0.399648	0.399896	-0.131894	7	0.0109826	12	0	4.8036	-5.27437e-05
2	0	0	1	0	0	145.371	0.396153	0.396337	-0.131848	7	0.0109362	12	0	5.1531	-5.22563e-05
2	0	0	1	0	0	145.72	0.392658	0.392935	-0.132623	7	0.010889	12	0	5.5027	-5.21123e-05
2	0	0	1	0	0	146.07	0.389162	0.389382	-0.136966	7	0.0108409	12	0	5.8522	-5.33321e-05
2	0	0	1	0	0	146.419	0.385667	0.385941	-0.142059	7	0.010792	12	0	6.2017	-5.48264e-05
2	0	0	1	0	0	146.769	0.382172	0.382383	-0.146896	7	0.0107421	12	0	6.5513	-5.61706e-05
2	0	0	1	0	0	147.119	0.378676	0.378922	-0.149382	7	0.0106914	12	0	6.9008	-5.66041e-05
2	0	0	1	0	0	147.468	0.375181	0.375407	-0.149966	7	0.0106397	12	0	7.2503	-5.62983e-05
2	0	0	1	0	0	147.818	0.371686	0.371925	-0.149642	7	0.0105872	12	0	7.5999	-5.56555e-05
2	0	0	1	0	0	148.167	0.368191	0.368403	-0.150639	7	0.0105338	12	0	7.9494	-5.54957e-05
2	0	0	1	0	0	148.517	0.364695	0.364957	-0.154616	7	0.0104795	12	0	8.2989	-5.64282e-05
2	0	0	1	0	0	148.866	0.361199	0.361463	-0.159712	7	0.0104242	12	0	8.6485	-5.77299e-05
2	0	0	1	0	0	149.216	0.357705	0.357992	-0.165759	7	0.0103678	12	0	8.998	-5.93405e-05
2	0	0	1	0	0	149.565	0.354209	0.354413	-0.169235	7	0.0103103	12	0	9.3475	-5.99791e-05
2	0	0	1	0	0	149.915	0.350713	0.351	-0.170423	7	0.0102517	12	0	9.6971	-5.98186e-05
2	1	0	1	0	1	150.166	0.351812	0.352047	0.0181426	8	0.0102299	12	0	0.000000000000000E+000	6.38705e-06
2	1	0	1	0	1	150.516	0.355307	0.355589	0.126056	8	0.0102614	12	0	0.3496	4.48243e-05
2	1	0	1	0	1	150.865	0.358802	0.359073	0.150495	8	0.0103111	12	0	0.6991	5.40385e-05
2	1	0	1	0	1	151.215	0.362298	0.362552	0.157689	8	0.0103648	12	0	1.0486	5.71702e-05
2	1	0	1	0	1	151.564	0.365793	0.366139	0.160365	8	0.0104194	12	0	1.3982	5.8716e-05
2	1	0	1	0	1	151.914	0.369289	0.369564	0.158939	8	0.0104744	12	0	1.7478	5.87382e-05
2	1	0	1	0	1	152.263	0.372784	0.37305	0.155748	8	0.0105292	12	0	2.0972	5.81019e-05
2	1	0	1	0	1	152.613	0.376279	0.37654	0.152723	8	0.0105837	12	0	2.4468	5.75062e-05
2	1	0	1	0	1	152.962	0.379775	0.379991	0.151684	8	0.010638	12	0	2.7964	5.76388e-05
2	1	0	1	0	1	153.312	0.383271	0.383518	0.153235	8	0.010692	12	0	3.1459	5.87684e-05
2	1	0	1	0	1	153.661	0.386765	0.386989	0.155163	8	0.0107458	12	0	3.4954	6.00465e-05
2	1	0	1	0	1	154.011	0.390261	0.390514	0.156049	8	0.0107992	12	0	3.845	6.09392e-05
2	1	0	1	0	1	154.361	0.393757	0.393979	0.154354	8	0.0108525	12	0	4.1945	6.0812e-05
2	1	0	1	0	1	154.71	0.397252	0.39748	0.151494	8	0.0109055	12	0	4.544	6.02159e-05
2	1	0	1	0	1	155.06	0.400747	0.400977	0.147558	8	0.0109582	12	0	4.8936	5.91674e-05
2	1	0	1	0	1	155.409	0.404243	0.404546	0.146716	8	0.0110106	12	0	5.2431	5.93532e-05
2	1	0	1	0	1	155.759	0.407738	0.407995	0.147321	8	0.0110629	12	0	5.5926	6.01061e-05
2	1	0	1	0	1	156.108	0.411233	0.411518	0.150892	8	0.0111152	12	0	5.9422	6.20946e-05
2	1	0	1	0	1	156.458	0.414729	0.414996	0.152099	8	0.0111674	12	0	6.2917	6.31204e-05
2	1	0	1	0	1	156.807	0.418224	0.41849	0.152157	8	0.0112196	12	0	6.6412	6.3676e-05
2	1	0	1	0	1	157.157	0.421719	0.421982	0.149848	8	0.0112718	12	0	6.9908	6.32331e-05
2	1	0	1	0	1	157.506	0.425214	0.425495	0.147396	8	0.011324	12	0	7.3403	6.27163e-05
2	1	0	1	0	1	157.856	0.42871	0.429015	0.147033	8	0.0113764	12	0	7.6898	6.30794e-05
2	1	0	1	0	1	158.205	0.432205	0.432548	0.148871	8	0.0114291	12	0	8.0394	6.43941e-05
2	1	0	1	0	1	158.555	0.4357	0.435985	0.153474	8	0.0114822	12	0	8.3889	6.69122e-05
2	1	0	1	0	1	158.904	0.439196	0.439474	0.157377	8	0.0115359	12	0	8.7384	6.9163e-05
2	1	0	1	0	1	159.254	0.442691	0.443006	0.160296	8	0.0115903	12	0	9.088	7.10122e-05
2	1	0	1	0	1	159.604	0.446186	0.446441	0.160391	8	0.0116456	12	0	9.4375	7.1605e-05
2	1	0	1	0	1	159.953	0.449682	0.449965	0.161089	8	0.011702	12	0	9.787	7.24846e-05
2	1	0	1	0	1	160.165	0.448184	0.448474	-0.00130958	8	0.0117178	12	0	9.9988	-5.87315e-07
2	0	0	1	0	1	160.544	0.444389	0.444664	-0.0747513	8	0.0116997	13	0	0.3295	-3.32392e-05
2	0	0	1	0	1	160.894	0.440893	0.441128	-0.0880338	8	0.0116719	13	0	0.6791	-3.88341e-05
2	0	0	1	0	1	161.243	0.437399	0.437705	-0.0928101	8	0.0116407	13	0	1.0286	-4.06235e-05
2	0	0	1	0	1	161.608	0.433753	0.434056	-0.0964409	8	0.0116056	13	0	1.3931	-4.18608e-05
2	0	0	1	0	1	161.972	0.430108	0.4304	-0.107562	8	0.0115685	12	0	1.7577	-4.62947e-05
2	0	0	1	0	1	162.322	0.426612	0.426904	-0.111006	8	0.0115312	12	0	2.1072	-4.7389e-05
2	0	0	1	0	1	162.671	0.423117	0.423409	-0.111739	8	0.0114926	12	0	2.4567	-4.73111e-05
2	0	0	1	0	1	163.021	0.419622	0.419862	-0.112794	8	0.0114527	12	0	2.8063	-4.73577e-05
2	0	0	1	0	1	163.371	0.416126	0.416369	-0.115439	8	0.0114118	12	0	3.1558	-4.80654e-05
2	0	0	1	0	1	163.72	0.412631	0.412873	-0.120415	8	0.0113698	12	0	3.5053	-4.97159e-05
2	0	0	1	0	1	164.07	0.409136	0.409375	-0.127841	8	0.0113267	12	0	3.8549	-5.2335e-05
2	0	0	1	0	1	164.419	0.40564	0.405933	-0.130621	8	0.0112825	12	0	4.2044	-5.30235e-05
2	0	0	1	0	1	164.769	0.402145	0.402411	-0.132537	8	0.0112375	12	0	4.5539	-5.33344e-05
2	0	0	1	0	1	165.118	0.39865	0.398986	-0.131742	8	0.0111916	12	0	4.9035	-5.25631e-05
2	0	0	1	0	1	165.468	0.395154	0.395417	-0.131867	8	0.011145	12	0	5.253	-5.21424e-05
2	0	0	1	0	1	165.817	0.391659	0.391933	-0.133429	8	0.0110976	12	0	5.6025	-5.22951e-05
2	0	0	1	0	1	166.167	0.388164	0.388399	-0.138233	8	0.0110493	12	0	5.9521	-5.36896e-05
2	0	0	1	0	1	166.516	0.384668	0.384931	-0.143585	8	0.0110002	12	0	6.3016	-5.52704e-05
2	0	0	1	0	1	166.866	0.381173	0.381477	-0.147818	8	0.0109501	12	0	6.6511	-5.63893e-05
2	0	0	1	0	1	167.215	0.377678	0.37795	-0.14953	8	0.0108992	12	0	7.0007	-5.65147e-05
2	0	0	1	0	1	167.565	0.374183	0.374464	-0.149069	8	0.0108473	12	0	7.3502	-5.58211e-05
2	0	0	1	0	1	167.914	0.370687	0.370963	-0.149261	8	0.0107946	12	0	7.6997	-5.53702e-05
2	0	0	1	0	1	168.264	0.367191	0.367458	-0.151119	8	0.0107411	12	0	8.0493	-5.55299e-05
2	0	0	1	0	1	168.614	0.363697	0.36395	-0.156067	8	0.0106866	12	0	8.3988	-5.68004e-05
2	0	0	1	0	1	168.963	0.360201	0.360456	-0.161747	8	0.0106311	12	0	8.7483	-5.83025e-05
2	0	0	1	0	1	169.313	0.356705	0.356963	-0.16682	8	0.0105745	12	0	9.0979	-5.95485e-05
2	0	0	1	0	1	169.662	0.353211	0.353505	-0.168849	8	0.0105168	12	0	9.4474	-5.96891e-05
2	0	0	0	0	1	169.981	0.349989	0.35025	-0.16971	8	0.0104633	12	0	9.766	-5.94408e-05
2	1	0	1	0	0	170.263	0.35281	0.353047	0.068554	9	0.0104581	12	0	0.0999	2.42028e-05
2	1	0	1	0	0	170.612	0.356306	0.356569	0.136271	9	0.0104978	12	0	0.4494	4.85899e-05
2	1	0	1	0	0	170.962	0.359801	0.360069	0.153463	9	0.010549	12	0	0.799	5.52571e-05
2	1	0	1	0	0	171.312	0.363296	0.363521	0.158245	9	0.0106028	12	0	1.1485	5.75254e-05
2	1	0	1	0	0	171.661	0.366792	0.367035	0.158688	9	0.0106572	12	0	1.498	5.8244e-05
2	1	0	1	0	0	172.011	0.370287	0.370534	0.155615	9	0.0107117	12	0	1.8476	5.76607e-05
2	1	0	1	0	0	172.36	0.373783	0.374037	0.15276	9	0.0107661	12	0	2.1972	5.71378e-05
2	1	0	1	0	0	172.71	0.377279	0.377568	0.150976	9	0.0108201	12	0	2.5467	5.70038e-05
2	1	0	1	0	0	173.059	0.380773	0.381094	0.151854	9	0.0108739	12	0	2.8962	5.78708e-05
2	1	0	1	0	0	173.409	0.384269	0.38454	0.153933	9	0.0109274	12	0	3.2458	5.91935e-05
2	1	0	1	0	0	173.758	0.387765	0.387994	0.155168	9	0.0109807	12	0	3.5953	6.02042e-05
2	1	0	1	0	0	174.108	0.391259	0.391494	0.154171	9	0.0110338	12	0	3.9448	6.03572e-05
2	1	0	1	0	0	174.457	0.394755	0.395007	0.150108	9	0.0110865	12	0	4.2944	5.92938e-05
2	1	0	1	0	0	174.807	0.398251	0.398523	0.146925	9	0.0111389	12	0	4.6439	5.85529e-05
2	1	0	1	0	0	175.156	0.401745	0.401991	0.145337	9	0.0111909	12	0	4.9934	5.84241e-05
2	1	0	1	0	0	175.506	0.405241	0.405517	0.146603	9	0.0112428	12	0	5.343	5.945e-05
2	1	0	1	0	0	175.856	0.408737	0.40896	0.149169	9	0.0112946	12	0	5.6925	6.1004e-05
2	1	0	1	0	0	176.205	0.412232	0.412501	0.151479	9	0.0113465	12	0	6.042	6.24852e-05
2	1	0	1	0	0	176.555	0.415727	0.415978	0.150231	9	0.0113982	12	0	6.3916	6.24926e-05
2	1	0	1	0	0	176.904	0.419222	0.419508	0.147549	9	0.0114498	12	0	6.7411	6.18978e-05
2	1	0	1	0	0	177.254	0.422718	0.423032	0.145246	9	0.0115014	12	0	7.0906	6.14438e-05
2	1	0	1	0	0	177.603	0.426213	0.42651	0.144433	9	0.011553	12	0	7.4402	6.16019e-05
2	1	0	1	0	0	177.953	0.429708	0.429991	0.147305	9	0.0116048	12	0	7.7897	6.33397e-05
2	1	0	1	0	0	178.302	0.433204	0.433492	0.151234	9	0.011657	12	0	8.1392	6.55586e-05
2	1	0	1	0	0	178.652	0.436699	0.436978	0.154496	9	0.0117097	12	0	8.4888	6.75113e-05
2	1	0	1	0	0	179.001	0.440194	0.440468	0.155891	9	0.0117629	12	0	8.8383	6.86651e-05
2	1	0	1	0	0	179.351	0.44369	0.44396	0.155177	9	0.0118168	12	0	9.1878	6.88921e-05
2	1	0	1	0	0	179.7	0.447185	0.447455	0.155367	9	0.0118714	12	0	9.5374	6.95199e-05
2	1	0	1	0	0	179.98	0.450007	0.450059	0.156316	9	0.0119159	12	0	9.8165	7.03511e-05
2	0	0	1	0	0	180.292	0.446885	0.447142	-0.0486588	9	0.0119235	13	0	0.0649	-2.17574e-05
2	0	0	1	0	0	180.641	0.44339	0.443655	-0.0802344	9	0.0119003	13	0	0.4144	-3.55964e-05
2	0	0	1	0	0	180.991	0.439895	0.44018	-0.0883406	9	0.0118709	13	0	0.7639	-3.88858e-05
2	0	0	1	0	0	181.34	0.436399	0.43666	-0.0924525	9	0.0118386	13	0	1.1135	-4.03703e-05
2	0	0	1	0	0	181.72	0.432604	0.432869	-0.104923	9	0.0118009	12	0	1.493	-4.5418e-05
2	0	0	1	0	0	182.069	0.429109	0.429331	-0.107686	9	0.0117646	12	0	1.8425	-4.62331e-05
2	0	0	1	0	0	182.419	0.425614	0.425926	-0.108494	9	0.0117266	12	0	2.1921	-4.62104e-05
2	0	0	1	0	0	182.768	0.422118	0.422415	-0.110582	9	0.0116876	12	0	2.5416	-4.67113e-05
2	0	0	1	0	0	183.118	0.418623	0.418905	-0.113855	9	0.0116473	12	0	2.8911	-4.76943e-05
2	0	0	1	0	0	183.467	0.415128	0.415402	-0.119991	9	0.0116059	12	0	3.2407	-4.98446e-05
2	0	0	1	0	0	183.817	0.411632	0.411938	-0.125322	9	0.0115635	12	0	3.5902	-5.1625e-05
2	0	0	1	0	0	184.166	0.408137	0.408375	-0.129768	9	0.0115199	12	0	3.9397	-5.2994e-05
2	0	0	1	0	0	184.516	0.404642	0.404912	-0.129579	9	0.0114754	12	0	4.2893	-5.2468e-05
2	0	0	1	0	0	184.866	0.401146	0.401422	-0.129208	9	0.0114302	12	0	4.6388	-5.18672e-05
2	0	0	1	0	0	185.215	0.397651	0.397951	-0.129628	9	0.0113842	12	0	4.9883	-5.15859e-05
2	0	0	1	0	0	185.565	0.394156	0.394416	-0.132366	9	0.0113373	12	0	5.3379	-5.22073e-05
2	0	0	1	0	0	185.914	0.39066	0.390924	-0.137293	9	0.0112897	12	0	5.6874	-5.36711e-05
2	0	0	1	0	0	186.264	0.387165	0.387421	-0.142254	9	0.0112412	12	0	6.0369	-5.51123e-05
2	0	0	1	0	0	186.613	0.38367	0.383921	-0.146104	9	0.0111918	12	0	6.3865	-5.60923e-05
2	0	0	1	0	0	186.963	0.380174	0.380423	-0.146491	9	0.0111415	12	0	6.736	-5.57286e-05
2	0	0	1	0	0	187.312	0.376679	0.376939	-0.14676	9	0.0110904	12	0	7.0855	-5.53195e-05
2	0	0	1	0	0	187.662	0.373183	0.373428	-0.14648	9	0.0110385	12	0	7.4351	-5.46996e-05
2	0	0	1	0	0	188.011	0.369689	0.36993	-0.149476	9	0.0109857	12	0	7.7846	-5.52956e-05
2	0	0	1	0	0	188.361	0.366193	0.366463	-0.154304	9	0.010932	12	0	8.1341	-5.6547e-05
2	0	0	1	0	0	188.71	0.362697	0.362977	-0.160238	9	0.0108772	12	0	8.4837	-5.81626e-05
2	0	0	1	0	0	189.06	0.359203	0.359467	-0.164306	9	0.0108214	12	0	8.8332	-5.90625e-05
2	0	0	1	0	0	189.409	0.355707	0.355969	-0.166245	9	0.0107645	12	0	9.1827	-5.91779e-05
2	0	0	1	0	0	189.759	0.352211	0.352463	-0.166258	9	0.0107067	12	0	9.5323	-5.85999e-05
2	0	0	1	0	1	190.01	0.350314	0.350578	-0.126085	10	0.0106658	12	0	9.7835	-4.42025e-05
2	1	0	1	0	1	190.36	0.353809	0.354082	0.101388	10	0.0106736	12	0	0.1998	3.58997e-05
2	1	0	1	0	1	190.709	0.357304	0.357587	0.144949	10	0.0107183	12	0	0.5493	5.18321e-05
2	1	0	1	0	1	191.059	0.3608	0.361036	0.155705	10	0.0107704	12	0	0.8988	5.62153e-05
2	1	0	1	0	1	191.408	0.364295	0.36457	0.156835	10	0.0108241	12	0	1.2484	5.71774e-05
2	1	0	1	0	1	191.758	0.367791	0.368041	0.154084	10	0.0108782	12	0	1.598	5.67091e-05
2	1	0	1	0	1	192.107	0.371286	0.371533	0.151586	10	0.0109322	12	0	1.9474	5.63193e-05
2	1	0	1	0	1	192.457	0.374781	0.375019	0.150443	10	0.0109861	12	0	2.297	5.6419e-05
2	1	0	1	0	1	192.807	0.378277	0.37855	0.152412	10	0.0110396	12	0	2.6466	5.76956e-05
2	1	0	1	0	1	193.156	0.381773	0.382085	0.154182	10	0.011093	12	0	2.9961	5.89105e-05
2	1	0	1	0	1	193.506	0.385267	0.385545	0.155005	10	0.0111461	12	0	3.3456	5.97615e-05
2	1	0	1	0	1	193.855	0.388763	0.389029	0.152761	10	0.011199	12	0	3.6952	5.94283e-05
2	1	0	1	0	1	194.205	0.392259	0.392517	0.149545	10	0.0112515	12	0	4.0447	5.8699e-05
2	1	0	1	0	1	194.554	0.395753	0.396018	0.145806	10	0.0113036	12	0	4.3942	5.7742e-05
2	1	0	1	0	1	194.904	0.399249	0.399523	0.145051	10	0.0113556	12	0	4.7438	5.79511e-05
2	1	0	1	0	1	195.253	0.402745	0.403004	0.146161	10	0.0114072	12	0	5.0933	5.89035e-05
2	1	0	1	0	1	195.603	0.40624	0.40655	0.14855	10	0.0114587	12	0	5.4428	6.03932e-05
2	1	0	1	0	1	195.952	0.409735	0.409987	0.151459	10	0.0115101	12	0	5.7924	6.20961e-05
2	1	0	1	0	1	196.302	0.41323	0.41348	0.149198	10	0.0115616	12	0	6.1419	6.16902e-05
2	1	0	1	0	1	196.651	0.416726	0.417035	0.146821	10	0.0116128	12	0	6.4914	6.12297e-05
2	1	0	1	0	1	197.001	0.420221	0.420526	0.143593	10	0.0116639	12	0	6.841	6.03845e-05
2	1	0	1	0	1	197.351	0.423716	0.424012	0.142965	10	0.0117149	12	0	7.1905	6.06186e-05
2	1	0	1	0	1	197.7	0.427212	0.427486	0.144681	10	0.0117661	12	0	7.54	6.18492e-05
2	1	0	1	0	1	198.05	0.430707	0.431006	0.148539	10	0.0118176	12	0	7.8896	6.40211e-05
2	1	0	1	0	1	198.399	0.434202	0.434503	0.151546	10	0.0118693	12	0	8.2391	6.58472e-05
2	1	0	1	0	1	198.749	0.437698	0.437988	0.153347	10	0.0119216	12	0	8.5886	6.71641e-05
2	1	0	1	0	1	199.098	0.441193	0.441493	0.152581	10	0.0119744	12	0	8.9382	6.73633e-05
2	1	0	1	0	1	199.448	0.444688	0.444966	0.151968	10	0.0120278	12	0	9.2877	6.76206e-05
2	1	0	1	0	1	199.797	0.448184	0.448494	0.153404	10	0.012082	12	0	9.6372	6.8801e-05
2	1	0	1	0	1	200.009	0.449682	0.449972	0.116888	10	0.0121142	12	0	9.849	5.25965e-05
2	0	0	1	0	1	200.388	0.445887	0.446092	-0.0646444	10	0.0121117	13	0	0.1797	-2.88374e-05
2	0	0	1	0	1	200.738	0.442391	0.442689	-0.0832623	10	0.0120855	13	0	0.5293	-3.68593e-05
2	0	0	1	0	1	201.088	0.438897	0.439164	-0.089446	10	0.0120548	13	0	0.8788	-3.92814e-05
2	0	0	1	0	1	201.467	0.435101	0.4354	-0.101325	10	0.0120184	12	0	1.2583	-4.4117e-05
2	0	0	1	0	1	201.817	0.431606	0.43192	-0.105677	10	0.011983	12	0	1.6079	-4.56439e-05
2	0	0	1	0	1	202.166	0.42811	0.428389	-0.107812	10	0.011946	12	0	1.9574	-4.61856e-05
2	0	0	1	0	1	202.516	0.424615	0.424865	-0.108584	10	0.0119077	12	0	2.3069	-4.61334e-05
2	0	0	1	0	1	202.865	0.42112	0.421422	-0.111735	10	0.011868	12	0	2.6565	-4.70875e-05
2	0	0	1	0	1	203.215	0.417624	0.417893	-0.11645	10	0.0118274	12	0	3.006	-4.86639e-05
2	0	0	1	0	1	203.564	0.414129	0.414378	-0.122486	10	0.0117856	12	0	3.3555	-5.07556e-05
2	0	0	1	0	1	203.914	0.410634	0.410898	-0.126847	10	0.0117428	12	0	3.7051	-5.2121e-05
2	0	0	1	0	1	204.263	0.407138	0.407409	-0.129727	10	0.0116988	12	0	4.0546	-5.28519e-05
2	0	0	1	0	1	204.613	0.403643	0.403911	-0.128908	10	0.0116542	12	0	4.4041	-5.20674e-05
2	0	0	1	0	1	204.962	0.400148	0.400347	-0.128711	10	0.0116087	12	0	4.7537	-5.15293e-05
2	0	0	1	0	1	205.312	0.396652	0.39688	-0.130061	10	0.0115625	12	0	5.1032	-5.16184e-05
2	0	0	1	0	1	205.661	0.393157	0.393409	-0.133506	10	0.0115155	12	0	5.4527	-5.25224e-05
2	0	0	1	0	1	206.011	0.389662	0.38993	-0.139157	10	0.0114677	12	0	5.8023	-5.42616e-05
2	0	0	1	0	1	206.361	0.386166	0.386405	-0.143795	10	0.0114189	12	0	6.1518	-5.5563e-05
2	0	0	1	0	1	206.71	0.382671	0.382897	-0.145955	10	0.0113693	12	0	6.5013	-5.58858e-05
2	0	0	1	0	1	207.06	0.379176	0.379432	-0.146232	10	0.0113189	12	0	6.8509	-5.54851e-05
2	0	0	1	0	1	207.409	0.375681	0.375968	-0.145844	10	0.0112677	12	0	7.2004	-5.48325e-05
2	0	0	1	0	1	207.759	0.372185	0.372437	-0.146794	10	0.0112156	12	0	7.5499	-5.46717e-05
2	0	0	1	0	1	208.108	0.368689	0.368909	-0.150402	10	0.0111626	12	0	7.8995	-5.54848e-05
2	0	0	1	0	1	208.458	0.365195	0.365402	-0.155678	10	0.0111088	12	0	8.249	-5.68849e-05
2	0	0	1	0	1	208.807	0.361699	0.361953	-0.161198	10	0.0110539	12	0	8.5985	-5.83462e-05
2	0	0	1	0	1	209.157	0.358203	0.358441	-0.165383	10	0.010998	12	0	8.9481	-5.92802e-05
2	0	0	1	0	1	209.506	0.354709	0.354975	-0.165732	10	0.010941	12	0	9.2976	-5.88306e-05
2	0	0	1	0	1	209.856	0.351213	0.351486	-0.166431	10	0.010883	12	0	9.6471	-5.84981e-05
2	0	0	1	0	1	209.975	0.349989	0.350288	-0.167478	10	0.0108633	12	0	9.766	-5.86655e-05