File: ACS_Catal_2026/Figures_Na_K/main_figures/data/EC/20240126_2-102_Add_Na/20240125_2-102_011_add_K_5mL_elctrode3_C01.mpt
EC-Lab ASCII FILE
Nb header lines : 66

Cyclic Voltammetry Advanced

Run on channel : 1 (SN 66412)
User :
CE vs. WE compliance from -10 V to 10 V
Electrode connection : standard
Potential control : Ewe
Ewe ctrl range : min = -1.00 V, max = 1.00 V
Safety Limits :
	Do not start on E overload
Acquisition started on : 01/26/2024 17:39:30.962
Loaded Setting File :  C:\Users\NakamuraT\Documents\EC-Lab\Data\Yatsuzuka\20240126_2-102_Add_Na\20240125_2-102_003_K_elctrode1.mps
Saved on :
	File : 20240125_2-102_011_add_K_5mL_elctrode3_C01.mpr
	Directory : C:\Users\NakamuraT\Documents\EC-Lab\Data\Yatsuzuka\20240126_2-102_Add_Na\
	Host : 192.109.209.100
Device : SP-150e (SN .003411)
Address : 192.109.209.236
EC-Lab for windows v11.50 (software)
Internet server v11.50 (firmware)
Command interpretor v11.50 (firmware)
Electrode material :
Initial state :
Electrolyte :
Comments :
Electrode surface area : 0.001 cm2
Characteristic mass : 0.001 g
Equivalent Weight : 0.000 g/eq.
Density : 0.000 g/cm3
Volume (V) : 0.001 cm3
Cycle Definition : Charge/Discharge alternance
Ei (V)              0.450
vs.                 Ref
ti (h:m:s)          0:00:10.0000
dti (s)             0.0000
dE/dt               5.000
dE/dt unit          mV/s
E1 (V)              0.700
vs.                 Ref
t1 (h:m:s)          0:00:0.0000
dt1 (s)             0.1000
Step percent        50
N                   10
E range min (V)     -1.000
E range max (V)     1.000
I Range             10 mA
I Range min         Unset
I Range max         Unset
I Range init        Unset
Bandwidth           5
E2 (V)              0.450
vs.                 Ref
t2 (h:m:s)          0:00:0.0000
dt2 (s)             0.1000
nc cycles           14
nr                  1
Reverse Scan        0
Ef (V)              0.000
vs.                 Eoc
tf (h:m:s)          0:00:0.0000
dtf (s)             0.1000

mode	ox/red	error	control changes	Ns changes	counter inc.	time/s	control/V	Ewe/V	<I>/mA	cycle number	(Q-Qo)/C	I Range	Ns	step time/s	P/W
2	0	0	1	0	0	0.000000000000000E+000	0.44994	0.45041	-0.00662956	1	0.0000000E+000	11	0	0.000000000000000E+000	-2.98602e-06
2	1	0	1	0	0	2.4554	0.462217	0.46251	0.0673272	1	0.000149322	11	0	2.4004	3.11395e-05
2	1	0	1	0	0	4.9558	0.47472	0.475042	0.0663517	1	0.000314964	11	0	4.9008	3.15199e-05
2	1	0	1	0	0	7.4562	0.487222	0.487544	0.064674	1	0.000479779	11	0	7.4012	3.15314e-05
2	1	0	1	0	0	9.9566	0.499724	0.500064	0.0675011	1	0.000645215	11	0	9.9016	3.37549e-05
2	1	0	0	0	0	12.4572	0.512226	0.512483	0.0695489	1	0.000814846	11	0	12.4022	3.56426e-05
2	1	0	0	0	0	14.9576	0.524729	0.525015	0.0739824	1	0.000994724	11	0	14.9026	3.88419e-05
2	1	0	0	0	0	17.458	0.537231	0.53756	0.0872938	1	0.00119529	11	0	17.403	4.69256e-05
2	1	0	0	0	0	19.9584	0.549733	0.550053	0.107302	1	0.00143506	11	0	19.9034	5.90216e-05
2	1	0	1	0	0	22.4589	0.562236	0.562523	0.143734	1	0.00174609	11	0	22.4039	8.08536e-05
2	1	0	1	0	0	24.9594	0.574737	0.575045	0.210154	1	0.00218191	11	0	24.9044	0.000120848
2	1	0	1	0	0	27.4598	0.58724	0.587549	0.315602	1	0.00282829	11	0	27.4048	0.000185431
2	1	0	1	0	0	29.9602	0.599742	0.600092	0.481138	1	0.00381276	11	0	29.9052	0.000288727
2	1	0	1	0	0	32.4606	0.612244	0.612503	0.723243	1	0.00530275	11	0	32.4056	0.000442989
2	1	0	0	0	0	34.9612	0.624746	0.625063	1.04317	1	0.00749574	11	0	34.9062	0.000652046
2	1	0	0	0	0	37.4616	0.637249	0.637543	1.44523	1	0.0105946	11	0	37.4066	0.000921396
2	1	0	0	0	0	39.962	0.649751	0.650062	1.91805	1	0.0147869	11	0	39.907	0.00124685
2	1	0	0	0	0	42.4624	0.662253	0.662539	2.44793	1	0.0202364	11	0	42.4074	0.00162185
2	1	0	1	0	0	44.9629	0.674755	0.675079	3.02795	1	0.027078	11	0	44.9079	0.00204411
2	1	0	1	0	0	47.4634	0.687257	0.687545	3.64421	1	0.0354145	11	0	47.4084	0.00250556
2	1	0	1	0	0	49.9588	0.699735	0.700041	4.2874	1	0.045307	11	0	49.9038	0.00300136
2	1	0	1	0	0	52.2722	0.688658	0.688933	3.65772	1	0.0545081	11	0	52.2172	0.00251992
2	1	0	1	0	0	54.7726	0.676155	0.676427	3.008	1	0.0628258	11	0	54.7176	0.00203469
2	1	0	1	0	0	57.2731	0.663653	0.663903	2.40873	1	0.0695867	11	0	57.2181	0.00159916
2	1	0	0	0	0	59.7736	0.651151	0.651425	1.86646	1	0.0749169	11	0	59.7186	0.00121586
2	1	0	0	0	0	62.274	0.638649	0.638951	1.38639	1	0.0789663	11	0	62.219	0.000885837
2	1	0	0	0	0	64.7744	0.626147	0.626418	0.977762	1	0.0819033	11	0	64.7194	0.000612487
2	1	0	0	0	0	67.2748	0.613644	0.613924	0.657288	1	0.0839302	11	0	67.2198	0.000403525
2	1	0	1	0	0	69.7754	0.601142	0.601527	0.406986	1	0.0852434	11	0	69.7204	0.000244813
2	1	0	1	0	0	72.2758	0.58864	0.588961	0.230848	1	0.0860272	11	0	72.2208	0.000135961
2	1	0	1	0	0	74.7762	0.576138	0.576472	0.115579	1	0.0864482	11	0	74.7212	6.66281e-05
2	1	0	1	0	0	77.2766	0.563635	0.563964	0.0403591	1	0.0866359	11	0	77.2216	2.27611e-05
2	1	0	1	0	0	79.7771	0.551133	0.551442	-0.00154841	1	0.0866806	11	0	0.1001	-8.53861e-07
2	0	0	0	0	0	82.2776	0.538631	0.538977	-0.0275909	1	0.08664	11	0	2.6006	-1.48709e-05
2	0	0	0	0	0	84.778	0.526129	0.526461	-0.0443594	1	0.0865492	11	0	5.101	-2.33535e-05
2	0	0	0	0	0	87.2784	0.513627	0.51393	-0.0515072	1	0.086428	11	0	7.6014	-2.64711e-05
2	0	0	0	0	0	89.7788	0.501124	0.501444	-0.0595009	1	0.0862876	11	0	10.1018	-2.98364e-05
2	0	0	1	0	0	92.2794	0.488622	0.48897	-0.0635398	1	0.0861345	11	0	12.6024	-3.10691e-05
2	0	0	1	0	0	94.7798	0.47612	0.476419	-0.0656195	1	0.0859717	11	0	15.1028	-3.12624e-05
2	0	0	1	0	0	97.2802	0.463618	0.463933	-0.0711219	1	0.0858001	11	0	17.6032	-3.29958e-05
2	0	0	1	0	0	99.7806	0.451115	0.451451	-0.0736558	1	0.0856201	11	0	20.1036	-3.3252e-05
2	1	0	0	0	1	102.154	0.460767	0.46106	0.0630535	2	0.0857088	11	0	1.9002	2.90715e-05
2	1	0	1	0	1	104.655	0.473269	0.473546	0.0629028	2	0.0858659	11	0	4.4008	2.97874e-05
2	1	0	1	0	1	107.155	0.485772	0.486046	0.0625357	2	0.0860244	11	0	6.9012	3.03952e-05
2	1	0	1	0	1	109.656	0.498274	0.498581	0.0655928	2	0.0861841	11	0	9.4016	3.27033e-05
2	1	0	1	0	1	112.156	0.510776	0.511079	0.0663051	2	0.0863478	11	0	11.902	3.38871e-05
2	1	0	1	0	1	114.656	0.523278	0.523559	0.071316	2	0.0865207	11	0	14.4025	3.73382e-05
2	1	0	0	0	1	117.157	0.53578	0.536065	0.0829232	2	0.086712	11	0	16.903	4.44522e-05
2	1	0	0	0	1	119.657	0.548283	0.54857	0.0998181	2	0.0869384	11	0	19.4034	5.47572e-05
2	1	0	0	0	1	122.158	0.560785	0.561105	0.134778	2	0.0872297	11	0	21.9038	7.56246e-05
2	1	0	0	0	1	124.658	0.573287	0.573623	0.194948	2	0.0876349	11	0	24.4042	0.000111827
2	1	0	1	0	1	127.159	0.585789	0.586091	0.291792	2	0.0882341	11	0	26.9048	0.000171017
2	1	0	1	0	1	129.659	0.598292	0.598578	0.448681	2	0.0891478	11	0	29.4052	0.000268571
2	1	0	1	0	1	132.16	0.610794	0.61111	0.676911	2	0.0905383	11	0	31.9056	0.000413667
2	1	0	1	0	1	134.66	0.623296	0.623634	0.984528	2	0.0926005	11	0	34.406	0.000613985
2	1	0	0	0	1	137.161	0.635798	0.636115	1.37695	2	0.0955391	11	0	36.9066	0.000875899
2	1	0	0	0	1	139.661	0.648301	0.648594	1.83796	2	0.0995453	11	0	39.407	0.00119209
2	1	0	0	0	1	142.161	0.660803	0.661099	2.36172	2	0.104788	11	0	41.9074	0.00156133
2	1	0	0	0	1	144.662	0.673305	0.673568	2.93825	2	0.111406	11	0	44.4078	0.00197911
2	1	0	1	0	1	147.162	0.685808	0.686035	3.55035	2	0.119515	11	0	46.9083	0.00243566
2	1	0	1	0	1	149.663	0.698309	0.698569	4.19677	2	0.129199	11	0	49.4088	0.00293173
2	1	0	1	0	1	151.961	0.690158	0.690444	3.72671	2	0.138466	11	0	51.7072	0.00257308
2	1	0	1	0	1	154.462	0.677656	0.677957	3.07269	2	0.146953	11	0	54.2076	0.00208315
2	1	0	1	0	1	156.962	0.665153	0.665426	2.47132	2	0.15387	11	0	56.708	0.00164448
2	1	0	1	0	1	159.462	0.652651	0.65298	1.92246	2	0.159349	11	0	59.2084	0.00125533
2	1	0	0	0	1	161.963	0.640149	0.640443	1.43962	2	0.163537	11	0	61.709	0.000921994
2	1	0	0	0	1	164.463	0.627647	0.627963	1.02772	2	0.166605	11	0	64.2094	0.000645369
2	1	0	0	0	1	166.964	0.615145	0.615425	0.68738	2	0.16873	11	0	66.7098	0.000423031
2	1	0	0	0	1	169.464	0.602642	0.602947	0.427758	2	0.170107	11	0	69.2102	0.000257915
2	1	0	1	0	1	171.965	0.59014	0.590446	0.246231	2	0.170934	11	0	71.7108	0.000145386
2	1	0	1	0	1	174.465	0.577638	0.577909	0.122532	2	0.171382	11	0	74.2112	7.08125e-05
2	1	0	1	0	1	176.966	0.565136	0.565483	0.0476151	2	0.171588	11	0	76.7116	2.69255e-05
2	1	0	1	0	1	179.466	0.552633	0.552945	0.00198556	2	0.171643	11	0	79.212	1.0979e-06
2	0	0	1	0	1	181.966	0.540131	0.540506	-0.0268939	2	0.171609	11	0	2.3004	-1.45363e-05
2	0	0	0	0	1	184.467	0.527629	0.527915	-0.0409337	2	0.171523	11	0	4.801	-2.16095e-05
2	0	0	0	0	1	186.967	0.515127	0.515451	-0.0518723	2	0.171405	11	0	7.3014	-2.67376e-05
2	0	0	0	0	1	189.468	0.502625	0.502912	-0.0583936	2	0.171267	11	0	9.8018	-2.93669e-05
2	0	0	0	0	1	191.968	0.490122	0.490486	-0.0613999	2	0.171115	11	0	12.3022	-3.01158e-05
2	0	0	1	0	1	194.469	0.47762	0.477975	-0.0674347	2	0.170954	11	0	14.8028	-3.22321e-05
2	0	0	1	0	1	196.969	0.465118	0.465391	-0.0693727	2	0.170783	11	0	17.3032	-3.22855e-05
2	0	0	1	0	1	199.47	0.452616	0.452909	-0.0730966	2	0.170604	11	0	19.8036	-3.31061e-05
2	1	0	0	0	0	201.843	0.459267	0.459586	0.0601867	3	0.170652	11	0	1.6002	2.7661e-05
2	1	0	0	0	0	204.344	0.471769	0.472096	0.0634197	3	0.170808	11	0	4.1006	2.99402e-05
2	1	0	1	0	0	206.844	0.484271	0.48457	0.0631452	3	0.170966	11	0	6.6012	3.05983e-05
2	1	0	1	0	0	209.345	0.496774	0.497098	0.0627027	3	0.171125	11	0	9.1016	3.11694e-05
2	1	0	1	0	0	211.845	0.509276	0.509572	0.0669421	3	0.171287	11	0	11.602	3.41118e-05
2	1	0	1	0	0	214.345	0.521778	0.522069	0.0700706	3	0.171458	11	0	14.1024	3.65817e-05
2	1	0	1	0	0	216.846	0.53428	0.534544	0.079789	3	0.171645	11	0	16.6029	4.26507e-05
2	1	0	0	0	0	219.346	0.546782	0.547103	0.0980092	3	0.171865	11	0	19.1034	5.36211e-05
2	1	0	0	0	0	221.847	0.559285	0.559576	0.127099	3	0.172143	11	0	21.6038	7.11217e-05
2	1	0	0	0	0	224.347	0.571787	0.572106	0.183927	3	0.172527	11	0	24.1042	0.000105226
2	1	0	0	0	0	226.848	0.584289	0.584626	0.274739	3	0.17309	11	0	26.6046	0.00016062
2	1	0	1	0	0	229.348	0.596791	0.597109	0.419985	3	0.173947	11	0	29.1052	0.000250777
2	1	0	1	0	0	231.849	0.609294	0.609589	0.638108	3	0.175254	11	0	31.6056	0.000388983
2	1	0	1	0	0	234.349	0.621796	0.622094	0.933461	3	0.177203	11	0	34.106	0.0005807
2	1	0	1	0	0	236.849	0.634298	0.63462	1.31344	3	0.179998	11	0	36.6064	0.000833538
2	1	0	1	0	0	239.35	0.6468	0.647082	1.76531	3	0.183835	11	0	39.1069	0.0011423
2	1	0	0	0	0	241.85	0.659302	0.65964	2.27938	3	0.188883	11	0	41.6074	0.00150357
2	1	0	0	0	0	244.351	0.671805	0.67213	2.84733	3	0.195285	11	0	44.1078	0.00191378
2	1	0	0	0	0	246.851	0.684307	0.684621	3.45373	3	0.203158	11	0	46.6082	0.0023645
2	1	0	0	0	0	249.352	0.696809	0.697105	4.09585	3	0.212596	11	0	49.1086	0.00285523
2	1	0	1	0	0	251.65	0.691658	0.691955	3.78896	3	0.221934	11	0	51.4071	0.00262179
2	1	0	1	0	0	254.151	0.679156	0.679391	3.12306	3	0.230563	11	0	53.9076	0.00212178
2	1	0	1	0	0	256.651	0.666654	0.66692	2.52672	3	0.237609	11	0	56.408	0.00168512
2	1	0	1	0	0	259.151	0.654152	0.654419	1.97211	3	0.24322	11	0	58.9084	0.00129058
2	1	0	1	0	0	261.652	0.641649	0.641968	1.47977	3	0.247518	11	0	61.4088	0.000949967
2	1	0	0	0	0	264.152	0.629147	0.629451	1.05924	3	0.250675	11	0	63.9094	0.000666737
2	1	0	0	0	0	266.653	0.616645	0.61694	0.7107	3	0.252868	11	0	66.4098	0.00043846
2	1	0	0	0	0	269.153	0.604143	0.604429	0.448569	3	0.2543	11	0	68.9102	0.000271128
2	1	0	0	0	0	271.654	0.59164	0.591928	0.259036	3	0.255169	11	0	71.4106	0.00015333
2	1	0	1	0	0	274.154	0.579138	0.579485	0.132394	3	0.255647	11	0	73.9111	7.67206e-05
2	1	0	1	0	0	276.655	0.566636	0.566958	0.0538824	3	0.25587	11	0	76.4116	3.0549e-05
2	1	0	1	0	0	279.155	0.554134	0.554425	0.00369656	3	0.255936	11	0	78.912	2.04946e-06
2	0	0	1	0	0	281.655	0.541632	0.541952	-0.0225696	3	0.255909	11	0	2.0004	-1.22316e-05
2	0	0	1	0	0	284.156	0.529129	0.529436	-0.041283	3	0.255827	11	0	4.5008	-2.18567e-05
2	0	0	0	0	0	286.656	0.516627	0.516916	-0.0506587	3	0.255712	11	0	7.0014	-2.61863e-05
2	0	0	0	0	0	289.157	0.504125	0.504449	-0.0567156	3	0.255576	11	0	9.5018	-2.86101e-05
2	0	0	0	0	0	291.657	0.491623	0.491943	-0.0630395	3	0.255426	11	0	12.0022	-3.10119e-05
2	0	0	0	0	0	294.158	0.47912	0.479386	-0.0647746	3	0.255266	11	0	14.5026	-3.1052e-05
2	0	0	1	0	0	296.658	0.466618	0.466912	-0.0704138	3	0.255097	11	0	17.0031	-3.2877e-05
2	0	0	1	0	0	299.159	0.454116	0.454395	-0.0724025	3	0.254919	11	0	19.5036	-3.28993e-05
2	1	0	0	0	1	301.532	0.457767	0.458042	0.0613873	4	0.254927	11	0	1.3002	2.8118e-05
2	1	0	0	0	1	304.033	0.470269	0.470551	0.061417	4	0.255082	11	0	3.8006	2.88998e-05
2	1	0	0	0	1	306.533	0.482771	0.483113	0.0639846	4	0.255239	11	0	6.301	3.09118e-05
2	1	0	1	0	1	309.034	0.495273	0.495564	0.062735	4	0.255397	11	0	8.8016	3.10892e-05
2	1	0	1	0	1	311.534	0.507776	0.508086	0.065559	4	0.255558	11	0	11.302	3.33096e-05
2	1	0	1	0	1	314.034	0.520278	0.520632	0.0698355	4	0.255726	11	0	13.8024	3.63586e-05
2	1	0	1	0	1	316.535	0.53278	0.533078	0.0773745	4	0.255909	11	0	16.3028	4.12466e-05
2	1	0	1	0	1	319.035	0.545282	0.545658	0.0947969	4	0.256122	11	0	18.8033	5.17267e-05
2	1	0	0	0	1	321.536	0.557784	0.558086	0.121337	4	0.256389	11	0	21.3038	6.77166e-05
2	1	0	0	0	1	324.036	0.570287	0.570634	0.173539	4	0.256752	11	0	23.8042	9.90275e-05
2	1	0	0	0	1	326.537	0.582789	0.583111	0.256975	4	0.257281	11	0	26.3046	0.000149845
2	1	0	0	0	1	329.037	0.595291	0.595586	0.393736	4	0.258084	11	0	28.805	0.000234504
2	1	0	1	0	1	331.538	0.607793	0.608095	0.599496	4	0.259311	11	0	31.3056	0.00036455
2	1	0	1	0	1	334.038	0.620296	0.620564	0.882547	4	0.261148	11	0	33.806	0.000547677
2	1	0	1	0	1	336.538	0.632798	0.633086	1.25146	4	0.263802	11	0	36.3064	0.000792284
2	1	0	1	0	1	339.039	0.6453	0.645582	1.69157	4	0.267469	11	0	38.8068	0.00109205
2	1	0	1	0	1	341.539	0.657802	0.658043	2.20322	4	0.27233	11	0	41.3072	0.00144981
2	1	0	0	0	1	344.04	0.670304	0.670596	2.7605	4	0.278529	11	0	43.8078	0.00185118
2	1	0	0	0	1	346.54	0.682807	0.683111	3.36052	4	0.286178	11	0	46.3082	0.00229561
2	1	0	0	0	1	349.041	0.695309	0.695638	3.99834	4	0.295372	11	0	48.8086	0.0027814
2	1	0	0	0	1	351.339	0.693158	0.693418	3.85721	4	0.304746	11	0	51.107	0.00267466
2	1	0	0	0	1	353.839	0.680656	0.680909	3.2046	4	0.313558	11	0	53.6074	0.00218204
2	1	0	1	0	1	356.34	0.668154	0.66842	2.58517	4	0.320783	11	0	56.108	0.00172798
2	1	0	1	0	1	358.84	0.655652	0.655972	2.02621	4	0.326535	11	0	58.6084	0.00132914
2	1	0	1	0	1	361.341	0.64315	0.643435	1.52709	4	0.330959	11	0	61.1088	0.000982581
2	1	0	1	0	1	363.841	0.630647	0.630945	1.09494	4	0.334221	11	0	63.6092	0.000690845
2	1	0	0	0	1	366.342	0.618145	0.618442	0.743353	4	0.3365	11	0	66.1098	0.000459721
2	1	0	0	0	1	368.842	0.605643	0.605953	0.467772	4	0.337996	11	0	68.6102	0.000283447
2	1	0	0	0	1	371.343	0.593141	0.593415	0.27366	4	0.338907	11	0	71.1106	0.000162394
2	1	0	0	0	1	373.843	0.580638	0.58091	0.141059	4	0.339413	11	0	73.611	8.19424e-05
2	1	0	1	0	1	376.343	0.568136	0.568448	0.0583248	4	0.339654	11	0	76.1115	3.31546e-05
2	1	0	1	0	1	378.844	0.555634	0.55597	0.00836216	4	0.339731	11	0	78.612	4.64911e-06
2	0	0	0	0	1	381.344	0.543132	0.543459	-0.0227138	4	0.33971	11	0	1.9004	-1.2344e-05
2	0	0	0	0	1	383.845	0.53063	0.530902	-0.0382906	4	0.339631	11	0	4.4008	-2.03286e-05
2	0	0	0	0	1	386.345	0.518127	0.518455	-0.0511945	4	0.339518	11	0	6.9012	-2.6542e-05
2	0	0	1	0	1	388.846	0.505625	0.505934	-0.0563678	4	0.339384	11	0	9.4018	-2.85184e-05
2	0	0	1	0	1	391.346	0.493123	0.493482	-0.0618177	4	0.339235	11	0	11.9022	-3.05059e-05
2	0	0	1	0	1	393.847	0.480621	0.480898	-0.0662153	4	0.339076	11	0	14.4026	-3.18428e-05
2	0	0	1	0	1	396.347	0.468119	0.468478	-0.0675432	4	0.338908	11	0	16.903	-3.16425e-05
2	0	0	1	0	1	398.847	0.455616	0.455931	-0.0732747	4	0.338732	11	0	19.4035	-3.34082e-05
2	1	0	1	0	0	401.221	0.456266	0.456559	0.0594587	5	0.338699	11	0	1.0002	2.71464e-05
2	1	0	1	0	0	403.722	0.468769	0.469113	0.0632756	5	0.338854	11	0	3.5006	2.96834e-05
2	1	0	1	0	0	406.222	0.481271	0.481571	0.0617361	5	0.33901	11	0	6.001	2.97303e-05
2	1	0	1	0	0	408.722	0.493773	0.494093	0.0645349	5	0.339168	11	0	8.5014	3.18863e-05
2	1	0	1	0	0	411.223	0.506275	0.506584	0.0638051	5	0.339328	11	0	11.0019	3.23226e-05
2	1	0	0	0	0	413.723	0.518777	0.519069	0.0692237	5	0.339494	11	0	13.5024	3.59319e-05
2	1	0	0	0	0	416.224	0.53128	0.531565	0.075951	5	0.339674	11	0	16.0028	4.03729e-05
2	1	0	0	0	0	418.724	0.543782	0.544093	0.0898682	5	0.339881	11	0	18.5032	4.88966e-05
2	1	0	0	0	0	421.225	0.556284	0.55662	0.117524	5	0.340136	11	0	21.0036	6.54164e-05
2	1	0	1	0	0	423.725	0.568786	0.569115	0.161757	5	0.340481	11	0	23.5042	9.20586e-05
2	1	0	1	0	0	426.226	0.581289	0.581589	0.242368	5	0.340979	11	0	26.0046	0.000140959
2	1	0	1	0	0	428.726	0.593791	0.594089	0.369075	5	0.341732	11	0	28.505	0.000219263
2	1	0	1	0	0	431.226	0.606293	0.606606	0.562553	5	0.342883	11	0	31.0054	0.000341248
2	1	0	1	0	0	433.727	0.618795	0.619083	0.8365	5	0.344616	11	0	33.5059	0.000517862
2	1	0	0	0	0	436.227	0.631297	0.631655	1.18864	5	0.347135	11	0	36.0064	0.000750811
2	1	0	0	0	0	438.728	0.6438	0.644111	1.62146	5	0.350636	11	0	38.5068	0.0010444
2	1	0	0	0	0	441.228	0.656302	0.656656	2.11754	5	0.3553	11	0	41.0072	0.0013905
2	1	0	1	0	0	443.729	0.668805	0.669147	2.67534	5	0.36128	11	0	43.5077	0.00179019
2	1	0	1	0	0	446.229	0.681306	0.681651	3.275	5	0.368716	11	0	46.0082	0.00223241
2	1	0	1	0	0	448.73	0.693809	0.694112	3.90247	5	0.377685	11	0	48.5086	0.00270875
2	1	0	1	0	0	451.028	0.694659	0.694969	3.92432	5	0.387041	11	0	50.807	0.00272728
2	1	0	1	0	0	453.528	0.682157	0.682474	3.25015	5	0.395994	11	0	53.3074	0.00221814
2	1	0	1	0	0	456.029	0.669654	0.669964	2.62694	5	0.403329	11	0	55.8078	0.00175996
2	1	0	0	0	0	458.529	0.657152	0.657428	2.06191	5	0.409176	11	0	58.3084	0.00135556
2	1	0	0	0	0	461.03	0.64465	0.644924	1.55457	5	0.413681	11	0	60.8088	0.00100258
2	1	0	0	0	0	463.53	0.632148	0.632456	1.11975	5	0.417007	11	0	63.3092	0.000708193
2	1	0	0	0	0	466.031	0.619645	0.61991	0.765489	5	0.419346	11	0	65.8096	0.000474534
2	1	0	1	0	0	468.531	0.607143	0.607446	0.485654	5	0.420893	11	0	68.3102	0.000295009
2	1	0	1	0	0	471.032	0.594641	0.594936	0.287096	5	0.421843	11	0	70.8106	0.000170804
2	1	0	1	0	0	473.532	0.582139	0.582483	0.149197	5	0.422375	11	0	73.311	8.69049e-05
2	1	0	1	0	0	476.032	0.569637	0.569856	0.0641095	5	0.422633	11	0	75.8114	3.65332e-05
2	1	0	1	0	0	478.533	0.557134	0.557429	0.0116522	5	0.422722	11	0	78.3118	6.49526e-06
2	0	0	0	0	0	481.033	0.544632	0.544968	-0.0204529	5	0.422708	11	0	1.6004	-1.11462e-05
2	0	0	0	0	0	483.534	0.53213	0.53245	-0.0368518	5	0.422634	11	0	4.1008	-1.96218e-05
2	0	0	0	0	0	486.034	0.519628	0.519946	-0.0501681	5	0.422524	11	0	6.6012	-2.60847e-05
2	0	0	0	0	0	488.535	0.507125	0.507475	-0.0560817	5	0.422391	11	0	9.1016	-2.846e-05
2	0	0	1	0	0	491.035	0.494624	0.494951	-0.0604771	5	0.422244	11	0	11.6021	-2.99332e-05
2	0	0	1	0	0	493.536	0.482121	0.482439	-0.0660057	5	0.422086	11	0	14.1026	-3.18437e-05
2	0	0	1	0	0	496.036	0.469619	0.46992	-0.0672862	5	0.421919	11	0	16.603	-3.16191e-05
2	0	0	1	0	0	498.536	0.457117	0.457411	-0.0723941	5	0.421744	11	0	19.1034	-3.31139e-05
2	1	0	0	0	1	500.91	0.454766	0.455115	0.0567234	6	0.421672	11	0	0.7	2.58157e-05
2	1	0	1	0	1	503.411	0.467268	0.467581	0.0633487	6	0.421824	11	0	3.2006	2.96206e-05
2	1	0	1	0	1	505.911	0.479771	0.480061	0.0615677	6	0.42198	11	0	5.701	2.95563e-05
2	1	0	1	0	1	508.411	0.492273	0.492557	0.0630669	6	0.422137	11	0	8.2014	3.1064e-05
2	1	0	1	0	1	510.912	0.504775	0.505078	0.0647317	6	0.422296	11	0	10.7018	3.26945e-05
2	1	0	1	0	1	513.412	0.517278	0.517504	0.0663944	6	0.422461	11	0	13.2023	3.43593e-05
2	1	0	0	0	1	515.913	0.529779	0.530051	0.0756032	6	0.422638	11	0	15.7028	4.00735e-05
2	1	0	0	0	1	518.413	0.542282	0.542571	0.0867422	6	0.422839	11	0	18.2032	4.70638e-05
2	1	0	0	0	1	520.914	0.554784	0.555072	0.111599	6	0.423085	11	0	20.7036	6.19455e-05
2	1	0	0	0	1	523.414	0.567286	0.567574	0.154382	6	0.423413	11	0	23.204	8.76229e-05
2	1	0	1	0	1	525.915	0.579788	0.580083	0.226084	6	0.423882	11	0	25.7046	0.000131148
2	1	0	1	0	1	528.415	0.592291	0.592614	0.347948	6	0.424589	11	0	28.205	0.000206199
2	1	0	1	0	1	530.915	0.604793	0.605063	0.528894	6	0.425671	11	0	30.7054	0.000320014
2	1	0	1	0	1	533.416	0.617295	0.6176	0.791425	6	0.427306	11	0	33.2058	0.000488785
2	1	0	1	0	1	535.916	0.629797	0.630091	1.13288	6	0.429696	11	0	35.7063	0.000713816
2	1	0	0	0	1	538.417	0.642299	0.642581	1.5544	6	0.433043	11	0	38.2068	0.000998826
2	1	0	0	0	1	540.917	0.654802	0.655107	2.04315	6	0.437529	11	0	40.7072	0.00133848
2	1	0	0	0	1	543.418	0.667304	0.667584	2.58951	6	0.443313	11	0	43.2076	0.00172871
2	1	0	0	0	1	545.918	0.679806	0.68005	3.18418	6	0.450526	11	0	45.708	0.0021654
2	1	0	1	0	1	548.419	0.692308	0.692626	3.80787	6	0.459265	11	0	48.2086	0.00263743
2	1	0	1	0	1	550.717	0.696159	0.696413	3.98	6	0.468538	11	0	50.507	0.00277172
2	1	0	1	0	1	553.217	0.683657	0.683944	3.30054	6	0.477623	11	0	53.0074	0.00225739
2	1	0	1	0	1	555.718	0.671155	0.671439	2.68223	6	0.485088	11	0	55.5078	0.00180095
2	1	0	1	0	1	558.218	0.658652	0.658909	2.11184	6	0.491069	11	0	58.0082	0.00139151
2	1	0	0	0	1	560.719	0.64615	0.64644	1.60393	6	0.495699	11	0	60.5088	0.00103685
2	1	0	0	0	1	563.219	0.633648	0.633915	1.16124	6	0.499139	11	0	63.0092	0.00073613
2	1	0	0	0	1	565.72	0.621146	0.621424	0.794649	6	0.501565	11	0	65.5096	0.000493814
2	1	0	0	0	1	568.22	0.608643	0.608942	0.511181	6	0.50318	11	0	68.01	0.00031128
2	1	0	1	0	1	570.72	0.596141	0.596414	0.303	6	0.504182	11	0	70.5105	0.000180713
2	1	0	1	0	1	573.221	0.583639	0.583908	0.16309	6	0.504751	11	0	73.011	9.52295e-05
2	1	0	1	0	1	575.721	0.571137	0.571444	0.0704239	6	0.505034	11	0	75.5114	4.02433e-05
2	1	0	1	0	1	578.222	0.558635	0.558969	0.0169167	6	0.505136	11	0	78.0118	9.45592e-06
2	0	0	1	0	1	580.722	0.546132	0.546482	-0.0182639	6	0.505131	11	0	1.3002	-9.9809e-06
2	0	0	0	0	1	583.223	0.53363	0.533929	-0.0354023	6	0.505061	11	0	3.8008	-1.89023e-05
2	0	0	0	0	1	585.723	0.521128	0.521452	-0.0494863	6	0.504953	11	0	6.3012	-2.58047e-05
2	0	0	0	0	1	588.224	0.508626	0.508955	-0.0545187	6	0.504822	11	0	8.8016	-2.77476e-05
2	0	0	0	0	1	590.724	0.496123	0.496423	-0.0616978	6	0.504676	11	0	11.302	-3.06282e-05
2	0	0	1	0	1	593.224	0.483621	0.483922	-0.0632136	6	0.504519	11	0	13.8025	-3.05905e-05
2	0	0	1	0	1	595.725	0.471119	0.471369	-0.0690694	6	0.504353	11	0	16.303	-3.25572e-05
2	0	0	1	0	1	598.225	0.458617	0.458879	-0.0705048	6	0.504179	11	0	18.8034	-3.23531e-05
2	1	0	0	0	0	600.599	0.453266	0.453581	0.0533045	7	0.504068	11	0	0.4	2.41779e-05
2	1	0	0	0	0	603.099	0.465768	0.466086	0.06155	7	0.504219	11	0	2.9004	2.86876e-05
2	1	0	1	0	0	605.6	0.47827	0.478538	0.0624248	7	0.504374	11	0	5.401	2.98727e-05
2	1	0	1	0	0	608.1	0.490773	0.491065	0.0620317	7	0.50453	11	0	7.9014	3.04616e-05
2	1	0	1	0	0	610.601	0.503275	0.503584	0.0641454	7	0.504688	11	0	10.4018	3.23026e-05
2	1	0	1	0	0	613.101	0.515777	0.516077	0.065765	7	0.504851	11	0	12.9022	3.39398e-05
2	1	0	1	0	0	615.602	0.528279	0.528628	0.0740359	7	0.505025	11	0	15.4026	3.91375e-05
2	1	0	0	0	0	618.102	0.540781	0.541086	0.0837809	7	0.505221	11	0	17.9032	4.53326e-05
2	1	0	0	0	0	620.603	0.553284	0.553569	0.108051	7	0.505458	11	0	20.4036	5.98137e-05
2	1	0	0	0	0	623.103	0.565786	0.566047	0.145177	7	0.505771	11	0	22.904	8.21773e-05
2	1	0	0	0	0	625.603	0.578288	0.57855	0.21465	7	0.506214	11	0	25.4044	0.000124186
2	1	0	1	0	0	628.104	0.59079	0.591092	0.325238	7	0.506878	11	0	27.905	0.000192246
2	1	0	1	0	0	630.604	0.603293	0.603587	0.498768	7	0.507895	11	0	30.4054	0.00030105
2	1	0	1	0	0	633.105	0.615795	0.616089	0.747681	7	0.509437	11	0	32.9058	0.000460638
2	1	0	1	0	0	635.605	0.628297	0.628553	1.07778	7	0.511705	11	0	35.4062	0.000677445
2	1	0	1	0	0	638.106	0.640799	0.641075	1.48881	7	0.514899	11	0	37.9066	0.000954438
2	1	0	0	0	0	640.606	0.653301	0.65355	1.96692	7	0.519209	11	0	40.4072	0.00128548
2	1	0	0	0	0	643.107	0.665804	0.666133	2.50664	7	0.524795	11	0	42.9076	0.00166976
2	1	0	0	0	0	645.607	0.678306	0.678619	3.08727	7	0.531783	11	0	45.408	0.00209508
2	1	0	0	0	0	648.107	0.690808	0.69107	3.71178	7	0.54028	11	0	47.9084	0.0025651
2	1	0	0	0	0	650.406	0.697659	0.69798	4.04212	7	0.549427	11	0	50.2068	0.00282132
2	1	0	1	0	0	652.906	0.685157	0.685503	3.36457	7	0.558674	11	0	52.7074	0.00230642
2	1	0	1	0	0	655.407	0.672655	0.672967	2.73533	7	0.566285	11	0	55.2078	0.00184078
2	1	0	1	0	0	657.907	0.660153	0.660432	2.16717	7	0.572402	11	0	57.7082	0.00143127
2	1	0	1	0	0	660.408	0.64765	0.647941	1.65097	7	0.577159	11	0	60.2086	0.00106973
2	1	0	0	0	0	662.908	0.635148	0.635491	1.19737	7	0.580703	11	0	62.7092	0.000760921
2	1	0	0	0	0	665.409	0.622646	0.622978	0.826133	7	0.583214	11	0	65.2096	0.000514662
2	1	0	0	0	0	667.909	0.610144	0.610449	0.532213	7	0.584893	11	0	67.71	0.000324889
2	1	0	0	0	0	670.409	0.597642	0.597939	0.318424	7	0.58594	11	0	70.2104	0.000190398
2	1	0	0	0	0	672.91	0.585139	0.585498	0.17131	7	0.586538	11	0	72.7108	0.000100302
2	1	0	1	0	0	675.41	0.572637	0.572949	0.0762964	7	0.586838	11	0	75.2114	4.3714e-05
2	1	0	1	0	0	677.911	0.560135	0.560448	0.0204576	7	0.586952	11	0	77.7118	1.14654e-05
2	0	0	1	0	0	680.411	0.547633	0.547895	-0.0156286	7	0.586954	11	0	1.1002	-8.56283e-06
2	0	0	1	0	0	682.912	0.53513	0.535387	-0.0337555	7	0.586889	11	0	3.6006	-1.80722e-05
2	0	0	0	0	0	685.412	0.522628	0.522893	-0.0481993	7	0.586785	11	0	6.1012	-2.52031e-05
2	0	0	0	0	0	687.913	0.510126	0.510452	-0.0541633	7	0.586656	11	0	8.6016	-2.76477e-05
2	0	0	0	0	0	690.413	0.497624	0.497919	-0.060386	7	0.586512	11	0	11.102	-3.00673e-05
2	0	0	0	0	0	692.913	0.485122	0.485447	-0.0637017	7	0.586357	11	0	13.6024	-3.09238e-05
2	0	0	0	0	0	695.414	0.472619	0.472889	-0.067582	7	0.586193	11	0	16.1028	-3.19588e-05
2	0	0	1	0	0	697.914	0.460117	0.46043	-0.0710451	7	0.58602	11	0	18.6034	-3.27113e-05
2	1	0	0	0	1	700.288	0.451766	0.45209	0.0385687	8	0.585874	11	0	0.1	1.74365e-05
2	1	0	0	0	1	702.788	0.464268	0.464573	0.0603635	8	0.58602	11	0	2.6004	2.80432e-05
2	1	0	0	0	1	705.289	0.47677	0.477049	0.0634081	8	0.586175	11	0	5.1008	3.02488e-05
2	1	0	1	0	1	707.789	0.489272	0.48956	0.0613066	8	0.586331	11	0	7.6013	3.00133e-05
2	1	0	1	0	1	710.29	0.501774	0.502053	0.0645714	8	0.586488	11	0	10.1018	3.24182e-05
2	1	0	1	0	1	712.79	0.514277	0.514608	0.0651876	8	0.58665	11	0	12.6022	3.3546e-05
2	1	0	1	0	1	715.291	0.526779	0.527162	0.0726219	8	0.586822	11	0	15.1026	3.82835e-05
2	1	0	1	0	1	717.791	0.539281	0.539625	0.0820802	8	0.587013	11	0	17.603	4.42925e-05
2	1	0	0	0	1	720.292	0.551783	0.552081	0.103242	8	0.587243	11	0	20.1036	5.69979e-05
2	1	0	0	0	1	722.792	0.564286	0.564585	0.139024	8	0.587541	11	0	22.604	7.8491e-05
2	1	0	0	0	1	725.292	0.576788	0.577123	0.201867	8	0.587961	11	0	25.1044	0.000116502
2	1	0	0	0	1	727.793	0.58929	0.589595	0.306172	8	0.588586	11	0	27.6048	0.000180517
2	1	0	1	0	1	730.293	0.601792	0.602046	0.468771	8	0.589542	11	0	30.1053	0.000282222
2	1	0	1	0	1	732.794	0.614294	0.614613	0.707031	8	0.590996	11	0	32.6058	0.00043455
2	1	0	1	0	1	735.294	0.626797	0.627084	1.02457	8	0.593147	11	0	35.1062	0.000642492
2	1	0	1	0	1	737.795	0.639299	0.639639	1.42556	8	0.596196	11	0	37.6066	0.000911845
2	1	0	1	0	1	740.295	0.651801	0.652089	1.89448	8	0.600335	11	0	40.107	0.00123537
2	1	0	0	0	1	742.796	0.664303	0.664622	2.42655	8	0.60573	11	0	42.6076	0.00161274
2	1	0	0	0	1	745.296	0.676806	0.677087	3.00099	8	0.61251	11	0	45.108	0.00203193
2	1	0	0	0	1	747.796	0.689308	0.689536	3.61632	8	0.62078	11	0	47.6084	0.00249358
2	1	0	0	0	1	750.095	0.69916	0.699432	4.10933	8	0.629758	11	0	49.9068	0.0028742
2	1	0	0	0	1	752.595	0.686657	0.686937	3.41873	8	0.639154	11	0	52.4072	0.00234845
2	1	0	1	0	1	755.096	0.674155	0.67452	2.78322	8	0.646894	11	0	54.9078	0.00187734
2	1	0	1	0	1	757.596	0.661653	0.661964	2.20259	8	0.653112	11	0	57.4082	0.00145804
2	1	0	1	0	1	760.097	0.649151	0.649416	1.68393	8	0.657954	11	0	59.9086	0.00109357
2	1	0	1	0	1	762.597	0.636648	0.636938	1.2296	8	0.661579	11	0	62.409	0.000783179
2	1	0	1	0	1	765.097	0.624146	0.624409	0.856449	8	0.664171	11	0	64.9095	0.000534774
2	1	0	0	0	1	767.598	0.611644	0.611914	0.554808	8	0.665916	11	0	67.41	0.000339495
2	1	0	0	0	1	770.098	0.599142	0.599449	0.337786	8	0.667015	11	0	69.9104	0.000202486
2	1	0	0	0	1	772.599	0.58664	0.586968	0.183335	8	0.667652	11	0	72.4108	0.000107612
2	1	0	0	0	1	775.099	0.574137	0.574487	0.0853879	8	0.667978	11	0	74.9112	4.90542e-05
2	1	0	1	0	1	777.6	0.561635	0.56194	0.0241663	8	0.668108	11	0	77.4118	1.358e-05
2	0	0	1	0	1	780.1	0.549133	0.549436	-0.0121006	8	0.668119	11	0	0.8002	-6.64848e-06
2	0	0	1	0	1	782.601	0.536631	0.536931	-0.033099	8	0.668059	11	0	3.3006	-1.77719e-05
2	0	0	1	0	1	785.101	0.524128	0.524409	-0.0470581	8	0.667958	11	0	5.801	-2.46776e-05
2	0	0	1	0	1	787.601	0.511626	0.511899	-0.0534051	8	0.667832	11	0	8.3015	-2.7338e-05
2	0	0	0	0	1	790.102	0.499124	0.499495	-0.0609256	8	0.667689	11	0	10.802	-3.0432e-05
2	0	0	0	0	1	792.602	0.486622	0.486935	-0.0623614	8	0.667535	11	0	13.3024	-3.0366e-05
2	0	0	0	0	1	795.103	0.47412	0.474476	-0.0682612	8	0.667371	11	0	15.8028	-3.23883e-05
2	0	0	0	0	1	797.603	0.461617	0.461953	-0.0692958	8	0.6672	11	0	18.3032	-3.20114e-05
2	0	0	0	0	0	799.977	0.450265	0.450614	-0.0407484	9	0.66703	11	0	20.677	-1.83618e-05
2	1	0	0	0	0	802.477	0.462768	0.463097	0.060757	9	0.66716	11	0	2.3004	2.81364e-05
2	1	0	0	0	0	804.978	0.47527	0.475607	0.0631849	9	0.667315	11	0	4.8008	3.00511e-05
2	1	0	0	0	0	807.478	0.487772	0.488136	0.0612103	9	0.66747	11	0	7.3012	2.9879e-05
2	1	0	1	0	0	809.979	0.500274	0.500559	0.0644628	9	0.667627	11	0	9.8017	3.22674e-05
2	1	0	1	0	0	812.479	0.512776	0.513062	0.0648098	9	0.667788	11	0	12.3022	3.32514e-05
2	1	0	1	0	0	814.98	0.525279	0.525552	0.0714245	9	0.667957	11	0	14.8026	3.75373e-05
2	1	0	1	0	0	817.48	0.537781	0.538113	0.0805674	9	0.668146	11	0	17.303	4.33543e-05
2	1	0	1	0	0	819.98	0.550283	0.550567	0.0989284	9	0.668369	11	0	19.8034	5.44667e-05
2	1	0	0	0	0	822.481	0.562785	0.563145	0.133321	9	0.668655	11	0	22.304	7.50789e-05
2	1	0	0	0	0	824.981	0.575287	0.575591	0.189645	9	0.669053	11	0	24.8044	0.000109158
2	1	0	0	0	0	827.482	0.58779	0.588098	0.28955	9	0.669643	11	0	27.3048	0.000170284
2	1	0	0	0	0	829.982	0.600292	0.600602	0.441698	9	0.670544	11	0	29.8052	0.000265284
2	1	0	0	0	0	832.483	0.612794	0.613159	0.669532	9	0.671919	11	0	32.3056	0.000410529
2	1	0	1	0	0	834.983	0.625296	0.62558	0.978154	9	0.673963	11	0	34.8062	0.000611914
2	1	0	1	0	0	837.484	0.637799	0.638025	1.36578	9	0.67688	11	0	37.3066	0.0008714
2	1	0	1	0	0	839.984	0.650301	0.650564	1.83068	9	0.680865	11	0	39.807	0.00119097
2	1	0	1	0	0	842.484	0.662803	0.663131	2.35494	9	0.686088	11	0	42.3074	0.00156163
2	1	0	0	0	0	844.985	0.675305	0.675612	2.92971	9	0.69269	11	0	44.808	0.00197935
2	1	0	0	0	0	847.485	0.687808	0.688061	3.54808	9	0.700782	11	0	47.3084	0.0024413
2	1	0	0	0	0	849.919	0.699985	0.700389	4.18622	9	0.710179	11	0	49.7418	0.00293199
2	1	0	0	0	0	852.284	0.688158	0.68853	3.52463	9	0.719267	11	0	52.1072	0.00242681
2	1	0	0	0	0	854.785	0.675655	0.675965	2.88547	9	0.727267	11	0	54.6076	0.00195048
2	1	0	1	0	0	857.285	0.663153	0.663338	2.29487	9	0.733731	11	0	57.1082	0.00152227
2	1	0	1	0	0	859.786	0.650651	0.650952	1.76124	9	0.738784	11	0	59.6086	0.00114648
2	1	0	1	0	0	862.286	0.638149	0.638441	1.29891	9	0.742596	11	0	62.109	0.000829275
2	1	0	1	0	0	864.786	0.625646	0.625924	0.905972	9	0.745333	11	0	64.6094	0.00056707
2	1	0	1	0	0	867.287	0.613144	0.613363	0.592312	9	0.747189	11	0	67.1099	0.000363302
2	1	0	0	0	0	869.787	0.600642	0.600884	0.362167	9	0.748364	11	0	69.6104	0.00021762
2	1	0	0	0	0	872.288	0.58814	0.588426	0.198304	9	0.749051	11	0	72.1108	0.000116688
2	1	0	0	0	0	874.788	0.575638	0.575968	0.0954816	9	0.749407	11	0	74.6112	5.49943e-05
2	1	0	0	0	0	877.289	0.563135	0.563511	0.0286102	9	0.749555	11	0	77.1116	1.61222e-05
2	0	0	1	0	0	879.789	0.550633	0.550898	-0.00837276	9	0.749577	11	0	0.6002	-4.61254e-06
2	0	0	1	0	0	882.29	0.538131	0.538472	-0.0316654	9	0.749524	11	0	3.1006	-1.70509e-05
2	0	0	1	0	0	884.79	0.525629	0.525958	-0.0454798	9	0.749426	11	0	5.601	-2.39204e-05
2	0	0	1	0	0	887.29	0.513127	0.513492	-0.0529678	9	0.749302	11	0	8.1014	-2.71985e-05
2	0	0	1	0	0	889.791	0.500624	0.500957	-0.0598451	9	0.749162	11	0	10.6019	-2.99798e-05
2	0	0	0	0	0	892.291	0.488122	0.48841	-0.0618164	9	0.749009	11	0	13.1024	-3.01918e-05
2	0	0	0	0	0	894.792	0.47562	0.475911	-0.0679078	9	0.748847	11	0	15.6028	-3.23181e-05
2	0	0	0	0	0	897.292	0.463118	0.463459	-0.0688189	9	0.748677	11	0	18.1032	-3.18948e-05
2	0	0	0	0	0	899.793	0.450615	0.45084	-0.0738799	9	0.748498	11	0	20.6036	-3.3308e-05
2	1	0	1	0	1	902.166	0.461267	0.461654	0.0599662	10	0.748598	11	0	2.0003	2.76836e-05
2	1	0	0	0	1	904.667	0.47377	0.474047	0.0629717	10	0.748751	11	0	4.5008	2.98516e-05
2	1	0	0	0	1	907.167	0.486272	0.48653	0.0609188	10	0.748906	11	0	7.0012	2.96388e-05
2	1	0	0	0	1	909.668	0.498774	0.499085	0.0637317	10	0.749063	11	0	9.5016	3.18076e-05
2	1	0	0	0	1	912.168	0.511276	0.51157	0.0641726	10	0.749222	11	0	12.002	3.28288e-05
2	1	0	1	0	1	914.669	0.523778	0.524108	0.0698145	10	0.74939	11	0	14.5026	3.65903e-05
2	1	0	1	0	1	917.169	0.536281	0.536565	0.0786981	10	0.749574	11	0	17.003	4.22266e-05
2	1	0	1	0	1	919.669	0.548783	0.549027	0.0950192	10	0.74979	11	0	19.5034	5.21681e-05
2	1	0	1	0	1	922.17	0.561285	0.561496	0.127465	10	0.750065	11	0	22.0038	7.1571e-05
2	1	0	1	0	1	924.67	0.573787	0.574098	0.179484	10	0.750443	11	0	24.5043	0.000103041
2	1	0	0	0	1	927.171	0.586289	0.586575	0.272613	10	0.751	11	0	27.0048	0.000159908
2	1	0	0	0	1	929.671	0.598792	0.599116	0.416334	10	0.751849	11	0	29.5052	0.000249432
2	1	0	0	0	1	932.172	0.611294	0.611618	0.632399	10	0.753146	11	0	32.0056	0.000386787
2	1	0	0	0	1	934.672	0.623796	0.62406	0.929556	10	0.755082	11	0	34.506	0.000580099
2	1	0	1	0	1	937.173	0.636298	0.636585	1.30593	10	0.757863	11	0	37.0066	0.000831333
2	1	0	1	0	1	939.673	0.648801	0.64908	1.76036	10	0.761684	11	0	39.507	0.00114261
2	1	0	1	0	1	942.173	0.661303	0.661631	2.27311	10	0.766717	11	0	42.0074	0.00150396
2	1	0	1	0	1	944.674	0.673805	0.674063	2.84156	10	0.773105	11	0	44.5078	0.00191539
2	1	0	0	0	1	947.174	0.686307	0.686575	3.45346	10	0.780967	11	0	47.0084	0.00237106
2	1	0	0	0	1	949.675	0.698809	0.699036	4.09757	10	0.790406	11	0	49.5088	0.00286435
2	1	0	0	0	1	951.973	0.689658	0.689932	3.57437	10	0.799337	11	0	51.8072	0.00246607
2	1	0	0	0	1	954.474	0.677156	0.677468	2.92374	10	0.807445	11	0	54.3076	0.00198074
2	1	0	0	0	1	956.974	0.664653	0.665026	2.34071	10	0.814015	11	0	56.808	0.00155663
2	1	0	1	0	1	959.475	0.652151	0.652351	1.80517	10	0.819183	11	0	59.3086	0.0011776
2	1	0	1	0	1	961.975	0.639649	0.639968	1.33586	10	0.823095	11	0	61.809	0.000854904
2	1	0	1	0	1	964.475	0.627147	0.627398	0.939095	10	0.825921	11	0	64.3094	0.000589186
2	1	0	1	0	1	966.976	0.614645	0.614957	0.617	10	0.827847	11	0	66.8098	0.000379429
2	1	0	1	0	1	969.476	0.602142	0.602421	0.379158	10	0.829077	11	0	69.3102	0.000228413
2	1	0	0	0	1	971.977	0.58964	0.589915	0.211635	10	0.8298	11	0	71.8108	0.000124847
2	1	0	0	0	1	974.477	0.577138	0.577465	0.101608	10	0.830181	11	0	74.3112	5.86748e-05
2	1	0	0	0	1	976.978	0.564636	0.56493	0.0358289	10	0.830345	11	0	76.8116	2.02408e-05
2	0	0	0	0	1	979.478	0.552133	0.552431	-0.00676493	10	0.830377	11	0	0.4	-3.73716e-06
2	0	0	1	0	1	981.978	0.539631	0.539836	-0.0287242	10	0.830329	11	0	2.9005	-1.55063e-05
2	0	0	1	0	1	984.479	0.527129	0.527372	-0.0440193	10	0.830236	11	0	5.401	-2.32145e-05
2	0	0	1	0	1	986.979	0.514627	0.514952	-0.0527692	10	0.830115	11	0	7.9014	-2.71736e-05
2	0	0	1	0	1	989.48	0.502125	0.502416	-0.0573512	10	0.829976	11	0	10.4018	-2.88141e-05
2	0	0	1	0	1	991.98	0.489622	0.489982	-0.0635007	10	0.829824	11	0	12.9022	-3.11142e-05
2	0	0	0	0	1	994.481	0.47712	0.477435	-0.0649025	10	0.829663	11	0	15.4028	-3.09867e-05
2	0	0	0	0	1	996.981	0.464618	0.464972	-0.0696237	10	0.829494	11	0	17.9032	-3.23731e-05
2	0	0	0	0	1	999.482	0.452116	0.452405	-0.0729426	10	0.829316	11	0	20.4036	-3.29996e-05
2	1	0	1	0	0	1001.86	0.459767	0.460051	0.0613203	11	0.829376	11	0	1.7002	2.82105e-05
2	1	0	1	0	0	1004.36	0.472269	0.47262	0.0607715	11	0.829529	11	0	4.2007	2.87218e-05
2	1	0	0	0	0	1006.86	0.484771	0.485052	0.0623864	11	0.829684	11	0	6.7012	3.02606e-05
2	1	0	0	0	0	1009.36	0.497274	0.497527	0.0625276	11	0.82984	11	0	9.2016	3.11092e-05
2	1	0	0	0	0	1011.86	0.509776	0.510092	0.0637275	11	0.829998	11	0	11.702	3.25069e-05
2	1	0	0	0	0	1014.36	0.522278	0.522515	0.0694542	11	0.830164	11	0	14.2024	3.62908e-05
2	1	0	1	0	0	1016.86	0.53478	0.535105	0.075876	11	0.830345	11	0	16.703	4.06016e-05
2	1	0	1	0	0	1019.36	0.547283	0.547545	0.0936658	11	0.830555	11	0	19.2034	5.12862e-05
2	1	0	1	0	0	1021.86	0.559785	0.560109	0.120396	11	0.83082	11	0	21.7038	6.74351e-05
2	1	0	1	0	0	1024.36	0.572287	0.572575	0.171689	11	0.83118	11	0	24.2042	9.83047e-05
2	1	0	1	0	0	1026.86	0.584789	0.585121	0.256716	11	0.831706	11	0	26.7047	0.00015021
2	1	0	0	0	0	1029.36	0.597291	0.597655	0.392147	11	0.832507	11	0	29.2052	0.000234369
2	1	0	0	0	0	1031.86	0.609794	0.610144	0.599192	11	0.833731	11	0	31.7056	0.000365593
2	1	0	0	0	0	1034.36	0.622296	0.622612	0.882451	11	0.835567	11	0	34.206	0.000549424
2	1	0	0	0	0	1036.86	0.634798	0.635106	1.25192	11	0.838221	11	0	36.7064	0.000795102
2	1	0	1	0	0	1039.36	0.6473	0.647638	1.69227	11	0.841889	11	0	39.207	0.00109598
2	1	0	1	0	0	1041.86	0.659802	0.660102	2.20243	11	0.846749	11	0	41.7074	0.00145383
2	1	0	1	0	0	1044.36	0.672305	0.672596	2.76566	11	0.852951	11	0	44.2078	0.00186017
2	1	0	1	0	0	1046.86	0.684807	0.685089	3.36877	11	0.860618	11	0	46.7082	0.00230791
2	1	0	1	0	0	1049.36	0.697309	0.69755	4.00478	11	0.869833	11	0	49.2087	0.00279354
2	1	0	0	0	0	1051.66	0.691158	0.691424	3.6416	11	0.878864	11	0	51.5072	0.00251789
2	1	0	0	0	0	1054.16	0.678656	0.678992	2.9908	11	0.887141	11	0	54.0076	0.00203073
2	1	0	0	0	0	1056.66	0.666154	0.666487	2.39241	11	0.893857	11	0	56.508	0.00159451
2	1	0	0	0	0	1059.16	0.653651	0.653886	1.84975	11	0.899146	11	0	59.0084	0.00120952
2	1	0	1	0	0	1061.66	0.641149	0.641422	1.37515	11	0.903159	11	0	61.5089	0.000882051
2	1	0	1	0	0	1064.16	0.628647	0.62897	0.970867	11	0.906076	11	0	64.0094	0.000610647
2	1	0	1	0	0	1066.66	0.616145	0.616446	0.646405	11	0.908078	11	0	66.5098	0.000398474
2	1	0	1	0	0	1069.17	0.603643	0.603887	0.398774	11	0.909368	11	0	69.0102	0.000240814
2	1	0	1	0	0	1071.67	0.59114	0.591513	0.226249	11	0.910135	11	0	71.5106	0.000133829
2	1	0	0	0	0	1074.17	0.578638	0.578929	0.111551	11	0.910545	11	0	74.0112	6.45802e-05
2	1	0	0	0	0	1076.67	0.566136	0.566437	0.0398982	11	0.910728	11	0	76.5116	2.25998e-05
2	1	0	0	0	0	1079.17	0.553634	0.553912	-0.00141522	11	0.91077	11	0	0.1	-7.83906e-07
2	0	0	0	0	0	1081.67	0.541131	0.541405	-0.0284302	11	0.910729	11	0	2.6004	-1.53923e-05
2	0	0	1	0	0	1084.17	0.52863	0.528887	-0.0410842	11	0.91064	11	0	5.1009	-2.17289e-05
2	0	0	1	0	0	1086.67	0.516127	0.51638	-0.0524793	11	0.910522	11	0	7.6014	-2.70993e-05
2	0	0	1	0	0	1089.17	0.503625	0.503971	-0.057101	11	0.910385	11	0	10.1018	-2.87773e-05
2	0	0	1	0	0	1091.67	0.491123	0.491428	-0.0619183	11	0.910235	11	0	12.6022	-3.04283e-05
2	0	0	1	0	0	1094.17	0.47862	0.479017	-0.0657297	11	0.910076	11	0	15.1026	-3.14856e-05
2	0	0	0	0	0	1096.67	0.466118	0.466456	-0.0678715	11	0.909908	11	0	17.6032	-3.16591e-05
2	0	0	0	0	0	1099.17	0.453616	0.453898	-0.0731348	11	0.909732	11	0	20.1036	-3.31957e-05
2	1	0	1	0	1	1101.54	0.458267	0.45857	0.0600741	12	0.909752	11	0	1.4002	2.75482e-05
2	1	0	1	0	1	1104.04	0.470769	0.471047	0.0617325	12	0.909905	11	0	3.9006	2.90789e-05
2	1	0	1	0	1	1106.54	0.483271	0.483591	0.0612036	12	0.91006	11	0	6.401	2.95975e-05
2	1	0	0	0	1	1109.05	0.495773	0.496054	0.063316	12	0.910215	11	0	8.9016	3.14081e-05
2	1	0	0	0	1	1111.55	0.508276	0.508495	0.0628152	12	0.910372	11	0	11.402	3.19412e-05
2	1	0	0	0	1	1114.05	0.520778	0.521096	0.0688563	12	0.910537	11	0	13.9024	3.58807e-05
2	1	0	0	0	1	1116.55	0.53328	0.533606	0.0745116	12	0.910715	11	0	16.4028	3.97599e-05
2	1	0	1	0	1	1119.05	0.545782	0.546101	0.0903878	12	0.91092	11	0	18.9034	4.93609e-05
2	1	0	1	0	1	1121.55	0.558285	0.558593	0.115849	12	0.911175	11	0	21.4038	6.47126e-05
2	1	0	1	0	1	1124.05	0.570787	0.571071	0.162767	12	0.911518	11	0	23.9042	9.29517e-05
2	1	0	1	0	1	1126.55	0.583289	0.58362	0.24267	12	0.912017	11	0	26.4046	0.000141627
2	1	0	1	0	1	1129.05	0.595791	0.596075	0.370406	12	0.912772	11	0	28.905	0.00022079
2	1	0	0	0	1	1131.55	0.608293	0.608649	0.567044	12	0.913929	11	0	31.4056	0.000345131
2	1	0	0	0	1	1134.05	0.620796	0.62112	0.838969	12	0.915671	11	0	33.906	0.0005211
2	1	0	0	0	1	1136.55	0.633298	0.633563	1.19786	12	0.918202	11	0	36.4064	0.000758919
2	1	0	0	0	1	1139.05	0.6458	0.646095	1.62888	12	0.921724	11	0	38.9068	0.00105241
2	1	0	1	0	1	1141.55	0.658302	0.658553	2.13198	12	0.926416	11	0	41.4074	0.00140402
2	1	0	1	0	1	1144.05	0.670804	0.6711	2.68648	12	0.932431	11	0	43.9078	0.0018029
2	1	0	1	0	1	1146.55	0.683307	0.683632	3.28424	12	0.939893	11	0	46.4082	0.00224521
2	1	0	1	0	1	1149.05	0.695809	0.696149	3.91675	12	0.94889	11	0	48.9086	0.00272664
2	1	0	1	0	1	1151.35	0.692658	0.692942	3.71819	12	0.957989	11	0	51.207	0.00257649
2	1	0	0	0	1	1153.85	0.680156	0.680496	3.05885	12	0.966449	11	0	53.7076	0.00208153
2	1	0	0	0	1	1156.35	0.667654	0.667875	2.45407	12	0.973323	11	0	56.208	0.00163901
2	1	0	0	0	1	1158.85	0.655152	0.65552	1.91046	12	0.978763	11	0	58.7084	0.00125235
2	1	0	0	0	1	1161.35	0.642649	0.642972	1.4247	12	0.982916	11	0	61.2088	0.000916042
2	1	0	0	0	1	1163.85	0.630147	0.630459	1.01204	12	0.985946	11	0	63.7092	0.000638051
2	1	0	1	0	1	1166.35	0.617645	0.617949	0.678553	12	0.98804	11	0	66.2098	0.000419312
2	1	0	1	0	1	1168.85	0.605143	0.605417	0.421768	12	0.989398	11	0	68.7102	0.000255345
2	1	0	1	0	1	1171.35	0.592641	0.59295	0.24248	12	0.990213	11	0	71.2106	0.000143778
2	1	0	1	0	1	1173.85	0.580138	0.5805	0.120139	12	0.990654	11	0	73.711	6.97406e-05
2	1	0	0	0	1	1176.36	0.567636	0.567866	0.0468192	12	0.990856	11	0	76.2116	2.6587e-05
2	1	0	0	0	1	1178.86	0.555134	0.555444	0.000967581	12	0.990909	11	0	78.712	5.37437e-07
2	0	0	0	0	1	1181.36	0.542632	0.542912	-0.025597	12	0.990876	11	0	2.3004	-1.38969e-05
2	0	0	0	0	1	1183.86	0.530129	0.530466	-0.0401373	12	0.990792	11	0	4.8008	-2.12915e-05
2	0	0	1	0	1	1186.36	0.517627	0.517978	-0.0516434	12	0.990676	11	0	7.3013	-2.67501e-05
2	0	0	1	0	1	1188.86	0.505125	0.505521	-0.0558357	12	0.990541	11	0	9.8018	-2.82262e-05
2	0	0	1	0	1	1191.36	0.492623	0.492842	-0.0622814	12	0.990393	11	0	12.3022	-3.06949e-05
2	0	0	1	0	1	1193.86	0.480121	0.480394	-0.0646759	12	0.990235	11	0	14.8026	-3.10699e-05
2	0	0	1	0	1	1196.36	0.467618	0.467922	-0.0681555	12	0.990068	11	0	17.303	-3.18914e-05
2	0	0	0	0	1	1198.86	0.455116	0.455483	-0.0722027	12	0.989894	11	0	19.8036	-3.28871e-05
2	1	0	1	0	0	1201.23	0.456766	0.457033	0.059983	13	0.989875	11	0	1.1002	2.74142e-05
2	1	0	1	0	0	1203.73	0.469269	0.469564	0.0613234	13	0.990027	11	0	3.6006	2.87953e-05
2	1	0	1	0	0	1206.23	0.481771	0.482032	0.0616067	13	0.990182	11	0	6.101	2.96964e-05
2	1	0	1	0	0	1208.73	0.494273	0.494547	0.0633951	13	0.990337	11	0	8.6014	3.13519e-05
2	1	0	0	0	0	1211.23	0.506775	0.507113	0.0625621	13	0.990494	11	0	11.102	3.1726e-05
2	1	0	0	0	0	1213.74	0.519278	0.519638	0.0684004	13	0.990657	11	0	13.6024	3.55434e-05
2	1	0	0	0	0	1216.24	0.53178	0.53209	0.0734349	13	0.990833	11	0	16.1028	3.9074e-05
2	1	0	0	0	0	1218.74	0.544282	0.544554	0.0874712	13	0.991033	11	0	18.6032	4.76328e-05
2	1	0	1	0	0	1221.24	0.556784	0.557067	0.111783	13	0.991279	11	0	21.1037	6.22707e-05
2	1	0	1	0	0	1223.74	0.569286	0.569618	0.15374	13	0.991607	11	0	23.6042	8.75733e-05
2	1	0	1	0	0	1226.24	0.581789	0.58212	0.229462	13	0.992079	11	0	26.1046	0.000133574
2	1	0	1	0	0	1228.74	0.594291	0.594623	0.34793	13	0.99279	11	0	28.605	0.000206887
2	1	0	1	0	0	1231.24	0.606793	0.60708	0.535207	13	0.99388	11	0	31.1054	0.000324914
2	1	0	0	0	0	1233.74	0.619295	0.619589	0.79596	13	0.995529	11	0	33.606	0.000493168
2	1	0	0	0	0	1236.24	0.631798	0.632057	1.14321	13	0.997938	11	0	36.1064	0.000722572
2	1	0	0	0	0	1238.74	0.6443	0.644614	1.56628	13	1.00131	11	0	38.6068	0.00100965
2	1	0	0	0	0	1241.24	0.656802	0.657116	2.0589	13	1.00583	11	0	41.1072	0.00135294
2	1	0	1	0	0	1243.74	0.669304	0.669646	2.61044	13	1.01166	11	0	43.6078	0.00174807
2	1	0	1	0	0	1246.24	0.681806	0.682051	3.2036	13	1.01893	11	0	46.1082	0.00218502
2	1	0	1	0	0	1248.74	0.694309	0.694561	3.83381	13	1.02772	11	0	48.6086	0.00266281
2	1	0	1	0	0	1251.04	0.694159	0.694445	3.79226	13	1.03684	11	0	50.907	0.00263352
2	1	0	1	0	0	1253.54	0.681656	0.681914	3.12731	13	1.04548	11	0	53.4074	0.00213256
2	1	0	1	0	0	1256.04	0.669154	0.669467	2.51819	13	1.05252	11	0	55.9079	0.00168585
2	1	0	0	0	0	1258.54	0.656652	0.656975	1.96222	13	1.05811	11	0	58.4084	0.00128913
2	1	0	0	0	0	1261.04	0.64415	0.644434	1.47332	13	1.06239	11	0	60.9088	0.000949456
2	1	0	0	0	0	1263.54	0.631647	0.631924	1.04875	13	1.06552	11	0	63.4092	0.000662729
2	1	0	0	0	0	1266.04	0.619145	0.619419	0.706988	13	1.0677	11	0	65.9096	0.000437922
2	1	0	1	0	0	1268.54	0.606643	0.606911	0.443281	13	1.06912	11	0	68.4102	0.000269032
2	1	0	1	0	0	1271.04	0.594141	0.594445	0.257165	13	1.06998	11	0	70.9106	0.000152871
2	1	0	1	0	0	1273.54	0.581639	0.581987	0.130747	13	1.07045	11	0	73.411	7.60932e-05
2	1	0	1	0	0	1276.04	0.569136	0.569411	0.0520995	13	1.07067	11	0	75.9114	2.9666e-05
2	1	0	1	0	0	1278.54	0.556634	0.556927	0.00549405	13	1.07074	11	0	78.4119	3.05979e-06
2	0	0	0	0	0	1281.05	0.544132	0.54445	-0.0240456	13	1.07071	11	0	2.1004	-1.30917e-05
2	0	0	0	0	0	1283.55	0.53163	0.531851	-0.0389439	13	1.07063	11	0	4.6008	-2.07123e-05
2	0	0	0	0	0	1286.05	0.519127	0.519437	-0.050936	13	1.07052	11	0	7.1012	-2.6458e-05
2	0	0	0	0	0	1288.55	0.506625	0.507028	-0.0551824	13	1.07039	11	0	9.6016	-2.7979e-05
2	0	0	1	0	0	1291.05	0.494123	0.494386	-0.0617085	13	1.07024	11	0	12.1022	-3.05078e-05
2	0	0	1	0	0	1293.55	0.481621	0.481971	-0.063692	13	1.07008	11	0	14.6026	-3.06977e-05
2	0	0	1	0	0	1296.05	0.469119	0.469453	-0.0678876	13	1.06992	11	0	17.103	-3.187e-05
2	0	0	1	0	0	1298.55	0.456616	0.456894	-0.0709902	13	1.06975	11	0	19.6034	-3.2435e-05
2	1	0	1	0	1	1300.92	0.455267	0.455546	0.0588444	14	1.06969	11	0	0.8001	2.68063e-05
2	1	0	1	0	1	1303.42	0.467768	0.468098	0.0602056	14	1.06984	11	0	3.3006	2.81821e-05
2	1	0	1	0	1	1305.92	0.480271	0.480632	0.0624691	14	1.06999	11	0	5.801	3.00246e-05
2	1	0	1	0	1	1308.42	0.492773	0.493019	0.0616616	14	1.07015	11	0	8.3014	3.04004e-05
2	1	0	1	0	1	1310.92	0.505275	0.505637	0.0630373	14	1.0703	11	0	10.8018	3.1874e-05
2	1	0	0	0	1	1313.42	0.517777	0.51809	0.0671318	14	1.07046	11	0	13.3024	3.47803e-05
2	1	0	0	0	1	1315.92	0.53028	0.530615	0.0713688	14	1.07064	11	0	15.8028	3.78694e-05
2	1	0	0	0	1	1318.43	0.542782	0.543093	0.0857927	14	1.07083	11	0	18.3032	4.65934e-05
2	1	0	0	0	1	1320.93	0.555284	0.555659	0.106538	14	1.07107	11	0	20.8036	5.91987e-05
2	1	0	0	0	1	1323.43	0.567786	0.568031	0.146745	14	1.07138	11	0	23.304	8.33556e-05
2	1	0	1	0	1	1325.93	0.580288	0.58064	0.216354	14	1.07183	11	0	25.8046	0.000125624
2	1	0	1	0	1	1328.43	0.592791	0.593125	0.327924	14	1.0725	11	0	28.305	0.0001945
2	1	0	1	0	1	1330.93	0.605293	0.605605	0.505509	14	1.07353	11	0	30.8054	0.000306139
2	1	0	1	0	1	1333.43	0.617795	0.618112	0.755775	14	1.07509	11	0	33.3058	0.000467153
2	1	0	0	0	1	1335.93	0.630297	0.630655	1.09121	14	1.07739	11	0	35.8064	0.000688176
2	1	0	0	0	1	1338.43	0.642799	0.643073	1.50413	14	1.08062	11	0	38.3068	0.000967264
2	1	0	0	0	1	1340.93	0.655302	0.655694	1.98703	14	1.08497	11	0	40.8072	0.00130289
2	1	0	0	0	1	1343.43	0.667804	0.668203	2.53237	14	1.09061	11	0	43.3076	0.00169213
2	1	0	1	0	1	1345.93	0.680306	0.680599	3.11639	14	1.09767	11	0	45.8081	0.00212101
2	1	0	1	0	1	1348.43	0.692808	0.693042	3.74722	14	1.10625	11	0	48.3086	0.00259699
2	1	0	1	0	1	1350.73	0.695659	0.696002	3.86882	14	1.11533	11	0	50.607	0.00269271
2	1	0	1	0	1	1353.23	0.683157	0.683485	3.19763	14	1.12416	11	0	53.1074	0.00218553
2	1	0	1	0	1	1355.73	0.670654	0.670978	2.5812	14	1.13137	11	0	55.6078	0.00173193
2	1	0	1	0	1	1358.23	0.658152	0.658453	2.01905	14	1.1371	11	0	58.1083	0.00132945
2	1	0	1	0	1	1360.73	0.64565	0.645953	1.52176	14	1.14151	11	0	60.6088	0.000982985
2	1	0	1	0	1	1363.23	0.633148	0.633432	1.09386	14	1.14477	11	0	63.1092	0.000692887
2	1	0	1	0	1	1365.73	0.620646	0.620957	0.741051	14	1.14704	11	0	65.6096	0.000460161
2	1	0	1	0	1	1368.23	0.608143	0.60846	0.467782	14	1.14854	11	0	68.11	0.000284627
2	1	0	0	0	1	1370.73	0.595641	0.595931	0.27191	14	1.14945	11	0	70.6106	0.00016204
2	1	0	0	0	1	1373.23	0.583139	0.583472	0.142466	14	1.14995	11	0	73.111	8.31252e-05
2	1	0	0	0	1	1375.73	0.570637	0.570952	0.0576769	14	1.15019	11	0	75.6114	3.29307e-05
2	1	0	0	0	1	1378.23	0.558134	0.558442	0.00976301	14	1.15027	11	0	78.1118	5.45208e-06
2	0	0	1	0	1	1380.73	0.545632	0.545953	-0.0218744	14	1.15025	11	0	1.7003	-1.19424e-05
2	0	0	1	0	1	1383.23	0.53313	0.533424	-0.0375695	14	1.15018	11	0	4.2008	-2.00405e-05
2	0	0	1	0	1	1385.74	0.520628	0.520908	-0.0495699	14	1.15007	11	0	6.7012	-2.58214e-05
2	0	0	1	0	1	1388.24	0.508126	0.50841	-0.0554233	14	1.14993	11	0	9.2016	-2.81778e-05
2	0	0	1	0	1	1390.74	0.495623	0.495935	-0.0597228	14	1.14979	11	0	11.702	-2.96186e-05
2	0	0	0	0	1	1393.24	0.483121	0.48342	-0.0644968	14	1.14963	11	0	14.2026	-3.1179e-05
2	0	0	0	0	1	1395.74	0.470619	0.470948	-0.0658671	14	1.14947	11	0	16.703	-3.102e-05
2	0	0	0	0	1	1398.24	0.458117	0.458448	-0.0714811	14	1.1493	11	0	19.2034	-3.27704e-05
2	1	0	1	0	0	1400.61	0.453766	0.454103	0.0543068	15	1.1492	11	0	0.5	2.46609e-05
2	1	0	1	0	0	1403.11	0.466268	0.466605	0.0617626	15	1.14935	11	0	3.0004	2.88187e-05
2	1	0	0	0	0	1405.61	0.47877	0.479098	0.0603907	15	1.1495	11	0	5.501	2.89331e-05
2	1	0	0	0	0	1408.11	0.491273	0.491633	0.0628418	15	1.14966	11	0	8.0014	3.08951e-05
2	1	0	0	0	0	1410.61	0.503775	0.504071	0.0615739	15	1.14981	11	0	10.5018	3.10376e-05
2	1	0	0	0	0	1413.11	0.516277	0.516579	0.0661434	15	1.14997	11	0	13.0022	3.41683e-05
2	1	0	1	0	0	1415.61	0.528779	0.529103	0.0708522	15	1.15014	11	0	15.5027	3.74881e-05
2	1	0	1	0	0	1418.11	0.541281	0.541596	0.0822455	15	1.15034	11	0	18.0032	4.45438e-05
2	1	0	1	0	0	1420.61	0.553784	0.554076	0.103944	15	1.15056	11	0	20.5036	5.75929e-05
2	1	0	1	0	0	1423.11	0.566286	0.566628	0.139057	15	1.15087	11	0	23.004	7.87933e-05
2	1	0	1	0	0	1425.62	0.578788	0.57914	0.205111	15	1.15129	11	0	25.5044	0.000118788
2	1	0	0	0	0	1428.12	0.59129	0.591636	0.309377	15	1.15192	11	0	28.005	0.000183038
2	1	0	0	0	0	1430.62	0.603793	0.604094	0.477331	15	1.15289	11	0	30.5054	0.000288352
2	1	0	0	0	0	1433.12	0.616295	0.616568	0.716752	15	1.15437	11	0	33.0058	0.000441926
2	1	0	0	0	0	1435.62	0.628797	0.629123	1.04089	15	1.15655	11	0	35.5062	0.000654848
2	1	0	1	0	0	1438.12	0.641299	0.64164	1.4442	15	1.15964	11	0	38.0068	0.000926658
2	1	0	1	0	0	1440.62	0.653802	0.654096	1.9171	15	1.16384	11	0	40.5072	0.00125397
2	1	0	1	0	0	1443.12	0.666304	0.666573	2.45535	15	1.16929	11	0	43.0076	0.00163667
2	1	0	1	0	0	1445.62	0.678806	0.679144	3.03509	15	1.17615	11	0	45.508	0.00206126
2	1	0	1	0	0	1448.12	0.691308	0.69159	3.6575	15	1.18451	11	0	48.0084	0.00252949
2	1	0	0	0	0	1450.42	0.697159	0.697453	3.93423	15	1.19351	11	0	50.307	0.00274394
2	1	0	0	0	0	1452.92	0.684657	0.684984	3.25966	15	1.20249	11	0	52.8074	0.00223282
2	1	0	0	0	0	1455.42	0.672155	0.672487	2.63536	15	1.20984	11	0	55.3078	0.00177225
2	1	0	0	0	0	1457.92	0.659653	0.659956	2.06729	15	1.21571	11	0	57.8082	0.00136432
2	1	0	0	0	0	1460.42	0.64715	0.647465	1.56479	15	1.22023	11	0	60.3086	0.00101315
2	1	0	1	0	0	1462.92	0.634648	0.634985	1.12703	15	1.22358	11	0	62.8092	0.000715647
2	1	0	1	0	0	1465.42	0.622146	0.622456	0.770061	15	1.22593	11	0	65.3096	0.000479328
2	1	0	1	0	0	1467.92	0.609644	0.609961	0.489484	15	1.22749	11	0	67.81	0.000298566
2	1	0	1	0	0	1470.42	0.597141	0.59748	0.287871	15	1.22844	11	0	70.3104	0.000171997
2	1	0	1	0	0	1472.92	0.584639	0.58494	0.152147	15	1.22898	11	0	72.8109	8.89966e-05
2	1	0	0	0	0	1475.42	0.572137	0.572446	0.0641118	15	1.22924	11	0	75.3114	3.67005e-05
2	1	0	0	0	0	1477.92	0.559635	0.559945	0.0136264	15	1.22933	11	0	77.8118	7.63003e-06
2	0	0	0	0	0	1480.42	0.547132	0.547467	-0.0192308	15	1.22932	11	0	1.5002	-1.05282e-05
2	0	0	0	0	0	1482.92	0.53463	0.534985	-0.0364216	15	1.22925	11	0	4.0006	-1.9485e-05
2	0	0	1	0	0	1485.42	0.522128	0.522439	-0.0473969	15	1.22914	11	0	6.5012	-2.4762e-05
2	0	0	1	0	0	1487.92	0.509626	0.509925	-0.0559557	15	1.22901	11	0	9.0016	-2.85332e-05
2	0	0	1	0	0	1490.42	0.497124	0.497391	-0.0588181	15	1.22887	11	0	11.502	-2.92556e-05
2	0	0	1	0	0	1492.93	0.484621	0.48495	-0.0645341	15	1.22871	11	0	14.0024	-3.12958e-05
2	0	0	1	0	0	1495.43	0.47212	0.472414	-0.0664776	15	1.22855	11	0	16.5029	-3.1405e-05
2	0	0	0	0	0	1497.93	0.459617	0.459926	-0.0701198	15	1.22838	11	0	19.0034	-3.22499e-05
2	0	0	1	0	0	1499.84	0.44999	0.450314	-0.0792941	15	1.22824	11	0	20.9218	-3.57073e-05