File: ACS_Catal_2026/Figures_Na_K/main_figures/data/EC/20240126_2-102_Add_Na/20240201_2-102_015_K_elctrode5_C01.mpt
EC-Lab ASCII FILE
Nb header lines : 66

Cyclic Voltammetry Advanced

Run on channel : 1 (SN 66412)
User :
CE vs. WE compliance from -10 V to 10 V
Electrode connection : standard
Potential control : Ewe
Ewe ctrl range : min = -1.00 V, max = 1.00 V
Safety Limits :
	Do not start on E overload
Acquisition started on : 02/01/2024 14:51:51.460
Loaded Setting File :  C:\Users\NakamuraT\Documents\EC-Lab\Data\Yatsuzuka\20240126_2-102_Add_Na\20240201_2-102_006_K_elctrode6.mps
Saved on :
	File : 20240201_2-102_015_K_elctrode5_C01.mpr
	Directory : C:\Users\NakamuraT\Documents\EC-Lab\Data\Yatsuzuka\20240126_2-102_Add_Na\
	Host : 192.109.209.100
Device : SP-150e (SN .003411)
Address : 192.109.209.236
EC-Lab for windows v11.50 (software)
Internet server v11.50 (firmware)
Command interpretor v11.50 (firmware)
Electrode material :
Initial state :
Electrolyte :
Comments :
Electrode surface area : 0.001 cm2
Characteristic mass : 0.001 g
Equivalent Weight : 0.000 g/eq.
Density : 0.000 g/cm3
Volume (V) : 0.001 cm3
Cycle Definition : Charge/Discharge alternance
Ei (V)              0.450
vs.                 Ref
ti (h:m:s)          0:00:10.0000
dti (s)             0.0000
dE/dt               5.000
dE/dt unit          mV/s
E1 (V)              0.700
vs.                 Ref
t1 (h:m:s)          0:00:0.0000
dt1 (s)             0.1000
Step percent        50
N                   10
E range min (V)     -1.000
E range max (V)     1.000
I Range             10 mA
I Range min         Unset
I Range max         Unset
I Range init        Unset
Bandwidth           5
E2 (V)              0.450
vs.                 Ref
t2 (h:m:s)          0:00:0.0000
dt2 (s)             0.1000
nc cycles           14
nr                  1
Reverse Scan        0
Ef (V)              0.000
vs.                 Eoc
tf (h:m:s)          0:00:0.0000
dtf (s)             0.1000

mode	ox/red	error	control changes	Ns changes	counter inc.	time/s	control/V	Ewe/V	<I>/mA	cycle number	(Q-Qo)/C	I Range	Ns	step time/s	P/W
2	1	0	1	0	0	0.000000000000000E+000	0.44994	0.450252	0.0264126	1	0.0000000E+000	11	0	0.000000000000000E+000	1.18923e-05
2	1	0	1	0	0	2.4554	0.462217	0.462498	0.106743	1	0.000231907	11	0	2.4004	4.93682e-05
2	1	0	1	0	0	4.9558	0.47472	0.475	0.135102	1	0.000533909	11	0	4.9008	6.41732e-05
2	1	0	1	0	0	7.4562	0.487222	0.487505	0.180963	1	0.000925918	11	0	7.4012	8.82203e-05
2	1	0	0	0	0	9.9568	0.499724	0.500017	0.253126	1	0.00146206	11	0	9.9018	0.000126567
2	1	0	0	0	0	12.4572	0.512227	0.512531	0.365493	1	0.00222503	11	0	12.4022	0.000187327
2	1	0	0	0	0	14.9576	0.524729	0.525023	0.532717	1	0.00333286	11	0	14.9026	0.000279689
2	1	0	1	0	0	17.4582	0.537231	0.537531	0.769999	1	0.00494388	11	0	17.4032	0.000413899
2	1	0	1	0	0	19.9586	0.549733	0.550006	1.08679	1	0.00724572	11	0	19.9036	0.000597741
2	1	0	1	0	0	22.459	0.562236	0.562462	1.48554	1	0.0104417	11	0	22.404	0.000835562
2	1	0	0	0	0	24.9596	0.574738	0.575022	1.9599	1	0.0147317	11	0	24.9046	0.00112699
2	1	0	0	0	0	27.46	0.58724	0.587499	2.50247	1	0.0202959	11	0	27.405	0.0014702
2	1	0	0	0	0	29.9604	0.599743	0.600044	3.10261	1	0.0272903	11	0	29.9054	0.0018617
2	1	0	1	0	0	32.461	0.612245	0.612601	3.74677	1	0.0358442	11	0	32.406	0.00229528
2	1	0	1	0	0	34.9614	0.624747	0.625022	4.43947	1	0.0460713	11	0	34.9064	0.00277477
2	1	0	1	0	0	37.4618	0.63725	0.637533	5.1595	1	0.0580726	11	0	37.4068	0.00328935
2	1	0	1	0	0	39.9623	0.649752	0.650045	5.89273	1	0.0718944	11	0	39.9073	0.00383054
2	1	0	0	0	0	42.4628	0.662254	0.662571	6.65383	1	0.0875777	11	0	42.4078	0.00440864
2	1	0	0	0	0	44.9632	0.674757	0.675071	7.44516	1	0.105211	11	0	44.9082	0.00502601
2	1	0	1	0	0	47.4637	0.687259	0.68754	8.24724	1	0.124834	11	0	47.4087	0.00567031
2	1	0	1	0	0	49.9592	0.699736	0.700072	9.06527	1	0.146438	11	0	49.9042	0.00634634
2	1	0	1	0	0	52.2722	0.688659	0.68896	8.24389	1	0.166478	11	0	52.2172	0.0056797
2	1	0	0	0	0	54.7728	0.676157	0.676413	7.3946	1	0.186003	11	0	54.7178	0.0050018
2	1	0	0	0	0	57.2732	0.663655	0.663904	6.59764	1	0.20348	11	0	57.2182	0.0043802
2	1	0	0	0	0	59.7736	0.651152	0.65141	5.79953	1	0.218973	11	0	59.7186	0.00377787
2	1	0	1	0	0	62.2741	0.63865	0.638934	5.02727	1	0.232504	11	0	62.2191	0.00321209
2	1	0	1	0	0	64.7746	0.626148	0.626423	4.28004	1	0.244116	11	0	64.7196	0.00268111
2	1	0	1	0	0	67.275	0.613645	0.613942	3.58552	1	0.25394	11	0	67.22	0.0022013
2	1	0	1	0	0	69.7755	0.601143	0.601435	2.91522	1	0.26205	11	0	69.7205	0.00175331
2	1	0	0	0	0	72.276	0.588641	0.588909	2.30005	1	0.268547	11	0	72.221	0.00135452
2	1	0	0	0	0	74.7764	0.576138	0.576412	1.74509	1	0.273584	11	0	74.7214	0.00100589
2	1	0	0	0	0	77.2768	0.563636	0.563936	1.26697	1	0.277327	11	0	77.2218	0.000714488
2	1	0	1	0	0	79.7774	0.551134	0.551409	0.870382	1	0.279975	11	0	79.7224	0.000479937
2	1	0	1	0	0	82.2778	0.538631	0.538922	0.562303	1	0.281744	11	0	82.2228	0.000303037
2	1	0	1	0	0	84.7782	0.526129	0.526451	0.337303	1	0.282847	11	0	84.7232	0.000177574
2	1	0	0	0	0	87.2788	0.513627	0.513902	0.183806	1	0.283482	11	0	87.2238	9.44584e-05
2	1	0	0	0	0	89.7792	0.501124	0.501358	0.084487	1	0.283804	11	0	89.7242	4.23582e-05
2	1	0	0	0	0	92.2796	0.488622	0.488905	0.0233147	1	0.283931	11	0	92.2246	1.13987e-05
2	0	0	1	0	0	94.7802	0.47612	0.476356	-0.0137295	1	0.283939	11	0	1.0002	-6.54011e-06
2	0	0	1	0	0	97.2806	0.463618	0.463876	-0.0364085	1	0.283875	11	0	3.5006	-1.6889e-05
2	0	0	1	0	0	99.781	0.451115	0.451377	-0.0500896	1	0.283768	11	0	6.001	-2.26093e-05
2	1	0	1	0	1	102.155	0.460767	0.461045	0.0740575	2	0.283889	11	0	2.0003	3.41438e-05
2	1	0	1	0	1	104.655	0.473269	0.473508	0.0920856	2	0.284102	11	0	4.5008	4.36032e-05
2	1	0	1	0	1	107.156	0.485772	0.486021	0.119805	2	0.28437	11	0	7.0012	5.82278e-05
2	1	0	1	0	1	109.656	0.498274	0.498598	0.166882	2	0.284729	11	0	9.5017	8.32072e-05
2	1	0	0	0	1	112.157	0.510776	0.511093	0.245171	2	0.285242	11	0	12.0022	0.000125305
2	1	0	0	0	1	114.657	0.523279	0.523603	0.371728	2	0.286008	11	0	14.5026	0.000194638
2	1	0	0	0	1	117.157	0.535781	0.536098	0.564337	2	0.287168	11	0	17.003	0.00030254
2	1	0	1	0	1	119.658	0.548283	0.548562	0.837168	2	0.28891	11	0	19.5036	0.000459238
2	1	0	1	0	1	122.158	0.560786	0.561065	1.19903	2	0.291444	11	0	22.004	0.000672731
2	1	0	1	0	1	124.659	0.573288	0.57359	1.64761	2	0.294993	11	0	24.5044	0.00094505
2	1	0	0	0	1	127.159	0.58579	0.586038	2.17294	2	0.299762	11	0	27.005	0.00127343
2	1	0	0	0	1	129.66	0.598292	0.598568	2.7605	2	0.305925	11	0	29.5054	0.00165235
2	1	0	0	0	1	132.16	0.610795	0.611076	3.40277	2	0.313626	11	0	32.0058	0.00207935
2	1	0	1	0	1	134.661	0.623297	0.623598	4.0848	2	0.322988	11	0	34.5064	0.00254727
2	1	0	1	0	1	137.161	0.635799	0.636098	4.80673	2	0.334107	11	0	37.0068	0.00305756
2	1	0	1	0	1	139.662	0.648302	0.64855	5.55188	2	0.347061	11	0	39.5072	0.00360067
2	1	0	0	0	1	142.162	0.660804	0.661037	6.31892	2	0.361901	11	0	42.0078	0.00417704
2	1	0	0	0	1	144.663	0.673306	0.673586	7.10057	2	0.378687	11	0	44.5082	0.00478284
2	1	0	0	0	1	147.163	0.685809	0.68607	7.91734	2	0.397446	11	0	47.0086	0.00543185
2	1	0	1	0	1	149.663	0.698311	0.698591	8.76361	2	0.418316	11	0	49.5091	0.00612217
2	1	0	1	0	1	151.962	0.690159	0.690387	8.16895	2	0.437986	11	0	51.8072	0.00563973
2	1	0	1	0	1	154.462	0.677657	0.677933	7.31462	2	0.457328	11	0	54.3076	0.00495883
2	1	0	0	0	1	156.963	0.665155	0.665428	6.49893	2	0.474598	11	0	56.8082	0.00432457
2	1	0	0	0	1	159.463	0.652652	0.652898	5.71543	2	0.489859	11	0	59.3086	0.0037316
2	1	0	0	0	1	161.963	0.64015	0.640418	4.96334	2	0.503201	11	0	61.809	0.00317861
2	1	0	1	0	1	164.464	0.627648	0.627941	4.21738	2	0.514673	11	0	64.3096	0.00264827
2	1	0	1	0	1	166.964	0.615146	0.615423	3.50854	2	0.524322	11	0	66.81	0.00215924
2	1	0	1	0	1	169.465	0.602643	0.602921	2.84833	2	0.53226	11	0	69.3104	0.00171732
2	1	0	1	0	1	171.965	0.590141	0.590453	2.24358	2	0.538613	11	0	71.8109	0.00132473
2	1	0	0	0	1	174.466	0.577639	0.577874	1.69899	2	0.543529	11	0	74.3114	0.000981803
2	1	0	0	0	1	176.966	0.565136	0.565383	1.229	2	0.547176	11	0	76.8118	0.000694855
2	1	0	1	0	1	179.467	0.552634	0.552899	0.839621	2	0.549747	11	0	79.3123	0.000464226
2	1	0	1	0	1	181.967	0.540132	0.540402	0.537725	2	0.551452	11	0	81.8128	0.000290588
2	1	0	1	0	1	184.468	0.527629	0.527983	0.319724	2	0.552508	11	0	84.3132	0.000168809
2	1	0	1	0	1	186.968	0.515127	0.515399	0.172891	2	0.553109	11	0	86.8136	8.91079e-05
2	1	0	0	0	1	189.469	0.502625	0.50291	0.0791532	2	0.553411	11	0	89.3142	3.98069e-05
2	1	0	0	0	1	191.969	0.490122	0.490392	0.0217092	2	0.553526	11	0	91.8146	1.0646e-05
2	0	0	0	0	1	194.469	0.47762	0.478022	-0.01312	2	0.553527	11	0	1.1002	-6.27165e-06
2	0	0	1	0	1	196.97	0.465118	0.465367	-0.0348716	2	0.553459	11	0	3.6008	-1.62281e-05
2	0	0	1	0	1	199.47	0.452616	0.452899	-0.0487788	2	0.55335	11	0	6.1012	-2.20918e-05
2	1	0	0	0	0	201.844	0.459267	0.459543	0.0684796	3	0.553428	11	0	1.7002	3.14693e-05
2	1	0	1	0	0	204.345	0.471769	0.472014	0.0837243	3	0.553623	11	0	4.2008	3.95191e-05
2	1	0	1	0	0	206.845	0.484271	0.484569	0.107748	3	0.553867	11	0	6.7012	5.22115e-05
2	1	0	1	0	0	209.345	0.496774	0.497005	0.148435	3	0.554187	11	0	9.2016	7.37731e-05
2	1	0	1	0	0	211.846	0.509276	0.509592	0.216417	3	0.554639	11	0	11.7021	0.000110285
2	1	0	0	0	0	214.346	0.521778	0.522082	0.327491	3	0.555308	11	0	14.2026	0.000170977
2	1	0	0	0	0	216.847	0.534281	0.534603	0.498668	3	0.556324	11	0	16.703	0.000266589
2	1	0	0	0	0	219.347	0.546783	0.547137	0.74777	3	0.557861	11	0	19.2034	0.000409132
2	1	0	1	0	0	221.848	0.559285	0.559627	1.08413	3	0.560129	11	0	21.704	0.00060671
2	1	0	1	0	0	224.348	0.571788	0.572117	1.50679	3	0.563349	11	0	24.2044	0.000862061
2	1	0	1	0	0	226.849	0.58429	0.584537	2.01053	3	0.567731	11	0	26.7048	0.00117523
2	1	0	0	0	0	229.349	0.596792	0.597077	2.58569	3	0.57347	11	0	29.2054	0.00154386
2	1	0	0	0	0	231.85	0.609294	0.609568	3.21866	3	0.580722	11	0	31.7058	0.00196199
2	1	0	0	0	0	234.35	0.621797	0.622028	3.89534	3	0.589618	11	0	34.2062	0.00242301
2	1	0	1	0	0	236.851	0.634299	0.634579	4.61457	3	0.60026	11	0	36.7068	0.00292831
2	1	0	1	0	0	239.351	0.646801	0.646989	5.36032	3	0.612727	11	0	39.2072	0.00346807
2	1	0	1	0	0	241.851	0.659304	0.659598	6.14373	3	0.627105	11	0	41.7076	0.00405239
2	1	0	0	0	0	244.352	0.671806	0.672036	6.93044	3	0.64344	11	0	44.2082	0.0046575
2	1	0	0	0	0	246.852	0.684308	0.684608	7.7521	3	0.661805	11	0	46.7086	0.00530715
2	1	0	0	0	0	249.353	0.696811	0.697086	8.56712	3	0.6822	11	0	49.209	0.00597202
2	1	0	1	0	0	251.651	0.69166	0.691957	8.19653	3	0.701811	11	0	51.5072	0.00567165
2	1	0	1	0	0	254.151	0.679157	0.679389	7.34234	3	0.721224	11	0	54.0076	0.00498831
2	1	0	1	0	0	256.652	0.666655	0.666935	6.51341	3	0.738531	11	0	56.508	0.00434402
2	1	0	0	0	0	259.152	0.654153	0.654425	5.70085	3	0.753783	11	0	59.0086	0.00373078
2	1	0	0	0	0	261.653	0.641651	0.641945	4.92743	3	0.767043	11	0	61.509	0.00316313
2	1	0	0	0	0	264.153	0.629148	0.629448	4.19259	3	0.778442	11	0	64.0094	0.00263902
2	1	0	1	0	0	266.654	0.616646	0.616882	3.51023	3	0.788055	11	0	66.51	0.0021654
2	1	0	1	0	0	269.154	0.604144	0.604419	2.85381	3	0.796003	11	0	69.0104	0.0017249
2	1	0	1	0	0	271.655	0.591641	0.591865	2.24658	3	0.802364	11	0	71.5108	0.00132967
2	1	0	0	0	0	274.155	0.579139	0.579488	1.70227	3	0.807286	11	0	74.0114	0.000986443
2	1	0	0	0	0	276.656	0.566637	0.566905	1.22993	3	0.810927	11	0	76.5118	0.000697252
2	1	0	0	0	0	279.156	0.554134	0.554447	0.838387	3	0.813489	11	0	79.0122	0.000464841
2	1	0	1	0	0	281.656	0.541632	0.541896	0.536324	3	0.815185	11	0	81.5127	0.000290632
2	1	0	1	0	0	284.157	0.52913	0.52938	0.316514	3	0.816236	11	0	84.0132	0.000167556
2	1	0	1	0	0	286.657	0.516627	0.516934	0.168556	3	0.816834	11	0	86.5136	8.7132e-05
2	1	0	1	0	0	289.158	0.504125	0.50439	0.0750736	3	0.817134	11	0	89.014	3.78664e-05
2	1	0	0	0	0	291.658	0.491623	0.491856	0.018606	3	0.817247	11	0	91.5146	9.15146e-06
2	1	0	0	0	0	294.159	0.47912	0.479382	-0.0144129	3	0.817248	11	0	1.2002	-6.90929e-06
2	0	0	0	0	0	296.659	0.466618	0.466888	-0.0340492	3	0.817182	11	0	3.7006	-1.58972e-05
2	0	0	1	0	0	299.16	0.454116	0.454401	-0.046934	3	0.817074	11	0	6.2012	-2.13269e-05
2	1	0	0	0	1	301.533	0.457767	0.458042	0.0657722	4	0.817113	11	0	1.4002	3.01265e-05
2	1	0	0	0	1	304.034	0.470269	0.470565	0.079011	4	0.817298	11	0	3.9006	3.71798e-05
2	1	0	1	0	1	306.534	0.482771	0.483011	0.0998394	4	0.817525	11	0	6.4012	4.82236e-05
2	1	0	1	0	1	309.035	0.495273	0.495538	0.135888	4	0.81782	11	0	8.9016	6.73377e-05
2	1	0	1	0	1	311.535	0.507776	0.508071	0.196402	4	0.81823	11	0	11.402	9.97862e-05
2	1	0	0	0	1	314.036	0.520278	0.520538	0.295337	4	0.818832	11	0	13.9026	0.000153734
2	1	0	0	0	1	316.536	0.53278	0.533023	0.44979	4	0.819746	11	0	16.403	0.000239749
2	1	0	0	0	1	319.037	0.545283	0.545568	0.677696	4	0.821135	11	0	18.9034	0.00036973
2	1	0	1	0	1	321.537	0.557785	0.558065	0.991178	4	0.823203	11	0	21.4039	0.000553142
2	1	0	1	0	1	324.038	0.570287	0.570584	1.39338	4	0.826169	11	0	23.9044	0.000795041
2	1	0	1	0	1	326.538	0.58279	0.583051	1.87928	4	0.830251	11	0	26.4048	0.00109572
2	1	0	1	0	1	329.038	0.595292	0.595555	2.43975	4	0.835644	11	0	28.9052	0.00145301
2	1	0	0	0	1	331.539	0.607794	0.608107	3.05894	4	0.842515	11	0	31.4058	0.00186017
2	1	0	0	0	1	334.039	0.620297	0.62059	3.73063	4	0.850999	11	0	33.9062	0.0023152
2	1	0	0	0	1	336.54	0.632799	0.633043	4.43111	4	0.861198	11	0	36.4066	0.00280508
2	1	0	1	0	1	339.04	0.645301	0.645516	5.17187	4	0.873197	11	0	38.9072	0.00333852
2	1	0	1	0	1	341.541	0.657803	0.658075	5.93646	4	0.887074	11	0	41.4076	0.00390664
2	1	0	1	0	1	344.041	0.670306	0.670631	6.72527	4	0.902887	11	0	43.908	0.00451018
2	1	0	0	0	1	346.542	0.682808	0.68307	7.52812	4	0.920717	11	0	46.4086	0.00514223
2	1	0	0	0	1	349.042	0.69531	0.695606	8.3373	4	0.940568	11	0	48.909	0.00579948
2	1	0	1	0	1	351.34	0.69316	0.693423	8.16886	4	0.959959	11	0	51.2071	0.00566448
2	1	0	1	0	1	353.841	0.680658	0.680929	7.33836	4	0.979346	11	0	53.7076	0.0049969
2	1	0	1	0	1	356.341	0.668155	0.668424	6.52042	4	0.996658	11	0	56.208	0.00435841
2	1	0	1	0	1	358.842	0.655653	0.655977	5.71098	4	1.01195	11	0	58.7084	0.00374627
2	1	0	0	0	1	361.342	0.643151	0.643429	4.9384	4	1.02524	11	0	61.209	0.00317751
2	1	0	0	0	1	363.843	0.630648	0.63092	4.20886	4	1.03667	11	0	63.7094	0.00265546
2	1	0	0	0	1	366.343	0.618146	0.618424	3.50633	4	1.04631	11	0	66.2098	0.0021684
2	1	0	1	0	1	368.844	0.605644	0.605907	2.85413	4	1.05426	11	0	68.7104	0.00172934
2	1	0	1	0	1	371.344	0.593141	0.593387	2.25293	4	1.06063	11	0	71.2108	0.00133686
2	1	0	1	0	1	373.844	0.580639	0.580879	1.70793	4	1.06557	11	0	73.7112	0.0009921
2	1	0	0	0	1	376.345	0.568137	0.568414	1.23639	4	1.06922	11	0	76.2118	0.000702784
2	1	0	0	0	1	378.845	0.555635	0.555922	0.843606	4	1.0718	11	0	78.7122	0.000468979
2	1	0	0	0	1	381.346	0.543132	0.54339	0.539761	4	1.07351	11	0	81.2126	0.000293301
2	1	0	1	0	1	383.846	0.53063	0.530838	0.319311	4	1.07456	11	0	83.7132	0.000169502
2	1	0	1	0	1	386.347	0.518128	0.518433	0.169909	4	1.07516	11	0	86.2136	8.80866e-05
2	1	0	1	0	1	388.847	0.505625	0.505892	0.0758389	4	1.07547	11	0	88.714	3.83664e-05
2	1	0	1	0	1	391.348	0.493123	0.493384	0.018442	4	1.07558	11	0	91.2145	9.09901e-06
2	0	0	0	0	1	393.848	0.480621	0.480921	-0.0148302	4	1.07559	11	0	1.1002	-7.13216e-06
2	0	0	0	0	1	396.349	0.468118	0.468398	-0.0336925	4	1.07552	11	0	3.6006	-1.57815e-05
2	0	0	0	0	1	398.849	0.455616	0.455906	-0.0460117	4	1.07542	11	0	6.101	-2.0977e-05
2	1	0	0	0	0	401.223	0.456266	0.456537	0.0637162	5	1.07542	11	0	1.1002	2.90888e-05
2	1	0	0	0	0	403.723	0.468769	0.469063	0.0767297	5	1.0756	11	0	3.6006	3.59911e-05
2	1	0	0	0	0	406.224	0.481271	0.48158	0.0940384	5	1.07581	11	0	6.101	4.5287e-05
2	1	0	1	0	0	408.724	0.493773	0.494007	0.125184	5	1.07609	11	0	8.6016	6.18415e-05
2	1	0	1	0	0	411.225	0.506275	0.506579	0.177665	5	1.07647	11	0	11.102	9.00012e-05
2	1	0	1	0	0	413.725	0.518778	0.519082	0.266482	5	1.07702	11	0	13.6024	0.000138326
2	1	0	0	0	0	416.226	0.53128	0.531525	0.408319	5	1.07785	11	0	16.103	0.000217031
2	1	0	0	0	0	418.726	0.543782	0.544059	0.620674	5	1.07912	11	0	18.6034	0.000337683
2	1	0	0	0	0	421.226	0.556285	0.556549	0.917798	5	1.08102	11	0	21.1038	0.0005108
2	1	0	1	0	0	423.727	0.568787	0.569034	1.30343	5	1.08377	11	0	23.6043	0.000741697
2	1	0	1	0	0	426.227	0.581289	0.581582	1.77243	5	1.0876	11	0	26.1048	0.00103081
2	1	0	1	0	0	428.728	0.593792	0.594034	2.31607	5	1.09271	11	0	28.6052	0.00137583
2	1	0	1	0	0	431.228	0.606294	0.60656	2.92535	5	1.09925	11	0	31.1057	0.0017744
2	1	0	0	0	0	433.729	0.618796	0.619047	3.58063	5	1.10739	11	0	33.6062	0.00221658
2	1	0	0	0	0	436.229	0.631298	0.631593	4.28528	5	1.11721	11	0	36.1066	0.00270655
2	1	0	0	0	0	438.73	0.643801	0.644038	5.02821	5	1.12885	11	0	38.607	0.00323836
2	1	0	1	0	0	441.23	0.656303	0.656568	5.7981	5	1.14238	11	0	41.1076	0.00380684
2	1	0	1	0	0	443.731	0.668805	0.669096	6.58444	5	1.15786	11	0	43.608	0.00440562
2	1	0	1	0	0	446.231	0.681308	0.681577	7.38653	5	1.17532	11	0	46.1084	0.00503449
2	1	0	0	0	0	448.732	0.69381	0.694051	8.21082	5	1.19483	11	0	48.609	0.00569873
2	1	0	0	0	0	451.03	0.69466	0.694949	8.23642	5	1.21417	11	0	50.907	0.00572389
2	1	0	1	0	0	453.53	0.682158	0.682435	7.38307	5	1.23369	11	0	53.4075	0.00503846
2	1	0	1	0	0	456.031	0.669656	0.669883	6.55901	5	1.25111	11	0	55.908	0.00439377
2	1	0	1	0	0	458.531	0.657153	0.657446	5.74948	5	1.26648	11	0	58.4084	0.00377997
2	1	0	1	0	0	461.031	0.644651	0.644929	4.98787	5	1.27989	11	0	60.9088	0.00321682
2	1	0	0	0	0	463.532	0.632149	0.632375	4.2533	5	1.29144	11	0	63.4094	0.00268968
2	1	0	0	0	0	466.032	0.619646	0.619921	3.54228	5	1.30117	11	0	65.9098	0.00219593
2	1	0	0	0	0	468.533	0.607144	0.607419	2.8858	5	1.3092	11	0	68.4102	0.00175289
2	1	0	1	0	0	471.033	0.594642	0.594982	2.27334	5	1.31565	11	0	70.9108	0.0013526
2	1	0	1	0	0	473.534	0.582139	0.582378	1.72649	5	1.32064	11	0	73.4112	0.00100547
2	1	0	1	0	0	476.034	0.569637	0.569866	1.24979	5	1.32434	11	0	75.9116	0.000712214
2	1	0	0	0	0	478.535	0.557135	0.557392	0.855225	5	1.32695	11	0	78.4122	0.000476696
2	1	0	0	0	0	481.035	0.544632	0.544878	0.550348	5	1.32868	11	0	80.9126	0.000299872
2	1	0	0	0	0	483.536	0.53213	0.532411	0.329354	5	1.32975	11	0	83.413	0.000175352
2	1	0	1	0	0	486.036	0.519628	0.519943	0.178175	5	1.33037	11	0	85.9136	9.26408e-05
2	1	0	1	0	0	488.537	0.507126	0.507403	0.0806981	5	1.33068	11	0	88.414	4.09465e-05
2	1	0	1	0	0	491.037	0.494623	0.494888	0.0208313	5	1.33081	11	0	90.9144	1.03092e-05
2	0	0	1	0	0	493.537	0.482121	0.482354	-0.0150777	5	1.33081	11	0	1.0001	-7.2728e-06
2	0	0	0	0	0	496.038	0.469619	0.469906	-0.0361722	5	1.33075	11	0	3.5006	-1.69975e-05
2	0	0	0	0	0	498.538	0.457116	0.457369	-0.0478162	5	1.33065	11	0	6.001	-2.18696e-05
2	1	0	1	0	1	500.912	0.454766	0.455014	0.062399	6	1.33062	11	0	0.8	2.83924e-05
2	1	0	0	0	1	503.413	0.467268	0.46757	0.0764617	6	1.33079	11	0	3.3006	3.57513e-05
2	1	0	0	0	1	505.913	0.479771	0.480011	0.0916827	6	1.33099	11	0	5.801	4.40087e-05
2	1	0	0	0	1	508.413	0.492273	0.492524	0.117641	6	1.33125	11	0	8.3014	5.79408e-05
2	1	0	1	0	1	510.914	0.504775	0.505048	0.163907	6	1.33161	11	0	10.802	8.27809e-05
2	1	0	1	0	1	513.414	0.517277	0.517573	0.243835	6	1.33211	11	0	13.3024	0.000126202
2	1	0	1	0	1	515.915	0.52978	0.530044	0.373493	6	1.33288	11	0	15.8028	0.000197967
2	1	0	0	0	1	518.415	0.542282	0.542552	0.570699	6	1.33404	11	0	18.3034	0.000309634
2	1	0	0	0	1	520.916	0.554784	0.555022	0.850944	6	1.3358	11	0	20.8038	0.000472293
2	1	0	0	0	1	523.416	0.567287	0.567537	1.22009	6	1.33837	11	0	23.3042	0.000692446
2	1	0	1	0	1	525.917	0.579789	0.580097	1.67253	6	1.34197	11	0	25.8048	0.000970229
2	1	0	1	0	1	528.417	0.592291	0.592571	2.20419	6	1.3468	11	0	28.3052	0.00130614
2	1	0	1	0	1	530.918	0.604794	0.605075	2.79876	6	1.35306	11	0	30.8056	0.00169346
2	1	0	1	0	1	533.418	0.617296	0.617543	3.4574	6	1.36088	11	0	33.3061	0.00213509
2	1	0	0	0	1	535.919	0.629798	0.630072	4.15146	6	1.37038	11	0	35.8066	0.00261571
2	1	0	0	0	1	538.419	0.642301	0.642576	4.8779	6	1.38166	11	0	38.307	0.00313442
2	1	0	0	0	1	540.919	0.654803	0.654998	5.63558	6	1.3948	11	0	40.8074	0.0036913
2	1	0	1	0	1	543.42	0.667305	0.66754	6.4164	6	1.40988	11	0	43.308	0.0042832
2	1	0	1	0	1	545.92	0.679808	0.680091	7.20934	6	1.42692	11	0	45.8084	0.00490301
2	1	0	1	0	1	548.421	0.69231	0.692598	8.01109	6	1.44595	11	0	48.3088	0.00554846
2	1	0	0	0	1	550.719	0.696161	0.696461	8.25089	6	1.46503	11	0	50.607	0.00574642
2	1	0	0	0	1	553.219	0.683658	0.683958	7.40682	6	1.4846	11	0	53.1074	0.00506595
2	1	0	1	0	1	555.72	0.671156	0.671394	6.6021	6	1.50212	11	0	55.608	0.00443261
2	1	0	1	0	1	558.22	0.658654	0.658911	5.79804	6	1.51762	11	0	58.1084	0.00382039
2	1	0	1	0	1	560.721	0.646151	0.646372	5.03085	6	1.53114	11	0	60.6088	0.0032518
2	1	0	1	0	1	563.221	0.633649	0.633897	4.29272	6	1.5428	11	0	63.1093	0.00272114
2	1	0	0	0	1	565.722	0.621147	0.621436	3.5886	6	1.55264	11	0	65.6098	0.00223009
2	1	0	0	0	1	568.222	0.608644	0.608918	2.926	6	1.56076	11	0	68.1102	0.00178169
2	1	0	0	0	1	570.723	0.596142	0.596415	2.30891	6	1.56729	11	0	70.6106	0.00137707
2	1	0	1	0	1	573.223	0.58364	0.583978	1.75115	6	1.57235	11	0	73.1112	0.00102263
2	1	0	1	0	1	575.724	0.571137	0.571411	1.27127	6	1.57611	11	0	75.6116	0.00072642
2	1	0	1	0	1	578.224	0.558635	0.558949	0.871494	6	1.57877	11	0	78.112	0.00048712
2	1	0	0	0	1	580.725	0.546133	0.546418	0.560443	6	1.58055	11	0	80.6126	0.000306237
2	1	0	0	0	1	583.225	0.53363	0.533914	0.335548	6	1.58165	11	0	83.113	0.000179154
2	1	0	0	0	1	585.725	0.521128	0.521386	0.183873	6	1.58229	11	0	85.6134	9.58688e-05
2	1	0	1	0	1	588.226	0.508626	0.508893	0.0873796	6	1.58261	11	0	88.114	4.44669e-05
2	1	0	1	0	1	590.726	0.496124	0.496372	0.0277295	6	1.58275	11	0	90.6144	1.37641e-05
2	0	0	1	0	1	593.227	0.483621	0.483919	-0.00905503	6	1.58276	11	0	0.8001	-4.3819e-06
2	0	0	0	0	1	595.727	0.471119	0.471374	-0.0326373	6	1.5827	11	0	3.3007	-1.53844e-05
2	0	0	0	0	1	598.228	0.458617	0.458911	-0.0478659	6	1.5826	11	0	5.8011	-2.19662e-05
2	1	0	1	0	0	600.601	0.453266	0.453573	0.0551788	7	1.58254	11	0	0.5	2.50276e-05
2	1	0	1	0	0	603.102	0.465768	0.466105	0.07258	7	1.5827	11	0	3.0004	3.38299e-05
2	1	0	0	0	0	605.602	0.47827	0.478599	0.0893096	7	1.5829	11	0	5.501	4.27435e-05
2	1	0	0	0	0	608.103	0.490773	0.491051	0.113975	7	1.58315	11	0	8.0014	5.59673e-05
2	1	0	0	0	0	610.603	0.503275	0.503538	0.154673	7	1.58348	11	0	10.5018	7.78837e-05
2	1	0	1	0	0	613.104	0.515777	0.5161	0.225136	7	1.58395	11	0	13.0024	0.000116192
2	1	0	1	0	0	615.604	0.528279	0.528553	0.342845	7	1.58465	11	0	15.5028	0.000181212
2	1	0	1	0	0	618.105	0.540782	0.54104	0.526087	7	1.58573	11	0	18.0032	0.000284634
2	1	0	0	0	0	620.605	0.553284	0.55358	0.791499	7	1.58736	11	0	20.5038	0.000438158
2	1	0	0	0	0	623.106	0.565786	0.566092	1.14536	7	1.58976	11	0	23.0042	0.000648381
2	1	0	0	0	0	625.606	0.578289	0.578623	1.58732	7	1.59315	11	0	25.5046	0.000918457
2	1	0	1	0	0	628.107	0.590791	0.59107	2.10598	7	1.59775	11	0	28.0052	0.00124478
2	1	0	1	0	0	630.607	0.603293	0.603581	2.69122	7	1.60374	11	0	30.5056	0.00162437
2	1	0	1	0	0	633.107	0.615796	0.616147	3.33091	7	1.61126	11	0	33.006	0.00205233
2	1	0	1	0	0	635.608	0.628298	0.628545	4.01748	7	1.62044	11	0	35.5065	0.00252517
2	1	0	0	0	0	638.108	0.6408	0.641085	4.74265	7	1.6314	11	0	38.007	0.00304044
2	1	0	0	0	0	640.609	0.653303	0.653561	5.50174	7	1.64421	11	0	40.5074	0.00359572
2	1	0	1	0	0	643.109	0.665805	0.666024	6.27825	7	1.65894	11	0	43.0079	0.00418147
2	1	0	1	0	0	645.61	0.678307	0.678542	7.07409	7	1.67563	11	0	45.5084	0.00480007
2	1	0	1	0	0	648.11	0.690809	0.691045	7.89325	7	1.69434	11	0	48.0088	0.0054546
2	1	0	0	0	0	650.408	0.697661	0.697918	8.32817	7	1.71328	11	0	50.307	0.00581238
2	1	0	0	0	0	652.909	0.685159	0.685437	7.46186	7	1.73301	11	0	52.8074	0.00511464
2	1	0	0	0	0	655.409	0.672656	0.672965	6.65995	7	1.75066	11	0	55.3078	0.00448191
2	1	0	1	0	0	657.91	0.660154	0.660461	5.86252	7	1.76631	11	0	57.8084	0.00387197
2	1	0	1	0	0	660.41	0.647652	0.647914	5.08448	7	1.77998	11	0	60.3088	0.00329431
2	1	0	1	0	0	662.911	0.635149	0.635445	4.33287	7	1.79174	11	0	62.8092	0.0027533
2	1	0	1	0	0	665.411	0.622647	0.622941	3.62485	7	1.80166	11	0	65.3097	0.00225807
2	1	0	0	0	0	667.912	0.610145	0.6104	2.95606	7	1.80988	11	0	67.8102	0.00180438
2	1	0	0	0	0	670.412	0.597642	0.597902	2.33983	7	1.81649	11	0	70.3106	0.00139899
2	1	0	0	0	0	672.912	0.58514	0.585418	1.78059	7	1.82163	11	0	72.811	0.00104239
2	1	0	1	0	0	675.413	0.572638	0.572919	1.29337	7	1.82546	11	0	75.3116	0.000740994
2	1	0	1	0	0	677.913	0.560135	0.560391	0.891972	7	1.82818	11	0	77.812	0.000499853
2	1	0	1	0	0	680.414	0.547633	0.547913	0.578576	7	1.82999	11	0	80.3124	0.000317009
2	1	0	0	0	0	682.914	0.535131	0.535343	0.348965	7	1.83113	11	0	82.813	0.000186816
2	1	0	0	0	0	685.415	0.522628	0.522853	0.193202	7	1.83179	11	0	85.3134	0.000101016
2	1	0	0	0	0	687.915	0.510126	0.510373	0.0918044	7	1.83213	11	0	87.8138	4.68545e-05
2	1	0	1	0	0	690.416	0.497624	0.497917	0.0291426	7	1.83227	11	0	90.3144	1.45106e-05
2	0	0	1	0	0	692.916	0.485122	0.485368	-0.00967554	7	1.83229	11	0	0.6002	-4.6962e-06
2	0	0	1	0	0	695.417	0.472619	0.472886	-0.0331358	7	1.83224	11	0	3.1006	-1.56694e-05
2	0	0	0	0	0	697.917	0.460117	0.460404	-0.0473415	7	1.83214	11	0	5.6012	-2.17962e-05
2	1	0	1	0	1	700.291	0.451765	0.452048	0.0453028	8	1.83205	11	0	0.2	2.0479e-05
2	1	0	1	0	1	702.791	0.464268	0.464539	0.0699244	8	1.83221	11	0	2.7004	3.24826e-05
2	1	0	1	0	1	705.292	0.47677	0.477051	0.0856189	8	1.8324	11	0	5.2009	4.08446e-05
2	1	0	0	0	1	707.792	0.489272	0.489551	0.108918	8	1.83263	11	0	7.7014	5.33211e-05
2	1	0	0	0	1	710.293	0.501775	0.502096	0.147632	8	1.83294	11	0	10.2018	7.41256e-05
2	1	0	0	0	1	712.793	0.514277	0.514561	0.212812	8	1.83338	11	0	12.7022	0.000109505
2	1	0	1	0	1	715.294	0.526779	0.527085	0.320774	8	1.83404	11	0	15.2028	0.000169075
2	1	0	1	0	1	717.794	0.539281	0.539523	0.489308	8	1.83503	11	0	17.7032	0.000263993
2	1	0	1	0	1	720.294	0.551784	0.552047	0.735688	8	1.83655	11	0	20.2036	0.000406134
2	1	0	0	0	1	722.795	0.564286	0.564566	1.07106	8	1.83879	11	0	22.7042	0.000604685
2	1	0	0	0	1	725.295	0.576788	0.577071	1.496	8	1.84199	11	0	25.2046	0.000863301
2	1	0	0	0	1	727.796	0.589291	0.589544	2.00369	8	1.84636	11	0	27.705	0.00118126
2	1	0	1	0	1	730.296	0.601793	0.60209	2.58052	8	1.85208	11	0	30.2056	0.0015537
2	1	0	1	0	1	732.797	0.614295	0.614563	3.21492	8	1.85933	11	0	32.706	0.00197577
2	1	0	1	0	1	735.297	0.626798	0.627054	3.89889	8	1.86821	11	0	35.2064	0.00244482
2	1	0	0	0	1	737.798	0.6393	0.63956	4.61901	8	1.87886	11	0	37.707	0.00295413
2	1	0	0	0	1	740.298	0.651802	0.652039	5.3607	8	1.89133	11	0	40.2074	0.00349538
2	1	0	0	0	1	742.799	0.664305	0.664579	6.1362	8	1.90569	11	0	42.7078	0.00407799
2	1	0	1	0	1	745.299	0.676807	0.677111	6.93737	8	1.92203	11	0	45.2083	0.00469737
2	1	0	1	0	1	747.8	0.689309	0.689566	7.75459	8	1.9404	11	0	47.7088	0.00534731
2	1	0	1	0	1	750.098	0.699161	0.699432	8.3959	8	1.95908	11	0	50.0068	0.00587236
2	1	0	0	0	1	752.598	0.686659	0.686931	7.5418	8	1.979	11	0	52.5074	0.0051807
2	1	0	0	0	1	755.099	0.674156	0.674422	6.68915	8	1.99677	11	0	55.0078	0.00451131
2	1	0	0	0	1	757.599	0.661654	0.661906	5.89256	8	2.01248	11	0	57.5082	0.00390032
2	1	0	1	0	1	760.1	0.649152	0.649379	5.12643	8	2.02624	11	0	60.0088	0.003329
2	1	0	1	0	1	762.6	0.636649	0.6369	4.3889	8	2.03813	11	0	62.5092	0.00279529
2	1	0	1	0	1	765.1	0.624147	0.624351	3.67701	8	2.04821	11	0	65.0096	0.00229574
2	1	0	0	0	1	767.601	0.611645	0.611895	3.00167	8	2.05655	11	0	67.5102	0.00183671
2	1	0	0	0	1	770.101	0.599143	0.599358	2.38007	8	2.06327	11	0	70.0106	0.00142652
2	1	0	0	0	1	772.602	0.58664	0.586909	1.81733	8	2.0685	11	0	72.511	0.00106661
2	1	0	1	0	1	775.102	0.574138	0.574435	1.32564	8	2.07241	11	0	75.0115	0.000761497
2	1	0	1	0	1	777.603	0.561636	0.561865	0.919153	8	2.0752	11	0	77.512	0.00051644
2	1	0	1	0	1	780.103	0.549133	0.549392	0.59923	8	2.07707	11	0	80.0124	0.000329212
2	1	0	1	0	1	782.604	0.536631	0.536865	0.363002	8	2.07825	11	0	82.5128	0.000194883
2	1	0	0	0	1	785.104	0.524129	0.5244	0.201128	8	2.07894	11	0	85.0134	0.000105471
2	1	0	0	0	1	787.605	0.511626	0.511835	0.096194	8	2.07929	11	0	87.5138	4.92355e-05
2	1	0	0	0	1	790.105	0.499124	0.499381	0.0311559	8	2.07945	11	0	90.0142	1.55587e-05
2	0	0	1	0	1	792.606	0.486622	0.486899	-0.00804501	8	2.07947	11	0	0.4002	-3.91711e-06
2	0	0	1	0	1	795.106	0.47412	0.474433	-0.0321125	8	2.07942	11	0	2.9006	-1.52352e-05
2	0	0	1	0	1	797.606	0.461617	0.461927	-0.0461106	8	2.07933	11	0	5.401	-2.12997e-05
2	0	0	1	0	0	799.98	0.450265	0.450521	-0.0191026	9	2.07922	11	0	7.7748	-8.6061e-06
2	1	0	1	0	0	802.481	0.462767	0.463057	0.0677525	9	2.07936	11	0	2.4004	3.13732e-05
2	1	0	1	0	0	804.981	0.47527	0.475538	0.0816242	9	2.07954	11	0	4.9008	3.88154e-05
2	1	0	1	0	0	807.481	0.487772	0.488071	0.10286	9	2.07977	11	0	7.4013	5.0203e-05
2	1	0	0	0	0	809.982	0.500274	0.500557	0.138751	9	2.08006	11	0	9.9018	6.94528e-05
2	1	0	0	0	0	812.482	0.512777	0.513	0.199146	9	2.08048	11	0	12.4022	0.000102162
2	1	0	0	0	0	814.983	0.525279	0.525534	0.298571	9	2.08108	11	0	14.9026	0.000156909
2	1	0	1	0	0	817.483	0.537781	0.538055	0.455845	9	2.08201	11	0	17.4032	0.00024527
2	1	0	1	0	0	819.984	0.550284	0.550577	0.689034	9	2.08342	11	0	19.9036	0.000379366
2	1	0	1	0	0	822.484	0.562786	0.563044	1.01013	9	2.08552	11	0	22.404	0.000568747
2	1	0	0	0	0	824.985	0.575288	0.57555	1.41979	9	2.08854	11	0	24.9046	0.00081716
2	1	0	0	0	0	827.485	0.58779	0.58805	1.91338	9	2.0927	11	0	27.405	0.00112516
2	1	0	0	0	0	829.986	0.600293	0.600587	2.47647	9	2.09818	11	0	29.9054	0.00148734
2	1	0	1	0	0	832.486	0.612795	0.613142	3.10363	9	2.10515	11	0	32.406	0.00190296
2	1	0	1	0	0	834.987	0.625297	0.62558	3.77711	9	2.11375	11	0	34.9064	0.00236288
2	1	0	1	0	0	837.487	0.6378	0.638101	4.48974	9	2.12409	11	0	37.4068	0.00286491
2	1	0	0	0	0	839.988	0.650302	0.650517	5.22694	9	2.13623	11	0	39.9074	0.00340021
2	1	0	0	0	0	842.488	0.662804	0.663102	5.99679	9	2.15028	11	0	42.4078	0.00397648
2	1	0	0	0	0	844.988	0.675307	0.67564	6.79145	9	2.16627	11	0	44.9082	0.00458858
2	1	0	1	0	0	847.489	0.687809	0.68811	7.5933	9	2.18427	11	0	47.4088	0.00522502
2	1	0	1	0	0	849.922	0.699986	0.700194	8.39124	9	2.2037	11	0	49.8418	0.00587549
2	1	0	1	0	0	852.287	0.688159	0.688369	7.56058	9	2.22253	11	0	52.2072	0.00520447
2	1	0	0	0	0	854.788	0.675657	0.675915	6.73574	9	2.2404	11	0	54.7078	0.00455279
2	1	0	0	0	0	857.288	0.663154	0.663438	5.94096	9	2.25624	11	0	57.2082	0.00394146
2	1	0	0	0	0	859.789	0.650652	0.650975	5.16273	9	2.27012	11	0	59.7086	0.00336081
2	1	0	1	0	0	862.289	0.63815	0.638419	4.41327	9	2.28208	11	0	62.2092	0.00281752
2	1	0	1	0	0	864.79	0.625647	0.625872	3.7089	9	2.29222	11	0	64.7096	0.0023213
2	1	0	1	0	0	867.29	0.613145	0.613409	3.04308	9	2.30066	11	0	67.21	0.00186665
2	1	0	0	0	0	869.791	0.600643	0.600898	2.41668	9	2.30747	11	0	69.7106	0.00145218
2	1	0	0	0	0	872.291	0.588141	0.588423	1.85044	9	2.3128	11	0	72.211	0.00108884
2	1	0	0	0	0	874.792	0.575638	0.575891	1.35427	9	2.31679	11	0	74.7114	0.000779914
2	1	0	1	0	0	877.292	0.563136	0.563428	0.939981	9	2.31964	11	0	77.2119	0.000529612
2	1	0	1	0	0	879.793	0.550634	0.550919	0.614899	9	2.32156	11	0	79.7124	0.00033876
2	1	0	1	0	0	882.293	0.538131	0.538411	0.375451	9	2.32278	11	0	82.2128	0.000202147
2	1	0	1	0	0	884.793	0.525629	0.525922	0.210324	9	2.3235	11	0	84.7133	0.000110614
2	1	0	0	0	0	887.294	0.513127	0.513407	0.103733	9	2.32387	11	0	87.2138	5.32571e-05
2	1	0	0	0	0	889.794	0.500624	0.50093	0.0367083	9	2.32404	11	0	89.7142	1.83883e-05
2	0	0	0	0	0	892.295	0.488122	0.488391	-0.00492704	9	2.32407	11	0	0.2	-2.40632e-06
2	0	0	1	0	0	894.795	0.47562	0.475894	-0.0304052	9	2.32403	11	0	2.7006	-1.44697e-05
2	0	0	1	0	0	897.296	0.463118	0.463408	-0.0439831	9	2.32394	11	0	5.201	-2.03821e-05
2	0	0	1	0	0	899.796	0.450615	0.450883	-0.050623	9	2.32382	11	0	7.7014	-2.2825e-05
2	1	0	1	0	1	902.17	0.461267	0.461554	0.0679376	10	2.32393	11	0	2.1004	3.13569e-05
2	1	0	1	0	1	904.67	0.473769	0.474048	0.0781749	10	2.32411	11	0	4.6008	3.70586e-05
2	1	0	1	0	1	907.171	0.486272	0.486543	0.0953165	10	2.32433	11	0	7.1012	4.63755e-05
2	1	0	0	0	1	909.671	0.498774	0.499075	0.127086	10	2.32461	11	0	9.6018	6.34254e-05
2	1	0	0	0	1	912.172	0.511276	0.511492	0.183579	10	2.325	11	0	12.1022	9.38992e-05
2	1	0	0	0	1	914.672	0.523779	0.524111	0.277032	10	2.32556	11	0	14.6026	0.000145196
2	1	0	1	0	1	917.173	0.536281	0.53661	0.424437	10	2.32642	11	0	17.1031	0.000227757
2	1	0	1	0	1	919.673	0.548783	0.549021	0.64473	10	2.32774	11	0	19.6036	0.00035397
2	1	0	1	0	1	922.174	0.561286	0.561504	0.9512	10	2.32971	11	0	22.104	0.000534102
2	1	0	1	0	1	924.674	0.573788	0.574088	1.3469	10	2.33257	11	0	24.6044	0.00077324
2	1	0	0	0	1	927.175	0.58629	0.586541	1.82754	10	2.33652	11	0	27.105	0.00107193
2	1	0	0	0	1	929.675	0.598793	0.599155	2.37998	10	2.34177	11	0	29.6054	0.00142598
2	1	0	0	0	1	932.175	0.611295	0.611492	2.99301	10	2.34848	11	0	32.1058	0.0018302
2	1	0	1	0	1	934.676	0.623797	0.624096	3.66561	10	2.35681	11	0	34.6064	0.00228769
2	1	0	1	0	1	937.176	0.636299	0.636605	4.37396	10	2.36687	11	0	37.1068	0.00278448
2	1	0	1	0	1	939.677	0.648802	0.649028	5.1111	10	2.37871	11	0	39.6072	0.00331724
2	1	0	0	0	1	942.177	0.661304	0.661579	5.87681	10	2.39245	11	0	42.1078	0.00388797
2	1	0	0	0	1	944.678	0.673806	0.674062	6.68126	10	2.40813	11	0	44.6082	0.00450358
2	1	0	0	0	1	947.178	0.686309	0.686526	7.49908	10	2.42587	11	0	47.1086	0.00514831
2	1	0	1	0	1	949.679	0.698811	0.699083	8.32794	10	2.44565	11	0	49.6092	0.00582192
2	1	0	1	0	1	951.977	0.689659	0.689898	7.66617	10	2.46418	11	0	51.9072	0.00528887
2	1	0	1	0	1	954.477	0.677157	0.677405	6.82798	10	2.48229	11	0	54.4076	0.00462531
2	1	0	0	0	1	956.978	0.664655	0.664933	6.02001	10	2.49834	11	0	56.9082	0.0040029
2	1	0	0	0	1	959.478	0.652152	0.652316	5.24348	10	2.51242	11	0	59.4086	0.00342041
2	1	0	0	0	1	961.979	0.63965	0.639914	4.4953	10	2.52458	11	0	61.909	0.0028766
2	1	0	1	0	1	964.479	0.627148	0.627396	3.78009	10	2.53493	11	0	64.4096	0.00237161
2	1	0	1	0	1	966.98	0.614645	0.614906	3.10435	10	2.54353	11	0	66.91	0.00190888
2	1	0	1	0	1	969.48	0.602143	0.602416	2.47827	10	2.5505	11	0	69.4104	0.00149295
2	1	0	0	0	1	971.981	0.589641	0.589889	1.90378	10	2.55596	11	0	71.911	0.00112302
2	1	0	0	0	1	974.481	0.577139	0.577373	1.39996	10	2.56007	11	0	74.4114	0.000808299
2	1	0	0	0	1	976.981	0.564636	0.564888	0.976155	10	2.56302	11	0	76.9118	0.000551418
2	1	0	1	0	1	979.482	0.552134	0.552414	0.64069	10	2.56501	11	0	79.4124	0.000353926
2	1	0	1	0	1	981.982	0.539632	0.539943	0.390966	10	2.56628	11	0	81.9128	0.000211099
2	1	0	1	0	1	984.483	0.527129	0.527438	0.218087	10	2.56703	11	0	84.4132	0.000115027
2	1	0	1	0	1	986.983	0.514627	0.51484	0.106004	10	2.56743	11	0	86.9137	5.45749e-05
2	1	0	0	0	1	989.484	0.502125	0.502332	0.0379784	10	2.5676	11	0	89.4142	1.90777e-05
2	1	0	0	0	1	991.984	0.489622	0.489878	-0.00211133	10	2.56765	11	0	0.000000000000000E+000	-1.0343e-06
2	0	0	0	0	1	994.485	0.47712	0.477445	-0.0252167	10	2.56761	11	0	2.5004	-1.20396e-05
2	0	0	1	0	1	996.985	0.464618	0.464931	-0.0395838	10	2.56752	11	0	5.001	-1.84037e-05
2	0	0	1	0	1	999.486	0.452115	0.452384	-0.0489375	10	2.5674	11	0	7.5014	-2.21385e-05
2	1	0	0	0	0	1001.86	0.459767	0.46009	0.0628052	11	2.56748	11	0	1.8002	2.88961e-05
2	1	0	1	0	0	1004.36	0.472269	0.472624	0.0736543	11	2.56766	11	0	4.3008	3.48108e-05
2	1	0	1	0	0	1006.86	0.484771	0.485031	0.0909976	11	2.56786	11	0	6.8012	4.41366e-05
2	1	0	1	0	0	1009.36	0.497274	0.49751	0.121216	11	2.56813	11	0	9.3016	6.03063e-05
2	1	0	0	0	0	1011.86	0.509776	0.510087	0.17355	11	2.5685	11	0	11.8022	8.85257e-05
2	1	0	0	0	0	1014.36	0.522278	0.522577	0.259562	11	2.56903	11	0	14.3026	0.000135641
2	1	0	0	0	0	1016.86	0.534781	0.535071	0.39636	11	2.56983	11	0	16.803	0.000212081
2	1	0	1	0	0	1019.36	0.547283	0.547608	0.602601	11	2.57106	11	0	19.3035	0.000329989
2	1	0	1	0	0	1021.86	0.559785	0.560067	0.892902	11	2.57291	11	0	21.804	0.000500085
2	1	0	1	0	0	1024.36	0.572288	0.572532	1.27403	11	2.5756	11	0	24.3044	0.000729421
2	1	0	1	0	0	1026.86	0.58479	0.585075	1.74326	11	2.57937	11	0	26.8049	0.00101994
2	1	0	0	0	0	1029.36	0.597292	0.59758	2.28464	11	2.58439	11	0	29.3054	0.00136525
2	1	0	0	0	0	1031.86	0.609795	0.61006	2.8927	11	2.59086	11	0	31.8058	0.00176472
2	1	0	1	0	0	1034.37	0.622297	0.622533	3.55424	11	2.59892	11	0	34.3063	0.00221263
2	1	0	1	0	0	1036.87	0.634799	0.635098	4.26102	11	2.60869	11	0	36.8068	0.00270617
2	1	0	1	0	0	1039.37	0.647301	0.647567	4.99609	11	2.62026	11	0	39.3072	0.0032353
2	1	0	1	0	0	1041.87	0.659804	0.660084	5.75461	11	2.6337	11	0	41.8076	0.00379852
2	1	0	0	0	0	1044.37	0.672306	0.672594	6.53741	11	2.64906	11	0	44.3082	0.00439702
2	1	0	0	0	0	1046.87	0.684808	0.685066	7.34352	11	2.66641	11	0	46.8086	0.00503079
2	1	0	0	0	0	1049.37	0.697311	0.697568	8.15614	11	2.68578	11	0	49.309	0.00568946
2	1	0	1	0	0	1051.67	0.69116	0.691447	7.71663	11	2.70433	11	0	51.6072	0.00533563
2	1	0	1	0	0	1054.17	0.678657	0.678961	6.89457	11	2.72259	11	0	54.1076	0.00468115
2	1	0	1	0	0	1056.67	0.666155	0.666464	6.08614	11	2.73881	11	0	56.608	0.00405619
2	1	0	0	0	0	1059.17	0.653653	0.653842	5.30239	11	2.75304	11	0	59.1086	0.00346692
2	1	0	0	0	0	1061.67	0.64115	0.641342	4.54979	11	2.76535	11	0	61.609	0.00291797
2	1	0	0	0	0	1064.17	0.628648	0.628922	3.83228	11	2.7758	11	0	64.1094	0.0024102
2	1	0	1	0	0	1066.67	0.616146	0.616417	3.15718	11	2.78452	11	0	66.61	0.00194614
2	1	0	1	0	0	1069.17	0.603643	0.603921	2.51665	11	2.79159	11	0	69.1104	0.00151985
2	1	0	1	0	0	1071.67	0.591141	0.591443	1.93792	11	2.79714	11	0	71.6108	0.00114617
2	1	0	0	0	0	1074.17	0.578639	0.578938	1.42856	11	2.80134	11	0	74.1114	0.000827049
2	1	0	0	0	0	1076.67	0.566136	0.566421	1.00042	11	2.80436	11	0	76.6118	0.000566661
2	1	0	0	0	0	1079.17	0.553634	0.553901	0.660293	11	2.80642	11	0	79.1122	0.000365737
2	1	0	1	0	0	1081.67	0.541132	0.541403	0.407603	11	2.80773	11	0	81.6128	0.000220677
2	1	0	1	0	0	1084.17	0.528629	0.528968	0.232778	11	2.80851	11	0	84.1132	0.000123132
2	1	0	1	0	0	1086.67	0.516127	0.516396	0.117228	11	2.80893	11	0	86.6136	6.0536e-05
2	1	0	1	0	0	1089.17	0.503625	0.503925	0.0438286	11	2.80913	11	0	89.1141	2.20863e-05
2	0	0	0	0	0	1091.67	0.491123	0.491387	-0.000881507	11	2.80918	11	0	91.6146	-4.33161e-07
2	0	0	0	0	0	1094.17	0.47862	0.478867	-0.0265816	11	2.80915	11	0	2.2004	-1.2729e-05
2	0	0	1	0	0	1096.67	0.466118	0.466444	-0.0412816	11	2.80906	11	0	4.7009	-1.92556e-05
2	0	0	1	0	0	1099.17	0.453616	0.453824	-0.0491883	11	2.80895	11	0	7.2014	-2.23228e-05
2	1	0	0	0	1	1101.55	0.458267	0.458494	0.0640253	12	2.80899	11	0	1.5002	2.93553e-05
2	1	0	0	0	1	1104.05	0.470769	0.471098	0.0746945	12	2.80916	11	0	4.0006	3.51885e-05
2	1	0	1	0	1	1106.55	0.483271	0.483532	0.0892317	12	2.80937	11	0	6.5012	4.31464e-05
2	1	0	1	0	1	1109.05	0.495774	0.496029	0.114691	12	2.80962	11	0	9.0016	5.689e-05
2	1	0	1	0	1	1111.55	0.508276	0.508548	0.160732	12	2.80997	11	0	11.502	8.17399e-05
2	1	0	0	0	1	1114.05	0.520778	0.521121	0.239465	12	2.81046	11	0	14.0026	0.00012479
2	1	0	0	0	1	1116.55	0.53328	0.533563	0.368013	12	2.81121	11	0	16.503	0.000196358
2	1	0	0	0	1	1119.05	0.545783	0.546065	0.564248	12	2.81236	11	0	19.0034	0.000308116
2	1	0	1	0	1	1121.55	0.558285	0.558566	0.84307	12	2.8141	11	0	21.504	0.00047091
2	1	0	1	0	1	1124.05	0.570787	0.570985	1.21131	12	2.81665	11	0	24.0044	0.000691639
2	1	0	1	0	1	1126.55	0.58329	0.583624	1.6666	12	2.82023	11	0	26.5048	0.00097267
2	1	0	1	0	1	1129.05	0.595792	0.595973	2.19716	12	2.82504	11	0	29.0053	0.00130945
2	1	0	0	0	1	1131.55	0.608294	0.608613	2.79637	12	2.83128	11	0	31.5058	0.00170191
2	1	0	0	0	1	1134.05	0.620797	0.621008	3.44912	12	2.83908	11	0	34.0062	0.00214193
2	1	0	1	0	1	1136.56	0.633299	0.633609	4.14471	12	2.84858	11	0	36.5067	0.00262612
2	1	0	1	0	1	1139.06	0.645801	0.646078	4.87741	12	2.85986	11	0	39.0072	0.00315119
2	1	0	1	0	1	1141.56	0.658304	0.658573	5.64437	12	2.87301	11	0	41.5076	0.00371723
2	1	0	1	0	1	1144.06	0.670806	0.671116	6.42673	12	2.88811	11	0	44.008	0.00431308
2	1	0	0	0	1	1146.56	0.683308	0.683604	7.2209	12	2.90517	11	0	46.5086	0.00493623
2	1	0	0	0	1	1149.06	0.69581	0.696059	8.04139	12	2.92425	11	0	49.009	0.00559728
2	1	0	1	0	1	1151.36	0.69266	0.692902	7.80658	12	2.94286	11	0	51.3072	0.0054092
2	1	0	1	0	1	1153.86	0.680158	0.680454	6.98148	12	2.96135	11	0	53.8076	0.00475058
2	1	0	1	0	1	1156.36	0.667655	0.667896	6.17053	12	2.97777	11	0	56.308	0.00412128
2	1	0	1	0	1	1158.86	0.655153	0.655463	5.38194	12	2.9922	11	0	58.8085	0.00352766
2	1	0	0	0	1	1161.36	0.642651	0.642928	4.61179	12	3.00468	11	0	61.309	0.00296505
2	1	0	0	0	1	1163.86	0.630148	0.630415	3.88551	12	3.0153	11	0	63.8094	0.00244948
2	1	0	0	0	1	1166.36	0.617646	0.617922	3.19804	12	3.02414	11	0	66.3098	0.00197614
2	1	0	1	0	1	1168.86	0.605144	0.605399	2.56011	12	3.03133	11	0	68.8104	0.00154989
2	1	0	1	0	1	1171.36	0.592641	0.592926	1.98714	12	3.037	11	0	71.3108	0.00117823
2	1	0	1	0	1	1173.86	0.580139	0.580424	1.47035	12	3.04131	11	0	73.8112	0.000853425
2	1	0	0	0	1	1176.36	0.567637	0.567932	1.03469	12	3.04442	11	0	76.3118	0.000587636
2	1	0	0	0	1	1178.86	0.555134	0.555428	0.687313	12	3.04655	11	0	78.8122	0.000381753
2	1	0	0	0	1	1181.36	0.542632	0.542879	0.426049	12	3.04792	11	0	81.3126	0.000231293
2	1	0	1	0	1	1183.86	0.53013	0.530367	0.243472	12	3.04873	11	0	83.8132	0.000129129
2	1	0	1	0	1	1186.36	0.517628	0.517907	0.122748	12	3.04918	11	0	86.3136	6.3572e-05
2	1	0	1	0	1	1188.86	0.505125	0.505417	0.0468948	12	3.04938	11	0	88.814	2.37014e-05
2	1	0	0	0	1	1191.36	0.492623	0.492822	0.00163547	12	3.04944	11	0	91.3146	8.05997e-07
2	0	0	0	0	1	1193.86	0.480121	0.480401	-0.0242935	12	3.04942	11	0	2.0004	-1.16706e-05
2	0	0	0	0	1	1196.36	0.467618	0.467935	-0.0392556	12	3.04934	11	0	4.5008	-1.83691e-05
2	0	0	1	0	1	1198.86	0.455116	0.45539	-0.0478954	12	3.04923	11	0	7.0013	-2.18111e-05
2	1	0	0	0	0	1201.24	0.456766	0.457058	0.0616253	13	3.04924	11	0	1.2002	2.81663e-05
2	1	0	0	0	0	1203.74	0.469269	0.469536	0.0720427	13	3.0494	11	0	3.7006	3.38267e-05
2	1	0	0	0	0	1206.24	0.481771	0.482093	0.0858544	13	3.0496	11	0	6.201	4.13898e-05
2	1	0	1	0	0	1208.74	0.494273	0.494544	0.109582	13	3.04984	11	0	8.7016	5.4193e-05
2	1	0	1	0	0	1211.24	0.506776	0.507075	0.151554	13	3.05017	11	0	11.202	7.68493e-05
2	1	0	1	0	0	1213.74	0.519278	0.519541	0.224336	13	3.05063	11	0	13.7024	0.000116552
2	1	0	0	0	0	1216.24	0.53178	0.532085	0.343109	13	3.05134	11	0	16.203	0.000182563
2	1	0	0	0	0	1218.74	0.544282	0.544594	0.527372	13	3.05241	11	0	18.7034	0.000287204
2	1	0	0	0	0	1221.24	0.556785	0.557098	0.791426	13	3.05403	11	0	21.2038	0.000440902
2	1	0	1	0	0	1223.74	0.569287	0.569553	1.14659	13	3.05644	11	0	23.7044	0.000653045
2	1	0	1	0	0	1226.24	0.581789	0.582062	1.58871	13	3.05984	11	0	26.2048	0.000924728
2	1	0	1	0	0	1228.74	0.594292	0.594558	2.11056	13	3.06445	11	0	28.7052	0.00125485
2	1	0	0	0	0	1231.24	0.606794	0.60706	2.69685	13	3.07045	11	0	31.2058	0.00163715
2	1	0	0	0	0	1233.74	0.619296	0.619564	3.34486	13	3.078	11	0	33.7062	0.00207236
2	1	0	0	0	0	1236.24	0.631799	0.63205	4.03783	13	3.08723	11	0	36.2066	0.00255211
2	1	0	1	0	0	1238.74	0.6443	0.644578	4.77425	13	3.09825	11	0	38.7071	0.00307738
2	1	0	1	0	0	1241.25	0.656803	0.657112	5.52948	13	3.11112	11	0	41.2076	0.00363349
2	1	0	1	0	0	1243.75	0.669305	0.669519	6.3099	13	3.12591	11	0	43.708	0.0042246
2	1	0	1	0	0	1246.25	0.681808	0.68213	7.0982	13	3.14268	11	0	46.2085	0.0048419
2	1	0	0	0	0	1248.75	0.69431	0.694532	7.91629	13	3.16147	11	0	48.709	0.00549812
2	1	0	0	0	0	1251.04	0.69416	0.694464	7.88904	13	3.18007	11	0	51.007	0.00547865
2	1	0	1	0	0	1253.55	0.681658	0.681923	7.04058	13	3.19872	11	0	53.5076	0.00480113
2	1	0	1	0	0	1256.05	0.669156	0.669432	6.22399	13	3.21528	11	0	56.008	0.00416654
2	1	0	1	0	0	1258.55	0.656653	0.656931	5.41795	13	3.22983	11	0	58.5084	0.00355922
2	1	0	1	0	0	1261.05	0.644151	0.644423	4.66807	13	3.24243	11	0	61.0089	0.00300821
2	1	0	0	0	0	1263.55	0.631649	0.631928	3.95074	13	3.2532	11	0	63.5094	0.00249659
2	1	0	0	0	0	1266.05	0.619146	0.619434	3.25902	13	3.2622	11	0	66.0098	0.00201875
2	1	0	1	0	0	1268.55	0.606644	0.606934	2.62203	13	3.26954	11	0	68.5103	0.0015914
2	1	0	1	0	0	1271.05	0.594142	0.594405	2.03274	13	3.27533	11	0	71.0108	0.00120827
2	1	0	1	0	0	1273.55	0.581639	0.582001	1.51392	13	3.27975	11	0	73.5112	0.000881102
2	1	0	1	0	0	1276.05	0.569137	0.569408	1.06828	13	3.28296	11	0	76.0116	0.000608289
2	1	0	0	0	0	1278.55	0.556635	0.556971	0.7109	13	3.28517	11	0	78.5122	0.000395951
2	1	0	0	0	0	1281.05	0.544132	0.544407	0.442085	13	3.2866	11	0	81.0126	0.000240674
2	1	0	0	0	0	1283.55	0.53163	0.531899	0.255459	13	3.28745	11	0	83.513	0.000135878
2	1	0	1	0	0	1286.05	0.519128	0.519411	0.132952	13	3.28792	11	0	86.0136	6.90567e-05
2	1	0	1	0	0	1288.55	0.506625	0.506937	0.0550607	13	3.28815	11	0	88.514	2.79123e-05
2	0	0	1	0	0	1291.05	0.494123	0.494394	0.00659074	13	3.28822	11	0	91.0144	3.25842e-06
2	0	0	0	0	0	1293.55	0.481621	0.481876	-0.0228261	13	3.2882	11	0	1.8004	-1.09994e-05
2	0	0	0	0	0	1296.05	0.469119	0.469456	-0.0390063	13	3.28812	11	0	4.3008	-1.83118e-05
2	0	0	0	0	0	1298.55	0.456616	0.456917	-0.0473501	13	3.28801	11	0	6.8012	-2.1635e-05
2	1	0	1	0	1	1300.93	0.455266	0.455565	0.0600309	14	3.28799	11	0	0.9001	2.7348e-05
2	1	0	0	0	1	1303.43	0.467768	0.468113	0.0700288	14	3.28815	11	0	3.4006	3.27813e-05
2	1	0	0	0	1	1305.93	0.480271	0.480562	0.0816205	14	3.28834	11	0	5.901	3.92237e-05
2	1	0	1	0	1	1308.43	0.492773	0.493057	0.103916	14	3.28858	11	0	8.4015	5.12368e-05
2	1	0	1	0	1	1310.93	0.505275	0.505598	0.143784	14	3.28889	11	0	10.902	7.26969e-05
2	1	0	1	0	1	1313.43	0.517778	0.518034	0.212143	14	3.28933	11	0	13.4024	0.000109897
2	1	0	1	0	1	1315.93	0.53028	0.530567	0.323537	14	3.28998	11	0	15.9028	0.000171658
2	1	0	0	0	1	1318.43	0.542782	0.543045	0.493881	14	3.29099	11	0	18.4034	0.0002682
2	1	0	0	0	1	1320.93	0.555284	0.55557	0.742945	14	3.29252	11	0	20.9038	0.000412758
2	1	0	0	0	1	1323.43	0.567787	0.568074	1.08194	14	3.29478	11	0	23.4042	0.000614619
2	1	0	1	0	1	1325.93	0.580289	0.580574	1.51253	14	3.29802	11	0	25.9048	0.000878133
2	1	0	1	0	1	1328.43	0.592791	0.593057	2.027	14	3.30243	11	0	28.4052	0.00120213
2	1	0	1	0	1	1330.93	0.605294	0.605541	2.60905	14	3.30822	11	0	30.9056	0.00157989
2	1	0	0	0	1	1333.43	0.617796	0.618098	3.24957	14	3.31553	11	0	33.4062	0.00200855
2	1	0	0	0	1	1335.93	0.630298	0.630594	3.93498	14	3.3245	11	0	35.9066	0.00248138
2	1	0	0	0	1	1338.43	0.642801	0.643082	4.65286	14	3.33524	11	0	38.407	0.00299217
2	1	0	1	0	1	1340.93	0.655302	0.655556	5.40209	14	3.34781	11	0	40.9075	0.00354137
2	1	0	1	0	1	1343.44	0.667805	0.668086	6.17698	14	3.36228	11	0	43.408	0.00412676
2	1	0	1	0	1	1345.94	0.680308	0.680617	6.97184	14	3.37872	11	0	45.9084	0.00474515
2	1	0	1	0	1	1348.44	0.69281	0.69309	7.79337	14	3.39719	11	0	48.4089	0.00540151
2	1	0	0	0	1	1350.73	0.69566	0.695929	7.96674	14	3.41573	11	0	50.707	0.00554429
2	1	0	0	0	1	1353.23	0.683158	0.683487	7.11761	14	3.43457	11	0	53.2074	0.00486479
2	1	0	1	0	1	1355.74	0.670656	0.670918	6.30261	14	3.45135	11	0	55.708	0.00422853
2	1	0	1	0	1	1358.24	0.658153	0.658417	5.5101	14	3.4661	11	0	58.2084	0.00362794
2	1	0	1	0	1	1360.74	0.645651	0.64592	4.74435	14	3.47891	11	0	60.7088	0.00306447
2	1	0	0	0	1	1363.24	0.633149	0.633446	4.01148	14	3.48984	11	0	63.2094	0.00254105
2	1	0	0	0	1	1365.74	0.620647	0.620972	3.30469	14	3.49898	11	0	65.7098	0.00205212
2	1	0	0	0	1	1368.24	0.608144	0.608395	2.65982	14	3.50643	11	0	68.2102	0.00161822
2	1	0	1	0	1	1370.74	0.595642	0.595893	2.07641	14	3.51233	11	0	70.7107	0.00123731
2	1	0	1	0	1	1373.24	0.58314	0.583431	1.55365	14	3.51686	11	0	73.2112	0.000906448
2	1	0	1	0	1	1375.74	0.570637	0.570876	1.10557	14	3.52016	11	0	75.7116	0.000631146
2	1	0	1	0	1	1378.24	0.558135	0.558454	0.738847	14	3.52244	11	0	78.212	0.000412612
2	1	0	0	0	1	1380.74	0.545633	0.545959	0.46095	14	3.52392	11	0	80.7126	0.00025166
2	1	0	0	0	1	1383.24	0.53313	0.533422	0.266335	14	3.52482	11	0	83.213	0.000142069
2	1	0	0	0	1	1385.74	0.520628	0.520885	0.139518	14	3.52532	11	0	85.7134	7.26726e-05
2	1	0	1	0	1	1388.24	0.508126	0.508413	0.0605125	14	3.52556	11	0	88.214	3.07654e-05
2	1	0	1	0	1	1390.74	0.495623	0.495901	0.0129182	14	3.52564	11	0	90.7144	6.40614e-06
2	0	0	1	0	1	1393.24	0.483121	0.48337	-0.0166057	14	3.52563	11	0	1.5002	-8.02672e-06
2	0	0	0	0	1	1395.74	0.470619	0.470921	-0.0356507	14	3.52556	11	0	4.0008	-1.67887e-05
2	0	0	0	0	1	1398.24	0.458117	0.45843	-0.0483647	14	3.52545	11	0	6.5012	-2.21718e-05
2	1	0	1	0	0	1400.62	0.453766	0.453959	0.0535286	15	3.5254	11	0	0.6	2.42998e-05
2	1	0	1	0	0	1403.12	0.466268	0.466535	0.0681511	15	3.52555	11	0	3.1005	3.17948e-05
2	1	0	0	0	0	1405.62	0.47877	0.479058	0.0828725	15	3.52574	11	0	5.601	3.97008e-05
2	1	0	0	0	0	1408.12	0.491273	0.491543	0.104169	15	3.52597	11	0	8.1014	5.12038e-05
2	1	0	1	0	0	1410.62	0.503775	0.504106	0.138553	15	3.52626	11	0	10.6019	6.98452e-05
2	1	0	1	0	0	1413.12	0.516277	0.516579	0.19797	15	3.52668	11	0	13.1024	0.000102267
2	1	0	1	0	0	1415.62	0.52878	0.529057	0.298312	15	3.52729	11	0	15.6028	0.000157824
2	1	0	1	0	0	1418.12	0.541282	0.541514	0.45895	15	3.52823	11	0	18.1033	0.000248528
2	1	0	0	0	0	1420.62	0.553784	0.554068	0.697903	15	3.52966	11	0	20.6038	0.000386686
2	1	0	0	0	0	1423.12	0.566287	0.566546	1.02618	15	3.5318	11	0	23.1042	0.000581379
2	1	0	0	0	0	1425.62	0.578789	0.579038	1.44381	15	3.53487	11	0	25.6046	0.000836021
2	1	0	1	0	0	1428.12	0.591291	0.591557	1.94482	15	3.53909	11	0	28.1052	0.00115047
2	1	0	1	0	0	1430.62	0.603793	0.604058	2.51349	15	3.54465	11	0	30.6056	0.00151829
2	1	0	1	0	0	1433.12	0.616296	0.616565	3.14064	15	3.55171	11	0	33.106	0.00193641
2	1	0	0	0	0	1435.62	0.628798	0.629089	3.81671	15	3.5604	11	0	35.6066	0.00240105
2	1	0	0	0	0	1438.12	0.6413	0.641582	4.52821	15	3.57083	11	0	38.107	0.00290522
2	1	0	0	0	0	1440.62	0.653803	0.654126	5.28171	15	3.5831	11	0	40.6074	0.00345491
2	1	0	1	0	0	1443.12	0.666305	0.666586	6.05392	15	3.59728	11	0	43.108	0.00403546
2	1	0	1	0	0	1445.62	0.678807	0.679046	6.85436	15	3.61343	11	0	45.6084	0.00465443
2	1	0	1	0	0	1448.13	0.69131	0.691558	7.65913	15	3.63156	11	0	48.1088	0.00529673
2	1	0	0	0	0	1450.42	0.697161	0.697401	8.03218	15	3.64993	11	0	50.407	0.00560165
2	1	0	0	0	0	1452.92	0.684658	0.68487	7.19013	15	3.66895	11	0	52.9074	0.0049243
2	1	0	0	0	0	1455.42	0.672156	0.672422	6.36368	15	3.68589	11	0	55.4078	0.00427908
2	1	0	1	0	0	1457.92	0.659654	0.659905	5.57133	15	3.7008	11	0	57.9084	0.00367655
2	1	0	1	0	0	1460.43	0.647151	0.64743	4.81377	15	3.71377	11	0	60.4088	0.00311658
2	1	0	1	0	0	1462.93	0.634649	0.634893	4.07568	15	3.72487	11	0	62.9092	0.00258762
2	1	0	0	0	0	1465.43	0.622147	0.622431	3.37382	15	3.73417	11	0	65.4098	0.00209997
2	1	0	0	0	0	1467.93	0.609644	0.609948	2.72045	15	3.74177	11	0	67.9102	0.00165933
2	1	0	0	0	0	1470.43	0.597142	0.597441	2.12491	15	3.74782	11	0	70.4106	0.00126951
2	1	0	1	0	0	1472.93	0.58464	0.584915	1.59121	15	3.75245	11	0	72.9111	0.000930721
2	1	0	1	0	0	1475.43	0.572138	0.572426	1.13632	15	3.75584	11	0	75.4116	0.000650459
2	1	0	1	0	0	1477.93	0.559635	0.559895	0.767787	15	3.7582	11	0	77.912	0.000429881
2	1	0	1	0	0	1480.43	0.547133	0.547424	0.485232	15	3.75974	11	0	80.4125	0.000265628
2	1	0	0	0	0	1482.93	0.534631	0.534848	0.283781	15	3.76068	11	0	82.913	0.00015178
2	1	0	0	0	0	1485.43	0.522128	0.522395	0.14798	15	3.76121	11	0	85.4134	7.73038e-05
2	1	0	0	0	0	1487.93	0.509626	0.509907	0.0625449	15	3.76147	11	0	87.9138	3.18921e-05
2	1	0	1	0	0	1490.43	0.497124	0.497447	0.0128702	15	3.76156	11	0	90.4144	6.40225e-06
2	0	0	1	0	0	1492.93	0.484621	0.484898	-0.0151437	15	3.76155	11	0	1.3002	-7.34313e-06
2	0	0	1	0	0	1495.43	0.472119	0.47238	-0.0325453	15	3.76149	11	0	3.8006	-1.53737e-05
2	0	0	0	0	0	1497.93	0.459617	0.459896	-0.0461632	15	3.76139	11	0	6.3012	-2.12303e-05
2	0	0	1	0	0	1499.85	0.44999	0.450176	-0.0566339	15	3.76129	11	0	8.2196	-2.54952e-05