File: ACS_Catal_2026/Figures_Na_K/main_figures/data/EC/20240126_2-102_Add_Na/20240125_2-102_004_K_elctrode2_C02.mpt
EC-Lab ASCII FILE
Nb header lines : 66

Cyclic Voltammetry Advanced

Run on channel : 2 (SN 66414)
User :
CE vs. WE compliance from -10 V to 10 V
Electrode connection : standard
Potential control : Ewe
Ewe ctrl range : min = -1.00 V, max = 1.00 V
Safety Limits :
	Do not start on E overload
Acquisition started on : 01/26/2024 15:53:38.332
Loaded Setting File :  C:\Users\NakamuraT\Documents\EC-Lab\Data\Yatsuzuka\20240126_2-102_Add_Na\20240125_2-102_003_K_elctrode1_C01.mpr
Saved on :
	File : 20240125_2-102_004_K_elctrode2_C02.mpr
	Directory : C:\Users\NakamuraT\Documents\EC-Lab\Data\Yatsuzuka\20240126_2-102_Add_Na\
	Host : 192.109.209.100
Device : SP-150e (SN .003411)
Address : 192.109.209.236
EC-Lab for windows v11.50 (software)
Internet server v11.50 (firmware)
Command interpretor v11.50 (firmware)
Electrode material :
Initial state :
Electrolyte :
Comments :
Electrode surface area : 0.001 cm2
Characteristic mass : 0.001 g
Equivalent Weight : 0.000 g/eq.
Density : 0.000 g/cm3
Volume (V) : 0.001 cm3
Cycle Definition : Charge/Discharge alternance
Ei (V)              0.450
vs.                 Ref
ti (h:m:s)          0:00:10.0000
dti (s)             0.0000
dE/dt               5.000
dE/dt unit          mV/s
E1 (V)              0.700
vs.                 Ref
t1 (h:m:s)          0:00:0.0000
dt1 (s)             0.1000
Step percent        50
N                   10
E range min (V)     -1.000
E range max (V)     1.000
I Range             10 mA
I Range min         Unset
I Range max         Unset
I Range init        Unset
Bandwidth           5
E2 (V)              0.450
vs.                 Ref
t2 (h:m:s)          0:00:0.0000
dt2 (s)             0.1000
nc cycles           14
nr                  1
Reverse Scan        0
Ef (V)              0.000
vs.                 Eoc
tf (h:m:s)          0:00:0.0000
dtf (s)             0.1000

mode	ox/red	error	control changes	Ns changes	counter inc.	time/s	control/V	Ewe/V	<I>/mA	cycle number	(Q-Qo)/C	I Range	Ns	step time/s	P/W
2	1	0	1	0	0	0.000000000000000E+000	0.449961	0.450293	0.0044244	1	0.0000000E+000	11	0	0.000000000000000E+000	1.99228e-06
2	1	0	0	0	0	2.4552	0.462238	0.462513	0.0826492	1	0.000182198	11	0	2.4002	3.82264e-05
2	1	0	0	0	0	4.9556	0.474739	0.474971	0.0927547	1	0.000397653	11	0	4.9006	4.40558e-05
2	1	0	1	0	0	7.4558	0.487241	0.487518	0.106383	1	0.000641769	11	0	7.4008	5.18637e-05
2	1	0	1	0	0	9.9562	0.499743	0.499977	0.126073	1	0.000930638	11	0	9.9012	6.30338e-05
2	1	0	1	0	0	12.4566	0.512244	0.512442	0.158654	1	0.00128761	11	0	12.4016	8.13011e-05
2	1	0	0	0	0	14.9568	0.524746	0.525064	0.212834	1	0.00174992	11	0	14.9018	0.000111752
2	1	0	0	0	0	17.4572	0.537247	0.537619	0.29616	1	0.0023766	11	0	17.4022	0.000159221
2	1	0	1	0	0	19.9575	0.549749	0.550052	0.419398	1	0.00325796	11	0	19.9025	0.000230691
2	1	0	1	0	0	22.4578	0.562251	0.562573	0.600914	1	0.00452238	11	0	22.4028	0.000338058
2	1	0	1	0	0	24.9582	0.574752	0.57505	0.857702	1	0.00633541	11	0	24.9032	0.000493222
2	1	0	0	0	0	27.4584	0.587254	0.587495	1.19534	1	0.00888887	11	0	27.4034	0.000702257
2	1	0	0	0	0	29.9588	0.599755	0.60007	1.60871	1	0.0123769	11	0	29.9038	0.000965337
2	1	0	0	0	0	32.4592	0.612257	0.612572	2.09072	1	0.0169885	11	0	32.4042	0.00128072
2	1	0	1	0	0	34.9594	0.624759	0.625093	2.63001	1	0.0228819	11	0	34.9044	0.001644
2	1	0	1	0	0	37.4598	0.63726	0.637516	3.22605	1	0.0302001	11	0	37.4048	0.00205666
2	1	0	0	0	0	39.96	0.649762	0.65001	3.85901	1	0.0390522	11	0	39.905	0.0025084
2	1	0	0	0	0	42.4604	0.662264	0.66253	4.53448	1	0.0495457	11	0	42.4054	0.00300423
2	1	0	0	0	0	44.9608	0.674765	0.67512	5.22188	1	0.0617412	11	0	44.9058	0.00352539
2	1	0	1	0	0	47.461	0.687267	0.687653	5.93694	1	0.0756898	11	0	47.406	0.00408255
2	1	0	1	0	0	49.9564	0.699743	0.700006	6.68373	1	0.0914381	11	0	49.9014	0.00467866
2	1	0	0	0	0	52.268	0.688667	0.688917	5.93712	1	0.10604	11	0	52.213	0.00409019
2	1	0	1	0	0	54.7682	0.676165	0.67644	5.14136	1	0.119873	11	0	54.7132	0.00347782
2	1	0	1	0	0	57.2686	0.663664	0.663916	4.40614	1	0.131792	11	0	57.2136	0.0029253
2	1	0	0	0	0	59.7688	0.651162	0.651498	3.69998	1	0.141916	11	0	59.7138	0.00241053
2	1	0	0	0	0	62.2692	0.63866	0.638953	3.04657	1	0.15034	11	0	62.2142	0.00194662
2	1	0	0	0	0	64.7696	0.626159	0.626421	2.43923	1	0.157184	11	0	64.7146	0.00152798
2	1	0	1	0	0	67.2698	0.613657	0.613947	1.88726	1	0.162573	11	0	67.2148	0.00115868
2	1	0	1	0	0	69.7702	0.601156	0.60139	1.39638	1	0.166661	11	0	69.7152	0.00083977
2	1	0	1	0	0	72.2705	0.588654	0.588996	0.983619	1	0.16962	11	0	72.2155	0.000579348
2	1	0	0	0	0	74.7708	0.576152	0.576436	0.655516	1	0.171653	11	0	74.7158	0.000377863
2	1	0	0	0	0	77.2712	0.563651	0.564001	0.408773	1	0.172964	11	0	77.2162	0.000230548
2	1	0	1	0	0	79.7714	0.551149	0.551424	0.232182	1	0.173748	11	0	79.7164	0.000128031
2	1	0	1	0	0	82.2718	0.538647	0.539	0.114876	1	0.174171	11	0	82.2168	6.19181e-05
2	1	0	1	0	0	84.7722	0.526146	0.526531	0.0423882	1	0.174364	11	0	84.7172	2.23187e-05
2	1	0	0	0	0	87.2724	0.513644	0.51389	0.000929878	1	0.174416	11	0	87.2174	4.77855e-07
2	0	0	0	0	0	89.7728	0.501143	0.501411	-0.0226351	1	0.174383	11	0	2.4004	-1.13495e-05
2	0	0	1	0	0	92.273	0.488641	0.488893	-0.0397684	1	0.174301	11	0	4.9006	-1.94425e-05
2	0	0	1	0	0	94.7734	0.476139	0.476371	-0.0513749	1	0.174188	11	0	7.401	-2.44735e-05
2	0	0	1	0	0	97.2738	0.463638	0.463968	-0.0561403	1	0.174057	11	0	9.9014	-2.60473e-05
2	0	0	0	0	0	99.774	0.451136	0.451505	-0.0579933	1	0.173913	11	0	12.4016	-2.61843e-05
2	1	0	0	0	1	102.152	0.460787	0.461159	0.0636965	2	0.174008	11	0	1.9002	2.93742e-05
2	1	0	0	0	1	104.652	0.473289	0.473596	0.0673612	2	0.174169	11	0	4.4006	3.1902e-05
2	1	0	1	0	1	107.152	0.485791	0.486226	0.0714498	2	0.174341	11	0	6.9008	3.47407e-05
2	1	0	1	0	1	109.653	0.498292	0.498513	0.0802016	2	0.174533	11	0	9.4012	3.99816e-05
2	1	0	0	0	1	112.153	0.510794	0.51106	0.0982275	2	0.174759	11	0	11.9014	5.02002e-05
2	1	0	0	0	1	114.653	0.523296	0.52363	0.131922	2	0.175046	11	0	14.4018	6.90782e-05
2	1	0	0	0	1	117.154	0.535797	0.536109	0.189837	2	0.175443	11	0	16.9022	0.000101773
2	1	0	1	0	1	119.654	0.548299	0.548641	0.285449	2	0.176025	11	0	19.4024	0.000156609
2	1	0	1	0	1	122.154	0.5608	0.561152	0.434548	2	0.176908	11	0	21.9028	0.000243848
2	1	0	1	0	1	124.655	0.573302	0.57368	0.653332	2	0.17825	11	0	24.4032	0.000374803
2	1	0	0	0	1	127.155	0.585804	0.586113	0.952907	2	0.180244	11	0	26.9034	0.000558512
2	1	0	0	0	1	129.655	0.598305	0.598571	1.3376	2	0.183096	11	0	29.4038	0.00080065
2	1	0	1	0	1	132.156	0.610807	0.611144	1.80252	2	0.18701	11	0	31.904	0.0011016
2	1	0	1	0	1	134.656	0.623308	0.623567	2.32894	2	0.192163	11	0	34.4044	0.00145225
2	1	0	1	0	1	137.156	0.63581	0.636119	2.91165	2	0.19871	11	0	36.9048	0.00185216
2	1	0	0	0	1	139.657	0.648312	0.648697	3.54377	2	0.206773	11	0	39.405	0.00229883
2	1	0	0	0	1	142.157	0.660813	0.661089	4.21126	2	0.216466	11	0	41.9054	0.00278402
2	1	0	1	0	1	144.657	0.673315	0.673599	4.90289	2	0.227859	11	0	44.4056	0.00330258
2	1	0	1	0	1	147.158	0.685817	0.686148	5.62901	2	0.241027	11	0	46.906	0.00386233
2	1	0	1	0	1	149.658	0.698318	0.698525	6.36022	2	0.256019	11	0	49.4064	0.00444277
2	1	0	1	0	1	151.954	0.690167	0.690522	5.81281	2	0.270186	11	0	51.7028	0.00401388
2	1	0	1	0	1	154.455	0.677665	0.677868	5.03411	2	0.283737	11	0	54.2032	0.00341246
2	1	0	1	0	1	156.955	0.665164	0.665561	4.30607	2	0.295395	11	0	56.7036	0.00286596
2	1	0	0	0	1	159.455	0.652662	0.652966	3.611	2	0.305284	11	0	59.2038	0.00235786
2	1	0	0	0	1	161.956	0.640161	0.64048	2.95811	2	0.313479	11	0	61.7042	0.00189461
2	1	0	1	0	1	164.456	0.627659	0.627916	2.35771	2	0.320108	11	0	64.2044	0.00148045
2	1	0	1	0	1	166.956	0.615157	0.615388	1.82421	2	0.325322	11	0	66.7048	0.0011226
2	1	0	1	0	1	169.457	0.602656	0.602883	1.34594	2	0.329267	11	0	69.2052	0.000811443
2	1	0	0	0	1	171.957	0.590154	0.590453	0.942607	2	0.332111	11	0	71.7054	0.000556565
2	1	0	0	0	1	174.457	0.577653	0.577907	0.624863	2	0.334052	11	0	74.2058	0.000361113
2	1	0	1	0	1	176.958	0.565151	0.565481	0.384988	2	0.335294	11	0	76.7062	0.000217704
2	1	0	1	0	1	179.458	0.552649	0.552902	0.215124	2	0.33603	11	0	79.2064	0.000118942
2	1	0	1	0	1	181.958	0.540148	0.540452	0.105376	2	0.336423	11	0	81.7068	5.69509e-05
2	1	0	0	0	1	184.459	0.527646	0.52792	0.0387543	2	0.336599	11	0	84.207	2.04592e-05
2	1	0	0	0	1	186.959	0.515144	0.515423	-0.00094751	2	0.336641	11	0	0.1	-4.88368e-07
2	0	0	0	0	1	189.459	0.502643	0.502925	-0.0243775	2	0.336602	11	0	2.6004	-1.226e-05
2	0	0	1	0	1	191.96	0.490141	0.490488	-0.0390029	2	0.336517	11	0	5.1006	-1.91305e-05
2	0	0	1	0	1	194.46	0.47764	0.477949	-0.0482839	2	0.336402	11	0	7.601	-2.30773e-05
2	0	0	1	0	1	196.96	0.465138	0.465424	-0.0550776	2	0.33627	11	0	10.1013	-2.56345e-05
2	0	0	0	0	1	199.461	0.452636	0.452944	-0.0611688	2	0.336125	11	0	12.6016	-2.7706e-05
2	1	0	0	0	0	201.838	0.459287	0.459546	0.0565658	3	0.33618	11	0	1.6002	2.59946e-05
2	1	0	1	0	0	204.339	0.471789	0.472064	0.0609395	3	0.336332	11	0	4.1004	2.87673e-05
2	1	0	1	0	0	206.839	0.48429	0.484498	0.0671369	3	0.336495	11	0	6.6008	3.25277e-05
2	1	0	1	0	0	209.339	0.496792	0.497087	0.0767937	3	0.336674	11	0	9.1012	3.81732e-05
2	1	0	0	0	0	211.84	0.509294	0.509583	0.0929196	3	0.336881	11	0	11.6014	4.73503e-05
2	1	0	0	0	0	214.34	0.521795	0.522092	0.120554	3	0.337141	11	0	14.1018	6.294e-05
2	1	0	1	0	0	216.84	0.534297	0.53459	0.168255	3	0.337492	11	0	16.602	8.99474e-05
2	1	0	1	0	0	219.341	0.546799	0.547201	0.248816	3	0.338003	11	0	19.1024	0.000136152
2	1	0	1	0	0	221.841	0.5593	0.559588	0.378897	3	0.338775	11	0	21.6028	0.000212026
2	1	0	0	0	0	224.341	0.571802	0.572162	0.575417	3	0.339955	11	0	24.103	0.000329232
2	1	0	0	0	0	226.842	0.584303	0.584599	0.852217	3	0.341727	11	0	26.6034	0.000498205
2	1	0	0	0	0	229.342	0.596805	0.59713	1.21438	3	0.3443	11	0	29.1038	0.000725142
2	1	0	1	0	0	231.842	0.609307	0.609575	1.65732	3	0.347881	11	0	31.604	0.00101026
2	1	0	1	0	0	234.343	0.621808	0.622087	2.17044	3	0.352656	11	0	34.1044	0.0013502
2	1	0	0	0	0	236.843	0.63431	0.634517	2.74507	3	0.358792	11	0	36.6046	0.00174179
2	1	0	0	0	0	239.343	0.646811	0.64714	3.36785	3	0.366427	11	0	39.105	0.00217947
2	1	0	0	0	0	241.844	0.659313	0.659543	4.0241	3	0.375659	11	0	41.6054	0.00265407
2	1	0	1	0	0	244.344	0.671815	0.672037	4.71323	3	0.386576	11	0	44.1056	0.00316746
2	1	0	1	0	0	246.844	0.684316	0.684664	5.43373	3	0.399259	11	0	46.606	0.00372028
2	1	0	1	0	0	249.344	0.696818	0.697184	6.171	3	0.413766	11	0	49.1063	0.00430232
2	1	0	1	0	0	251.641	0.691667	0.692001	5.82148	3	0.427856	11	0	51.4028	0.00402847
2	1	0	1	0	0	254.141	0.679166	0.679474	5.05298	3	0.441451	11	0	53.9032	0.00343337
2	1	0	0	0	0	256.642	0.666664	0.666923	4.30933	3	0.453139	11	0	56.4034	0.002874
2	1	0	0	0	0	259.142	0.654162	0.654458	3.61376	3	0.46303	11	0	58.9038	0.00236506
2	1	0	0	0	0	261.642	0.641661	0.641886	2.9637	3	0.47123	11	0	61.4042	0.00190236
2	1	0	1	0	0	264.143	0.629159	0.629441	2.36839	3	0.477877	11	0	63.9044	0.00149076
2	1	0	1	0	0	266.643	0.616658	0.616936	1.82361	3	0.483101	11	0	66.4048	0.00112505
2	1	0	1	0	0	269.143	0.604156	0.604491	1.3479	3	0.487048	11	0	68.9051	0.000814796
2	1	0	0	0	0	271.644	0.591654	0.592023	0.947541	3	0.489902	11	0	71.4054	0.000560966
2	1	0	0	0	0	274.144	0.579153	0.579471	0.62595	3	0.491854	11	0	73.9058	0.00036272
2	1	0	1	0	0	276.644	0.566651	0.566904	0.383804	3	0.493103	11	0	76.406	0.00021758
2	1	0	1	0	0	279.145	0.55415	0.554454	0.215831	3	0.493843	11	0	78.9064	0.000119668
2	1	0	1	0	0	281.645	0.541648	0.542	0.105411	3	0.494239	11	0	81.4068	5.7133e-05
2	1	0	0	0	0	284.145	0.529146	0.529427	0.0370697	3	0.494414	11	0	83.907	1.96257e-05
2	0	0	0	0	0	286.646	0.516645	0.516927	-0.00364632	3	0.494456	11	0	0.000000000000000E+000	-1.88488e-06
2	0	0	1	0	0	289.146	0.504143	0.504406	-0.0276502	3	0.494419	11	0	2.5002	-1.39469e-05
2	0	0	1	0	0	291.646	0.491641	0.491997	-0.0417039	3	0.494335	11	0	5.0006	-2.05182e-05
2	0	0	1	0	0	294.147	0.47914	0.479366	-0.0506913	3	0.494223	11	0	7.501	-2.42997e-05
2	0	0	0	0	0	296.647	0.466638	0.466843	-0.0558778	3	0.494092	11	0	10.0012	-2.60862e-05
2	0	0	0	0	0	299.147	0.454137	0.454471	-0.0597196	3	0.493949	11	0	12.5016	-2.71408e-05
2	1	0	0	0	1	301.525	0.457787	0.458053	0.0553185	4	0.493968	11	0	1.3002	2.53388e-05
2	1	0	1	0	1	304.025	0.470289	0.470666	0.0601603	4	0.494116	11	0	3.8004	2.83154e-05
2	1	0	1	0	1	306.526	0.48279	0.483187	0.0643699	4	0.494273	11	0	6.3008	3.11027e-05
2	1	0	0	0	1	309.026	0.495292	0.495705	0.0715011	4	0.494445	11	0	8.801	3.54435e-05
2	1	0	0	0	1	311.526	0.507794	0.50803	0.0850718	4	0.494641	11	0	11.3014	4.32191e-05
2	1	0	0	0	1	314.027	0.520295	0.520597	0.108724	4	0.494882	11	0	13.8018	5.66011e-05
2	1	0	1	0	1	316.527	0.532797	0.53299	0.150953	4	0.495203	11	0	16.302	8.04565e-05
2	1	0	1	0	1	319.027	0.545298	0.545579	0.223363	4	0.495664	11	0	18.8024	0.000121862
2	1	0	1	0	1	321.527	0.5578	0.558052	0.340987	4	0.49636	11	0	21.3027	0.000190288
2	1	0	0	0	1	324.028	0.570302	0.570632	0.52193	4	0.497427	11	0	23.803	0.00029783
2	1	0	0	0	1	326.528	0.582803	0.583082	0.781049	4	0.499042	11	0	26.3034	0.000455416
2	1	0	1	0	1	329.028	0.595305	0.595628	1.12409	4	0.501408	11	0	28.8036	0.000669537
2	1	0	1	0	1	331.529	0.607807	0.608103	1.5484	4	0.504737	11	0	31.304	0.000941589
2	1	0	1	0	1	334.029	0.620308	0.620643	2.04875	4	0.509224	11	0	33.8044	0.00127154
2	1	0	0	0	1	336.529	0.63281	0.633121	2.60931	4	0.515043	11	0	36.3046	0.00165201
2	1	0	0	0	1	339.03	0.645311	0.645603	3.21987	4	0.522328	11	0	38.805	0.00207876
2	1	0	1	0	1	341.53	0.657813	0.658137	3.87272	4	0.531195	11	0	41.3053	0.00254878
2	1	0	1	0	1	344.03	0.670314	0.670573	4.56037	4	0.541739	11	0	43.8056	0.00305806
2	1	0	1	0	1	346.531	0.682816	0.683064	5.27874	4	0.554046	11	0	46.306	0.00360572
2	1	0	0	0	1	349.031	0.695318	0.695543	6.00917	4	0.568158	11	0	48.8062	0.00417964
2	1	0	1	0	1	351.328	0.693167	0.693468	5.82706	4	0.582146	11	0	51.1028	0.00404088
2	1	0	1	0	1	353.828	0.680666	0.68092	5.04639	4	0.595731	11	0	53.6032	0.00343619
2	1	0	0	0	1	356.328	0.668164	0.668609	4.2999	4	0.607404	11	0	56.1034	0.00287495
2	1	0	0	0	1	358.829	0.655663	0.655927	3.62047	4	0.6173	11	0	58.6038	0.00237476
2	1	0	1	0	1	361.329	0.643161	0.643518	2.97554	4	0.62553	11	0	61.104	0.00191481
2	1	0	1	0	1	363.829	0.630659	0.630966	2.38558	4	0.632222	11	0	63.6044	0.00150522
2	1	0	1	0	1	366.33	0.618158	0.618516	1.84577	4	0.637501	11	0	66.1048	0.00114164
2	1	0	0	0	1	368.83	0.605656	0.60594	1.36283	4	0.641495	11	0	68.605	0.000825796
2	1	0	0	0	1	371.33	0.593154	0.593471	0.957927	4	0.644379	11	0	71.1054	0.000568501
2	1	0	1	0	1	373.83	0.580653	0.580937	0.633394	4	0.646349	11	0	73.6057	0.000367962
2	1	0	1	0	1	376.331	0.568151	0.568423	0.390466	4	0.647609	11	0	76.106	0.00022195
2	1	0	1	0	1	378.831	0.55565	0.555932	0.222128	4	0.648358	11	0	78.6064	0.000123488
2	1	0	0	0	1	381.331	0.543148	0.543443	0.111688	4	0.64876	11	0	81.1066	6.0696e-05
2	1	0	0	0	1	383.832	0.530646	0.530874	0.0433394	4	0.648942	11	0	83.607	2.30078e-05
2	1	0	0	0	1	386.332	0.518145	0.51845	0.00187126	4	0.648988	11	0	86.1074	9.70156e-07
2	0	0	1	0	1	388.832	0.505643	0.505884	-0.0236063	4	0.648954	11	0	2.4002	-1.19421e-05
2	0	0	1	0	1	391.333	0.493142	0.493408	-0.0392168	4	0.648871	11	0	4.9006	-1.93499e-05
2	0	0	1	0	1	393.833	0.48064	0.48102	-0.0491013	4	0.64876	11	0	7.4009	-2.36187e-05
2	0	0	0	0	1	396.333	0.468138	0.468514	-0.0559259	4	0.648631	11	0	9.9012	-2.6202e-05
2	0	0	0	0	1	398.834	0.455637	0.455948	-0.0603975	4	0.64849	11	0	12.4016	-2.75381e-05
2	1	0	1	0	0	401.211	0.456287	0.456636	0.0536753	5	0.648473	11	0	1	2.45101e-05
2	1	0	1	0	0	403.712	0.468788	0.468934	0.0588277	5	0.648619	11	0	3.5004	2.75863e-05
2	1	0	1	0	0	406.212	0.48129	0.481566	0.0634859	5	0.648773	11	0	6.0008	3.05727e-05
2	1	0	0	0	0	408.712	0.493792	0.49398	0.0705913	5	0.64894	11	0	8.501	3.48707e-05
2	1	0	0	0	0	411.213	0.506293	0.506583	0.0829071	5	0.649128	11	0	11.0014	4.19993e-05
2	1	0	1	0	0	413.713	0.518795	0.519144	0.10465	5	0.649356	11	0	13.5017	5.43285e-05
2	1	0	1	0	0	416.213	0.531297	0.53159	0.142157	5	0.649656	11	0	16.002	7.5569e-05
2	1	0	1	0	0	418.714	0.543798	0.544104	0.205811	5	0.650081	11	0	18.5024	0.000111983
2	1	0	0	0	0	421.214	0.5563	0.556616	0.310725	5	0.650718	11	0	21.0026	0.000172954
2	1	0	0	0	0	423.714	0.568801	0.569069	0.476426	5	0.651692	11	0	23.503	0.000271119
2	1	0	0	0	0	426.215	0.581303	0.581632	0.719963	5	0.653175	11	0	26.0034	0.000418754
2	1	0	1	0	0	428.715	0.593805	0.594124	1.04744	5	0.655367	11	0	28.5036	0.000622309
2	1	0	1	0	0	431.215	0.606306	0.606598	1.45698	5	0.658479	11	0	31.004	0.000883799
2	1	0	0	0	0	433.716	0.618808	0.619094	1.93981	5	0.662715	11	0	33.5042	0.00120093
2	1	0	0	0	0	436.216	0.63131	0.631584	2.48855	5	0.668245	11	0	36.0046	0.00157173
2	1	0	0	0	0	438.716	0.643811	0.644145	3.09586	5	0.675218	11	0	38.505	0.00199419
2	1	0	1	0	0	441.217	0.656313	0.656558	3.74128	5	0.683756	11	0	41.0052	0.00245637
2	1	0	1	0	0	443.717	0.668814	0.669081	4.41694	5	0.69395	11	0	43.5056	0.00295529
2	1	0	1	0	0	446.217	0.681316	0.681713	5.12956	5	0.705889	11	0	46.006	0.00349689
2	1	0	0	0	0	448.718	0.693818	0.694144	5.85978	5	0.719626	11	0	48.5062	0.00406753
2	1	0	1	0	0	451.014	0.694668	0.695076	5.87353	5	0.733511	11	0	50.8028	0.00408255
2	1	0	0	0	0	453.514	0.682166	0.682454	5.09129	5	0.747194	11	0	53.303	0.00347457
2	1	0	0	0	0	456.015	0.669664	0.669974	4.37131	5	0.759005	11	0	55.8034	0.00292867
2	1	0	0	0	0	458.515	0.657163	0.657418	3.68926	5	0.769069	11	0	58.3038	0.00242538
2	1	0	1	0	0	461.015	0.644661	0.644891	3.03395	5	0.777458	11	0	60.804	0.00195656
2	1	0	1	0	0	463.516	0.63216	0.632475	2.42333	5	0.784271	11	0	63.3044	0.0015327
2	1	0	1	0	0	466.016	0.619658	0.619858	1.87173	5	0.789628	11	0	65.8047	0.00116021
2	1	0	0	0	0	468.516	0.607156	0.607465	1.38858	5	0.793687	11	0	68.305	0.000843515
2	1	0	0	0	0	471.017	0.594655	0.595001	0.979437	5	0.796625	11	0	70.8054	0.000582766
2	1	0	1	0	0	473.517	0.582153	0.582484	0.649337	5	0.798639	11	0	73.3056	0.000378228
2	1	0	1	0	0	476.017	0.569652	0.569901	0.399748	5	0.799935	11	0	75.806	0.000227817
2	1	0	1	0	0	478.518	0.55715	0.557535	0.227667	5	0.800708	11	0	78.3064	0.000126932
2	1	0	0	0	0	481.018	0.544648	0.54495	0.116436	5	0.801126	11	0	80.8066	6.34517e-05
2	1	0	0	0	0	483.518	0.532147	0.532521	0.0457923	5	0.801317	11	0	83.307	2.43854e-05
2	1	0	1	0	0	486.019	0.519645	0.519885	0.00165411	5	0.801369	11	0	85.8072	8.5995e-07
2	0	0	1	0	0	488.519	0.507143	0.507414	-0.0254195	5	0.801338	11	0	2.3002	-1.28982e-05
2	0	0	1	0	0	491.019	0.494642	0.49495	-0.0393651	5	0.80126	11	0	4.8006	-1.94838e-05
2	0	0	0	0	0	493.52	0.48214	0.482421	-0.0456568	5	0.801152	11	0	7.3008	-2.20258e-05
2	0	0	0	0	0	496.02	0.469639	0.469905	-0.0510944	5	0.801026	11	0	9.8012	-2.40095e-05
2	0	0	0	0	0	498.52	0.457137	0.45733	-0.0552449	5	0.800887	11	0	12.3016	-2.52651e-05
2	1	0	1	0	1	500.898	0.454787	0.455058	0.0551088	6	0.800837	11	0	0.7	2.50777e-05
2	1	0	1	0	1	503.398	0.467288	0.467562	0.0600779	6	0.800979	11	0	3.2004	2.80901e-05
2	1	0	0	0	1	505.899	0.47979	0.480069	0.0627745	6	0.801131	11	0	5.7006	3.0136e-05
2	1	0	0	0	1	508.399	0.492292	0.492593	0.0676951	6	0.801293	11	0	8.201	3.33462e-05
2	1	0	0	0	1	510.899	0.504793	0.50512	0.0768906	6	0.801475	11	0	10.7014	3.8839e-05
2	1	0	1	0	1	513.4	0.517295	0.51763	0.0950717	6	0.801692	11	0	13.2016	4.9212e-05
2	1	0	1	0	1	515.9	0.529796	0.530056	0.128985	6	0.801972	11	0	15.702	6.83692e-05
2	1	0	1	0	1	518.4	0.542298	0.542559	0.188369	6	0.802365	11	0	18.2024	0.000102201
2	1	0	0	0	1	520.901	0.5548	0.555109	0.287549	6	0.80295	11	0	20.7026	0.000159621
2	1	0	0	0	1	523.401	0.567301	0.567601	0.442532	6	0.803847	11	0	23.203	0.000251182
2	1	0	1	0	1	525.901	0.579803	0.58008	0.669819	6	0.805218	11	0	25.7032	0.000388549
2	1	0	1	0	1	528.402	0.592304	0.592656	0.978799	6	0.80726	11	0	28.2036	0.000580091
2	1	0	1	0	1	530.902	0.604806	0.605185	1.37122	6	0.810185	11	0	30.704	0.000829842
2	1	0	0	0	1	533.402	0.617308	0.61762	1.8404	6	0.81419	11	0	33.2042	0.00113667
2	1	0	0	0	1	535.903	0.629809	0.630139	2.38005	6	0.819461	11	0	35.7046	0.00149976
2	1	0	1	0	1	538.403	0.642311	0.642656	2.97386	6	0.82615	11	0	38.2048	0.00191117
2	1	0	1	0	1	540.903	0.654813	0.655123	3.6128	6	0.83438	11	0	40.7052	0.00236683
2	1	0	1	0	1	543.404	0.667314	0.66763	4.29232	6	0.84426	11	0	43.2056	0.00286568
2	1	0	0	0	1	545.904	0.679816	0.680097	4.99408	6	0.855866	11	0	45.7058	0.00339645
2	1	0	0	0	1	548.404	0.692317	0.692615	5.71148	6	0.869246	11	0	48.2062	0.00395586
2	1	0	1	0	1	550.701	0.696168	0.696453	5.90629	6	0.882945	11	0	50.5028	0.00411345
2	1	0	0	0	1	553.201	0.683666	0.683896	5.14511	6	0.896742	11	0	53.003	0.00351872
2	1	0	0	0	1	555.701	0.671165	0.671458	4.40979	6	0.90867	11	0	55.5034	0.00296099
2	1	0	1	0	1	558.202	0.658663	0.658949	3.72789	6	0.918837	11	0	58.0036	0.00245649
2	1	0	1	0	1	560.702	0.646161	0.64649	3.07299	6	0.927334	11	0	60.504	0.00198666
2	1	0	1	0	1	563.202	0.63366	0.634069	2.46317	6	0.934247	11	0	63.0044	0.00156182
2	1	0	0	0	1	565.703	0.621158	0.62152	1.90557	6	0.939698	11	0	65.5046	0.00118435
2	1	0	0	0	1	568.203	0.608657	0.608938	1.41472	6	0.943835	11	0	68.005	0.000861476
2	1	0	1	0	1	570.703	0.596154	0.596443	1.00108	6	0.946841	11	0	70.5054	0.000597087
2	1	0	1	0	1	573.204	0.583653	0.583945	0.666589	6	0.948907	11	0	73.0056	0.000389251
2	1	0	1	0	1	575.704	0.571152	0.571405	0.415294	6	0.95024	11	0	75.506	0.000237301
2	1	0	0	0	1	578.204	0.55865	0.558938	0.238406	6	0.951037	11	0	78.0062	0.000133254
2	1	0	0	0	1	580.705	0.546148	0.546483	0.121338	6	0.951471	11	0	80.5066	6.63093e-05
2	1	0	0	0	1	583.205	0.533647	0.533992	0.0474126	6	0.951673	11	0	83.007	2.5318e-05
2	1	0	1	0	1	585.705	0.521145	0.521431	0.00261797	6	0.951733	11	0	85.5072	1.36509e-06
2	0	0	1	0	1	588.206	0.508644	0.508968	-0.0238034	6	0.951708	11	0	2.1003	-1.21152e-05
2	0	0	1	0	1	590.706	0.496142	0.496433	-0.0386041	6	0.951632	11	0	4.6006	-1.91643e-05
2	0	0	0	0	1	593.206	0.48364	0.483978	-0.0463654	6	0.951526	11	0	7.1009	-2.24399e-05
2	0	0	0	0	1	595.707	0.471139	0.471449	-0.0511389	6	0.951401	11	0	9.6013	-2.41094e-05
2	0	0	1	0	1	598.207	0.458637	0.458937	-0.0556961	6	0.951262	11	0	12.1015	-2.5561e-05
2	1	0	1	0	0	600.585	0.453286	0.453525	0.049647	7	0.951178	11	0	0.4	2.25161e-05
2	1	0	1	0	0	603.085	0.465788	0.466141	0.0563838	7	0.951317	11	0	2.9004	2.62828e-05
2	1	0	0	0	0	605.585	0.47829	0.478548	0.0593958	7	0.951466	11	0	5.4006	2.84238e-05
2	1	0	0	0	0	608.086	0.490791	0.491108	0.0659809	7	0.951626	11	0	7.901	3.24037e-05
2	1	0	1	0	0	610.586	0.503293	0.503483	0.0763695	7	0.951802	11	0	10.4012	3.84507e-05
2	1	0	1	0	0	613.086	0.515795	0.516045	0.0940203	7	0.95201	11	0	12.9016	4.85186e-05
2	1	0	1	0	0	615.587	0.528296	0.528631	0.123989	7	0.952275	11	0	15.402	6.55442e-05
2	1	0	0	0	0	618.087	0.540798	0.541231	0.17514	7	0.952642	11	0	17.9022	9.47914e-05
2	1	0	0	0	0	620.587	0.553299	0.553663	0.262908	7	0.953184	11	0	20.4026	0.000145563
2	1	0	0	0	0	623.088	0.565801	0.566135	0.40514	7	0.954012	11	0	22.903	0.000229364
2	1	0	1	0	0	625.588	0.578303	0.57868	0.618286	7	0.95528	11	0	25.4032	0.00035779
2	1	0	1	0	0	628.088	0.590804	0.591131	0.914273	7	0.95718	11	0	27.9036	0.000540455
2	1	0	0	0	0	630.588	0.603306	0.603538	1.29419	7	0.959922	11	0	30.4038	0.000781091
2	1	0	0	0	0	633.089	0.615807	0.61607	1.75246	7	0.963714	11	0	32.9042	0.00107964
2	1	0	0	0	0	635.589	0.628309	0.628571	2.27889	7	0.96874	11	0	35.4046	0.00143244
2	1	0	1	0	0	638.089	0.640811	0.641085	2.86057	7	0.97516	11	0	37.9048	0.00183387
2	1	0	1	0	0	640.59	0.653312	0.653592	3.48868	7	0.983096	11	0	40.4052	0.00228017
2	1	0	1	0	0	643.09	0.665814	0.666143	4.16365	7	0.992664	11	0	42.9055	0.00277359
2	1	0	0	0	0	645.59	0.678316	0.678583	4.86612	7	1.00395	11	0	45.4058	0.00330207
2	1	0	0	0	0	648.091	0.690817	0.691061	5.57945	7	1.017	11	0	47.9062	0.00385574
2	1	0	0	0	0	650.387	0.697668	0.698027	5.96288	7	1.03052	11	0	50.2026	0.00416225
2	1	0	0	0	0	652.888	0.685166	0.685517	5.18497	7	1.04444	11	0	52.703	0.00355438
2	1	0	0	0	0	655.388	0.672665	0.673021	4.4355	7	1.05646	11	0	55.2034	0.00298519
2	1	0	1	0	0	657.888	0.660163	0.660424	3.73692	7	1.06667	11	0	57.7036	0.00246796
2	1	0	1	0	0	660.389	0.647662	0.64794	3.07512	7	1.07518	11	0	60.204	0.0019925
2	1	0	0	0	0	662.889	0.63516	0.635384	2.47299	7	1.0821	11	0	62.7042	0.00157129
2	1	0	0	0	0	665.389	0.622658	0.62294	1.9279	7	1.08758	11	0	65.2046	0.00120097
2	1	0	0	0	0	667.89	0.610157	0.610437	1.44016	7	1.09177	11	0	67.705	0.000879126
2	1	0	1	0	0	670.39	0.597655	0.597991	1.02148	7	1.09483	11	0	70.2052	0.000610833
2	1	0	1	0	0	672.89	0.585154	0.58555	0.683873	7	1.09694	11	0	72.7056	0.000400441
2	1	0	1	0	0	675.391	0.572652	0.572968	0.427431	7	1.09831	11	0	75.206	0.000244904
2	1	0	0	0	0	677.891	0.56015	0.560565	0.245959	7	1.09913	11	0	77.7062	0.000137876
2	1	0	0	0	0	680.391	0.547649	0.547935	0.124886	7	1.09959	11	0	80.2066	6.84296e-05
2	1	0	1	0	0	682.891	0.535147	0.535452	0.0493361	7	1.0998	11	0	82.7068	2.64171e-05
2	1	0	1	0	0	685.392	0.522645	0.52294	0.0061794	7	1.09987	11	0	85.2072	3.23145e-06
2	0	0	1	0	0	687.892	0.510144	0.510411	-0.0185712	7	1.09985	11	0	1.9004	-9.47893e-06
2	0	0	0	0	0	690.392	0.497642	0.49799	-0.0341792	7	1.09977	11	0	4.4006	-1.70209e-05
2	0	0	0	0	0	692.893	0.485141	0.485481	-0.0451502	7	1.09967	11	0	6.901	-2.19196e-05
2	0	0	1	0	0	695.393	0.472639	0.472914	-0.0531095	7	1.09955	11	0	9.4014	-2.51162e-05
2	0	0	1	0	0	697.893	0.460137	0.46048	-0.0576887	7	1.09942	11	0	11.9016	-2.65645e-05
2	1	0	1	0	1	700.271	0.451786	0.452096	0.0383935	8	1.0993	11	0	0.1	1.73576e-05
2	1	0	0	0	1	702.771	0.464288	0.464582	0.0553775	8	1.09944	11	0	2.6002	2.57274e-05
2	1	0	0	0	1	705.272	0.47679	0.47707	0.0587371	8	1.09959	11	0	5.1006	2.80217e-05
2	1	0	0	0	1	707.772	0.489291	0.489579	0.0638551	8	1.09974	11	0	7.601	3.12621e-05
2	1	0	1	0	1	710.272	0.501793	0.502118	0.0728464	8	1.09991	11	0	10.1012	3.65775e-05
2	1	0	1	0	1	712.773	0.514294	0.514679	0.0893335	8	1.10011	11	0	12.6016	4.5978e-05
2	1	0	1	0	1	715.273	0.526796	0.527105	0.11788	8	1.10037	11	0	15.1019	6.2135e-05
2	1	0	0	0	1	717.773	0.539298	0.539623	0.165891	8	1.10071	11	0	17.6022	8.95187e-05
2	1	0	0	0	1	720.274	0.551799	0.552056	0.246222	8	1.10122	11	0	20.1026	0.000135928
2	1	0	1	0	1	722.774	0.564301	0.564579	0.376567	8	1.10198	11	0	22.6028	0.000212602
2	1	0	1	0	1	725.274	0.576802	0.577146	0.575163	8	1.10316	11	0	25.1032	0.000331953
2	1	0	1	0	1	727.775	0.589304	0.589619	0.855309	8	1.10494	11	0	27.6036	0.000504307
2	1	0	0	0	1	730.275	0.601806	0.60216	1.22158	8	1.10752	11	0	30.1038	0.000735585
2	1	0	0	0	1	732.775	0.614307	0.614609	1.6686	8	1.11112	11	0	32.6042	0.00102554
2	1	0	1	0	1	735.276	0.626809	0.627131	2.18505	8	1.11593	11	0	35.1045	0.00137031
2	1	0	1	0	1	737.776	0.63931	0.639577	2.76056	8	1.1221	11	0	37.6048	0.00176559
2	1	0	1	0	1	740.276	0.651812	0.65214	3.38568	8	1.12977	11	0	40.1052	0.00220794
2	1	0	0	0	1	742.777	0.664314	0.664581	4.05288	8	1.13907	11	0	42.6054	0.00269347
2	1	0	0	0	1	745.277	0.676815	0.677146	4.75035	8	1.15007	11	0	45.1058	0.00321668
2	1	0	0	0	1	747.777	0.689317	0.689677	5.47027	8	1.16285	11	0	47.6062	0.00377272
2	1	0	0	0	1	750.074	0.699168	0.699464	6.05183	8	1.1762	11	0	49.9026	0.00423304
2	1	0	0	0	1	752.574	0.686667	0.68693	5.25927	8	1.19033	11	0	52.403	0.00361275
2	1	0	1	0	1	755.074	0.674165	0.674485	4.52046	8	1.20255	11	0	54.9032	0.00304898
2	1	0	1	0	1	757.575	0.661663	0.661957	3.81431	8	1.21295	11	0	57.4036	0.00252491
2	1	0	1	0	1	760.075	0.649162	0.649495	3.14701	8	1.22163	11	0	59.904	0.00204397
2	1	0	0	0	1	762.575	0.63666	0.637008	2.53282	8	1.22872	11	0	62.4042	0.00161342
2	1	0	0	0	1	765.076	0.624159	0.624497	1.97082	8	1.23434	11	0	64.9046	0.00123077
2	1	0	1	0	1	767.576	0.611657	0.61195	1.47073	8	1.23863	11	0	67.4049	0.000900011
2	1	0	1	0	1	770.076	0.599155	0.599523	1.05065	8	1.24177	11	0	69.9052	0.000629889
2	1	0	1	0	1	772.577	0.586654	0.586972	0.708039	8	1.24395	11	0	72.4056	0.000415599
2	1	0	0	0	1	775.077	0.574152	0.574361	0.445349	8	1.24537	11	0	74.9058	0.000255791
2	1	0	0	0	1	777.577	0.56165	0.561928	0.256405	8	1.24623	11	0	77.4062	0.000144081
2	1	0	0	0	1	780.078	0.549149	0.549401	0.131726	8	1.2467	11	0	79.9066	7.23705e-05
2	1	0	1	0	1	782.578	0.536647	0.536928	0.0546695	8	1.24693	11	0	82.4068	2.93536e-05
2	0	0	1	0	1	785.078	0.524146	0.524421	0.00963907	8	1.24701	11	0	84.9072	5.05494e-06
2	0	0	1	0	1	787.579	0.511644	0.51197	-0.0160486	8	1.24699	11	0	1.6003	-8.21643e-06
2	0	0	0	0	1	790.079	0.499142	0.499442	-0.0331662	8	1.24692	11	0	4.1006	-1.65646e-05
2	0	0	0	0	1	792.579	0.486641	0.486912	-0.0452878	8	1.24682	11	0	6.601	-2.20512e-05
2	0	0	1	0	1	795.08	0.474139	0.474488	-0.0533604	8	1.2467	11	0	9.1012	-2.53188e-05
2	0	0	1	0	1	797.58	0.461638	0.461981	-0.0573055	8	1.24657	11	0	11.6016	-2.64741e-05
2	0	0	1	0	0	799.958	0.450286	0.450467	-0.0233575	9	1.24643	11	0	13.9794	-1.05218e-05
2	1	0	0	0	0	802.458	0.462788	0.463015	0.0585088	9	1.24655	11	0	2.3002	2.70905e-05
2	1	0	0	0	0	804.958	0.475289	0.475606	0.0612115	9	1.2467	11	0	4.8006	2.91125e-05
2	1	0	1	0	0	807.459	0.487791	0.488095	0.0642476	9	1.24685	11	0	7.3008	3.13589e-05
2	1	0	1	0	0	809.959	0.500293	0.500566	0.0704762	9	1.24702	11	0	9.8012	3.5278e-05
2	1	0	1	0	0	812.459	0.512794	0.51306	0.0830687	9	1.24722	11	0	12.3016	4.26193e-05
2	1	0	0	0	0	814.96	0.525296	0.525615	0.107774	9	1.24746	11	0	14.8018	5.66479e-05
2	1	0	0	0	0	817.46	0.537797	0.538172	0.152497	9	1.24778	11	0	17.3022	8.20697e-05
2	1	0	0	0	0	819.96	0.550299	0.550696	0.228691	9	1.24825	11	0	19.8026	0.000125939
2	1	0	1	0	0	822.461	0.562801	0.563227	0.352473	9	1.24897	11	0	22.3028	0.000198522
2	1	0	1	0	0	824.961	0.575302	0.575683	0.539475	9	1.25006	11	0	24.8032	0.000310566
2	1	0	0	0	0	827.461	0.587804	0.588104	0.804682	9	1.25172	11	0	27.3034	0.000473237
2	1	0	0	0	0	829.962	0.600306	0.600546	1.15311	9	1.25415	11	0	29.8038	0.000692496
2	1	0	0	0	0	832.462	0.612807	0.613086	1.58369	9	1.25756	11	0	32.3042	0.000970941
2	1	0	1	0	0	834.962	0.625309	0.62564	2.08975	9	1.26215	11	0	34.8044	0.00130743
2	1	0	1	0	0	837.463	0.63781	0.63808	2.65784	9	1.26808	11	0	37.3048	0.00169591
2	1	0	1	0	0	839.963	0.650312	0.650616	3.27415	9	1.27549	11	0	39.8051	0.00213021
2	1	0	0	0	0	842.463	0.662814	0.663184	3.93223	9	1.28449	11	0	42.3054	0.00260779
2	1	0	0	0	0	844.964	0.675315	0.675653	4.62128	9	1.29518	11	0	44.8058	0.00312238
2	1	0	1	0	0	847.464	0.687817	0.688101	5.3434	9	1.30763	11	0	47.306	0.0036768
2	1	0	0	0	0	849.895	0.699994	0.700404	6.07059	9	1.32149	11	0	49.7376	0.00425186
2	1	0	0	0	0	852.261	0.688167	0.688508	5.31131	9	1.33492	11	0	52.103	0.00365688
2	1	0	1	0	0	854.761	0.675665	0.675968	4.56213	9	1.34726	11	0	54.6032	0.00308385
2	1	0	1	0	0	857.261	0.663164	0.663501	3.8636	9	1.35778	11	0	57.1036	0.0025635
2	1	0	1	0	0	859.762	0.650662	0.650994	3.19689	9	1.36659	11	0	59.6039	0.00208116
2	1	0	0	0	0	862.262	0.63816	0.638444	2.57301	9	1.37379	11	0	62.1042	0.00164272
2	1	0	0	0	0	864.762	0.625659	0.625981	2.00633	9	1.37949	11	0	64.6046	0.00125592
2	1	0	1	0	0	867.263	0.613157	0.613417	1.50349	9	1.38387	11	0	67.1048	0.000922264
2	1	0	1	0	0	869.763	0.600656	0.600963	1.07567	9	1.38708	11	0	69.6052	0.000646437
2	1	0	1	0	0	872.263	0.588154	0.588501	0.725096	9	1.38931	11	0	72.1056	0.00042672
2	1	0	0	0	0	874.764	0.575652	0.575909	0.459435	9	1.39078	11	0	74.6058	0.000264593
2	1	0	0	0	0	877.264	0.563151	0.563529	0.269865	9	1.39167	11	0	77.1062	0.000152077
2	1	0	1	0	0	879.764	0.550649	0.550966	0.142963	9	1.39217	11	0	79.6064	7.87679e-05
2	1	0	1	0	0	882.265	0.538147	0.538431	0.0611695	9	1.39241	11	0	82.1068	3.29356e-05
2	1	0	1	0	0	884.765	0.525646	0.52591	0.0103642	9	1.3925	11	0	84.6072	5.45064e-06
2	0	0	0	0	0	887.265	0.513144	0.513411	-0.0186225	9	1.39249	11	0	1.4002	-9.56102e-06
2	0	0	0	0	0	889.766	0.500643	0.50092	-0.0344394	9	1.39242	11	0	3.9006	-1.72514e-05
2	0	0	1	0	0	892.266	0.488141	0.48844	-0.0425534	9	1.39232	11	0	6.401	-2.07848e-05
2	0	0	1	0	0	894.766	0.475639	0.475951	-0.0477672	9	1.39221	11	0	8.9012	-2.27348e-05
2	0	0	1	0	0	897.267	0.463138	0.463436	-0.0535489	9	1.39208	11	0	11.4016	-2.48165e-05
2	0	0	0	0	0	899.767	0.450636	0.450914	-0.0590616	9	1.39193	11	0	13.9018	-2.66317e-05
2	1	0	0	0	1	902.145	0.461288	0.461596	0.0538043	10	1.39203	11	0	2.0002	2.48359e-05
2	1	0	0	0	1	904.645	0.473789	0.474181	0.0578154	10	1.39218	11	0	4.5006	2.7415e-05
2	1	0	1	0	1	907.145	0.486291	0.486536	0.0629414	10	1.39233	11	0	7.0008	3.06232e-05
2	1	0	1	0	1	909.646	0.498792	0.499218	0.0709187	10	1.39249	11	0	9.5012	3.54039e-05
2	1	0	1	0	1	912.146	0.511294	0.511679	0.0835644	10	1.39268	11	0	12.0015	4.27582e-05
2	1	0	0	0	1	914.646	0.523796	0.524112	0.105438	10	1.39291	11	0	14.5018	5.52613e-05
2	1	0	0	0	1	917.147	0.536297	0.536589	0.144467	10	1.39322	11	0	17.0022	7.75193e-05
2	1	0	1	0	1	919.647	0.548799	0.549024	0.212214	10	1.39366	11	0	19.5024	0.00011651
2	1	0	1	0	1	922.147	0.5613	0.561607	0.324511	10	1.39432	11	0	22.0028	0.000182247
2	1	0	1	0	1	924.648	0.573802	0.574013	0.499755	10	1.39534	11	0	24.5032	0.000286866
2	1	0	0	0	1	927.148	0.586304	0.586656	0.753743	10	1.3969	11	0	27.0034	0.000442188
2	1	0	0	0	1	929.648	0.598805	0.59912	1.09309	10	1.39919	11	0	29.5038	0.000654892
2	1	0	1	0	1	932.148	0.611307	0.611614	1.51278	10	1.40243	11	0	32.004	0.000925237
2	1	0	1	0	1	934.649	0.623808	0.62405	2.00744	10	1.40681	11	0	34.5044	0.00125275
2	1	0	1	0	1	937.149	0.63631	0.636554	2.56269	10	1.41252	11	0	37.0048	0.00163129
2	1	0	0	0	1	939.649	0.648812	0.649089	3.17329	10	1.41968	11	0	39.505	0.00205975
2	1	0	0	0	1	942.15	0.661313	0.661658	3.82378	10	1.42843	11	0	42.0054	0.00253003
2	1	0	1	0	1	944.65	0.673814	0.674032	4.50947	10	1.43884	11	0	44.5057	0.00303953
2	1	0	1	0	1	947.15	0.686317	0.686689	5.21913	10	1.451	11	0	47.006	0.00358392
2	1	0	1	0	1	949.651	0.698818	0.69917	5.95652	10	1.46497	11	0	49.5064	0.00416462
2	1	0	1	0	1	951.947	0.689667	0.689877	5.35926	10	1.4781	11	0	51.8028	0.00369723
2	1	0	1	0	1	954.448	0.677165	0.677458	4.59193	10	1.49053	11	0	54.3032	0.00311084
2	1	0	1	0	1	956.948	0.664664	0.664902	3.8934	10	1.50112	11	0	56.8036	0.00258873
2	1	0	0	0	1	959.448	0.652162	0.65241	3.23521	10	1.51002	11	0	59.3038	0.00211068
2	1	0	0	0	1	961.949	0.639661	0.639948	2.6121	10	1.51732	11	0	61.8042	0.00167161
2	1	0	1	0	1	964.449	0.627159	0.627412	2.04042	10	1.52312	11	0	64.3045	0.00128018
2	1	0	1	0	1	966.949	0.614657	0.615005	1.53508	10	1.52758	11	0	66.8048	0.000944079
2	1	0	1	0	1	969.45	0.602156	0.602441	1.10509	10	1.53086	11	0	69.3052	0.000665751
2	1	0	0	0	1	971.95	0.589654	0.589987	0.7516	10	1.53315	11	0	71.8054	0.000443434
2	1	0	0	0	1	974.45	0.577152	0.577408	0.47616	10	1.53467	11	0	74.3058	0.000274939
2	1	0	0	0	1	976.951	0.564651	0.564871	0.280029	10	1.5356	11	0	76.8062	0.00015818
2	1	0	1	0	1	979.451	0.552149	0.552454	0.150829	10	1.53613	11	0	79.3064	8.33259e-05
2	1	0	1	0	1	981.951	0.539648	0.53994	0.0666958	10	1.53639	11	0	81.8068	3.60117e-05
2	1	0	0	0	1	984.451	0.527146	0.527404	0.0135165	10	1.53649	11	0	84.307	7.12867e-06
2	0	0	0	0	1	986.952	0.514644	0.514986	-0.0145763	10	1.53648	11	0	1.2002	-7.50661e-06
2	0	0	0	0	1	989.452	0.502143	0.502445	-0.029659	10	1.53642	11	0	3.7006	-1.4902e-05
2	0	0	1	0	1	991.952	0.489641	0.490009	-0.0432372	10	1.53633	11	0	6.2008	-2.11866e-05
2	0	0	1	0	1	994.453	0.47714	0.477451	-0.0508777	10	1.53621	11	0	8.7012	-2.42916e-05
2	0	0	1	0	1	996.953	0.464638	0.464935	-0.0529272	10	1.53608	11	0	11.2016	-2.46077e-05
2	0	0	0	0	1	999.453	0.452136	0.452482	-0.057275	10	1.53594	11	0	13.7018	-2.59159e-05
2	1	0	0	0	0	1001.83	0.459787	0.460163	0.0529903	11	1.536	11	0	1.7002	2.43842e-05
2	1	0	1	0	0	1004.33	0.472289	0.472566	0.0589637	11	1.53615	11	0	4.2004	2.78643e-05
2	1	0	1	0	0	1006.83	0.484791	0.485097	0.0635214	11	1.5363	11	0	6.7008	3.08141e-05
2	1	0	1	0	0	1009.33	0.497292	0.497581	0.0664909	11	1.53646	11	0	9.2012	3.30846e-05
2	1	0	0	0	0	1011.83	0.509794	0.510062	0.0794585	11	1.53664	11	0	11.7014	4.05288e-05
2	1	0	0	0	0	1014.33	0.522295	0.522643	0.101657	11	1.53687	11	0	14.2018	5.31305e-05
2	1	0	1	0	0	1016.83	0.534797	0.535116	0.134385	11	1.53716	11	0	16.7021	7.19116e-05
2	1	0	1	0	0	1019.33	0.547299	0.547631	0.198683	11	1.53757	11	0	19.2024	0.000108805
2	1	0	1	0	0	1021.83	0.5598	0.560213	0.306176	11	1.53819	11	0	21.7028	0.000171524
2	1	0	0	0	0	1024.33	0.572302	0.572636	0.467328	11	1.53914	11	0	24.203	0.000267609
2	1	0	0	0	0	1026.83	0.584803	0.585137	0.706556	11	1.5406	11	0	26.7034	0.000413432
2	1	0	0	0	0	1029.33	0.597305	0.597597	1.03244	11	1.54275	11	0	29.2038	0.000616982
2	1	0	1	0	0	1031.83	0.609807	0.61001	1.43761	11	1.54583	11	0	31.704	0.000876954
2	1	0	1	0	0	1034.34	0.622308	0.62247	1.91945	11	1.55001	11	0	34.2044	0.0011948
2	1	0	1	0	0	1036.84	0.63481	0.635106	2.47049	11	1.55549	11	0	36.7047	0.00156902
2	1	0	0	0	0	1039.34	0.647312	0.647598	3.07244	11	1.56241	11	0	39.205	0.0019897
2	1	0	0	0	0	1041.84	0.659813	0.660099	3.71517	11	1.5709	11	0	41.7054	0.00245238
2	1	0	1	0	0	1044.34	0.672315	0.672598	4.40295	11	1.58105	11	0	44.2056	0.00296142
2	1	0	1	0	0	1046.84	0.684816	0.685099	5.11638	11	1.59294	11	0	46.706	0.00350523
2	1	0	1	0	0	1049.34	0.697318	0.697636	5.84269	11	1.60664	11	0	49.2064	0.00407607
2	1	0	1	0	0	1051.63	0.691167	0.69154	5.43956	11	1.61988	11	0	51.5028	0.00376167
2	1	0	1	0	0	1054.13	0.678666	0.678941	4.68089	11	1.63252	11	0	54.0032	0.00317805
2	1	0	0	0	0	1056.63	0.666164	0.666499	3.97622	11	1.64333	11	0	56.5034	0.00265015
2	1	0	0	0	0	1059.13	0.653662	0.65397	3.30319	11	1.65242	11	0	59.0038	0.00216019
2	1	0	0	0	0	1061.64	0.641161	0.641505	2.67461	11	1.65988	11	0	61.5042	0.00171577
2	1	0	1	0	0	1064.14	0.628659	0.629006	2.10519	11	1.66584	11	0	64.0044	0.00132418
2	1	0	1	0	0	1066.64	0.616158	0.616434	1.58936	11	1.67044	11	0	66.5048	0.000979737
2	1	0	1	0	0	1069.14	0.603656	0.604092	1.14444	11	1.67384	11	0	69.0052	0.000691345
2	1	0	0	0	0	1071.64	0.591154	0.591406	0.780007	11	1.67623	11	0	71.5054	0.000461301
2	1	0	0	0	0	1074.14	0.578653	0.578996	0.495972	11	1.6778	11	0	74.0058	0.000287166
2	1	0	1	0	0	1076.64	0.566151	0.566571	0.293091	11	1.67877	11	0	76.506	0.000166057
2	1	0	1	0	0	1079.14	0.553649	0.554028	0.159864	11	1.67933	11	0	79.0064	8.85691e-05
2	1	0	1	0	0	1081.64	0.541148	0.541424	0.07151	11	1.6796	11	0	81.5068	3.87172e-05
2	1	0	0	0	0	1084.14	0.528646	0.528965	0.0172932	11	1.67971	11	0	84.007	9.14748e-06
2	0	0	0	0	0	1086.64	0.516145	0.516509	-0.0110454	11	1.67972	11	0	1.0002	-5.70506e-06
2	0	0	1	0	0	1089.14	0.503643	0.503875	-0.0298221	11	1.67966	11	0	3.5005	-1.50266e-05
2	0	0	1	0	0	1091.64	0.491141	0.491328	-0.04418	11	1.67957	11	0	6.0008	-2.17069e-05
2	0	0	1	0	0	1094.14	0.47864	0.478888	-0.0475476	11	1.67945	11	0	8.5012	-2.277e-05
2	0	0	0	0	0	1096.64	0.466138	0.466445	-0.0528855	11	1.67932	11	0	11.0014	-2.46682e-05
2	0	0	0	0	0	1099.14	0.453637	0.453944	-0.0587507	11	1.67919	11	0	13.5018	-2.66695e-05
2	1	0	0	0	1	1101.52	0.458287	0.458554	0.0567447	12	1.67922	11	0	1.4002	2.60205e-05
2	1	0	1	0	1	1104.02	0.470789	0.471022	0.0573419	12	1.67936	11	0	3.9004	2.70093e-05
2	1	0	1	0	1	1106.52	0.48329	0.483518	0.0596204	12	1.67951	11	0	6.4008	2.88275e-05
2	1	0	1	0	1	1109.02	0.495792	0.496174	0.0685051	12	1.67967	11	0	8.9011	3.39904e-05
2	1	0	0	0	1	1111.52	0.508294	0.508645	0.0765352	12	1.67984	11	0	11.4014	3.89292e-05
2	1	0	0	0	1	1114.02	0.520795	0.52116	0.0933836	12	1.68006	11	0	13.9018	4.86678e-05
2	1	0	1	0	1	1116.52	0.533297	0.533579	0.127761	12	1.68033	11	0	16.402	6.81709e-05
2	1	0	1	0	1	1119.02	0.545798	0.546096	0.188257	12	1.68072	11	0	18.9024	0.000102806
2	1	0	1	0	1	1121.52	0.5583	0.558513	0.286346	12	1.6813	11	0	21.4028	0.000159928
2	1	0	0	0	1	1124.02	0.570802	0.571105	0.437051	12	1.68219	11	0	23.903	0.000249602
2	1	0	0	0	1	1126.52	0.583303	0.583576	0.663783	12	1.68356	11	0	26.4034	0.000387368
2	1	0	1	0	1	1129.02	0.595805	0.596181	0.977145	12	1.68559	11	0	28.9036	0.000582555
2	1	0	1	0	1	1131.52	0.608307	0.608726	1.36824	12	1.68851	11	0	31.404	0.000832882
2	1	0	1	0	1	1134.02	0.620808	0.621082	1.83944	12	1.69251	11	0	33.9044	0.00114244
2	1	0	0	0	1	1136.52	0.63331	0.633672	2.38217	12	1.69777	11	0	36.4046	0.00150952
2	1	0	0	0	1	1139.02	0.645811	0.646186	2.9713	12	1.70446	11	0	38.905	0.00192001
2	1	0	0	0	1	1141.52	0.658313	0.65866	3.60921	12	1.71268	11	0	41.4054	0.00237724
2	1	0	1	0	1	1144.02	0.670815	0.671201	4.29326	12	1.72256	11	0	43.9056	0.00288164
2	1	0	1	0	1	1146.52	0.683316	0.683726	4.99167	12	1.73416	11	0	46.406	0.00341294
2	1	0	0	0	1	1149.02	0.695818	0.696159	5.72588	12	1.74755	11	0	48.9062	0.00398612
2	1	0	1	0	1	1151.32	0.692667	0.692933	5.50489	12	1.76081	11	0	51.2028	0.00381452
2	1	0	1	0	1	1153.82	0.680166	0.680408	4.7477	12	1.77363	11	0	53.7032	0.00323037
2	1	0	0	0	1	1156.32	0.667664	0.667908	4.02545	12	1.78459	11	0	56.2034	0.00268863
2	1	0	0	0	1	1158.82	0.655163	0.655379	3.34872	12	1.7938	11	0	58.7038	0.00219468
2	1	0	1	0	1	1161.32	0.642661	0.642941	2.7148	12	1.80136	11	0	61.2041	0.00174545
2	1	0	1	0	1	1163.82	0.630159	0.63046	2.14001	12	1.80741	11	0	63.7044	0.00134919
2	1	0	1	0	1	1166.32	0.617658	0.617937	1.62623	12	1.8121	11	0	66.2048	0.00100491
2	1	0	0	0	1	1168.82	0.605156	0.60548	1.17595	12	1.81559	11	0	68.705	0.000712014
2	1	0	0	0	1	1171.32	0.592654	0.593049	0.805802	12	1.81805	11	0	71.2054	0.00047788
2	1	0	0	0	1	1173.82	0.580153	0.580521	0.519633	12	1.81969	11	0	73.7058	0.000301658
2	1	0	1	0	1	1176.32	0.567651	0.567886	0.310443	12	1.8207	11	0	76.206	0.000176296
2	1	0	1	0	1	1178.82	0.55515	0.555529	0.166716	12	1.82128	11	0	78.7064	9.26155e-05
2	1	0	1	0	1	1181.32	0.542648	0.542804	0.0751344	12	1.82158	11	0	81.2067	4.07832e-05
2	1	0	0	0	1	1183.82	0.530146	0.530467	0.0218433	12	1.8217	11	0	83.707	1.15872e-05
2	0	0	0	0	1	1186.32	0.517645	0.518006	-0.00829356	12	1.82171	11	0	0.8002	-4.29611e-06
2	0	0	1	0	1	1188.83	0.505143	0.505396	-0.0290123	12	1.82165	11	0	3.3004	-1.46627e-05
2	0	0	1	0	1	1191.33	0.492642	0.492963	-0.0430676	12	1.82157	11	0	5.8008	-2.12308e-05
2	0	0	1	0	1	1193.83	0.48014	0.48053	-0.0484848	12	1.82145	11	0	8.3012	-2.32984e-05
2	0	0	0	0	1	1196.33	0.467638	0.467922	-0.0509085	12	1.82133	11	0	10.8014	-2.38212e-05
2	0	0	0	0	1	1198.83	0.455137	0.455354	-0.0565613	12	1.82119	11	0	13.3018	-2.57554e-05
2	1	0	1	0	0	1201.2	0.456787	0.457191	0.0512216	13	1.82118	11	0	1.1	2.3418e-05
2	1	0	1	0	0	1203.7	0.469289	0.46959	0.0582111	13	1.82132	11	0	3.6004	2.73354e-05
2	1	0	1	0	0	1206.2	0.48179	0.48203	0.061335	13	1.82147	11	0	6.1008	2.95654e-05
2	1	0	0	0	0	1208.71	0.494292	0.494564	0.0631793	13	1.82163	11	0	8.601	3.12462e-05
2	1	0	0	0	0	1211.21	0.506793	0.507026	0.075852	13	1.8218	11	0	11.1014	3.84589e-05
2	1	0	0	0	0	1213.71	0.519295	0.519609	0.0925587	13	1.82201	11	0	13.6018	4.80943e-05
2	1	0	1	0	0	1216.21	0.531797	0.53205	0.120115	13	1.82227	11	0	16.102	6.39073e-05
2	1	0	1	0	0	1218.71	0.544298	0.544596	0.177541	13	1.82264	11	0	18.6024	9.66882e-05
2	1	0	0	0	0	1221.21	0.5568	0.557163	0.264601	13	1.82318	11	0	21.1026	0.000147426
2	1	0	0	0	0	1223.71	0.569301	0.569591	0.409474	13	1.82401	11	0	23.603	0.000233233
2	1	0	0	0	0	1226.21	0.581803	0.582095	0.626067	13	1.82529	11	0	26.1034	0.00036443
2	1	0	1	0	0	1228.71	0.594305	0.594653	0.919604	13	1.82721	11	0	28.6036	0.000546846
2	1	0	1	0	0	1231.21	0.606806	0.607113	1.30531	13	1.82997	11	0	31.104	0.000792472
2	1	0	0	0	0	1233.71	0.619308	0.619543	1.76403	13	1.8338	11	0	33.6042	0.00109289
2	1	0	0	0	0	1236.21	0.63181	0.632178	2.29419	13	1.83886	11	0	36.1046	0.00145034
2	1	0	0	0	0	1238.71	0.644311	0.644604	2.88078	13	1.84532	11	0	38.605	0.00185696
2	1	0	1	0	0	1241.21	0.656813	0.657144	3.50961	13	1.8533	11	0	41.1052	0.00230632
2	1	0	1	0	0	1243.71	0.669314	0.669668	4.18804	13	1.86292	11	0	43.6056	0.0028046
2	1	0	1	0	0	1246.21	0.681816	0.682221	4.88884	13	1.87427	11	0	46.106	0.00333527
2	1	0	0	0	0	1248.71	0.694318	0.694634	5.62138	13	1.88742	11	0	48.6062	0.0039048
2	1	0	1	0	0	1251.01	0.694168	0.694431	5.57142	13	1.90067	11	0	50.9028	0.00386897
2	1	0	0	0	0	1253.51	0.681666	0.681958	4.80173	13	1.91362	11	0	53.403	0.00327458
2	1	0	0	0	0	1256.01	0.669164	0.669501	4.09036	13	1.92473	11	0	55.9034	0.0027385
2	1	0	0	0	0	1258.51	0.656663	0.65707	3.41362	13	1.9341	11	0	58.4038	0.00224299
2	1	0	1	0	0	1261.01	0.644161	0.644465	2.78358	13	1.94184	11	0	60.904	0.00179392
2	1	0	1	0	0	1263.51	0.63166	0.631925	2.20069	13	1.94806	11	0	63.4044	0.00139067
2	1	0	1	0	0	1266.01	0.619158	0.619463	1.67687	13	1.95289	11	0	65.9048	0.00103876
2	1	0	0	0	0	1268.51	0.606656	0.606907	1.21721	13	1.95649	11	0	68.405	0.00073873
2	1	0	0	0	0	1271.01	0.594155	0.594445	0.840845	13	1.95904	11	0	70.9054	0.000499836
2	1	0	1	0	0	1273.51	0.581653	0.581925	0.540711	13	1.96075	11	0	73.4056	0.000314653
2	1	0	1	0	0	1276.01	0.569151	0.569487	0.327937	13	1.96182	11	0	75.906	0.000186756
2	1	0	1	0	0	1278.51	0.55665	0.556968	0.176348	13	1.96243	11	0	78.4064	9.822e-05
2	1	0	0	0	0	1281.01	0.544148	0.544528	0.0861188	13	1.96275	11	0	80.9066	4.68941e-05
2	1	0	0	0	0	1283.51	0.531647	0.531953	0.0244065	13	1.96288	11	0	83.407	1.29831e-05
2	0	0	1	0	0	1286.01	0.519145	0.519427	-0.00555202	13	1.9629	11	0	0.5001	-2.88387e-06
2	0	0	1	0	0	1288.51	0.506643	0.506965	-0.0300422	13	1.96286	11	0	3.0004	-1.52303e-05
2	0	0	1	0	0	1291.01	0.494142	0.494453	-0.0381624	13	1.96277	11	0	5.5008	-1.88695e-05
2	0	0	0	0	0	1293.51	0.48164	0.481837	-0.0497469	13	1.96266	11	0	8.001	-2.39699e-05
2	0	0	0	0	0	1296.01	0.469139	0.469382	-0.0504164	13	1.96253	11	0	10.5014	-2.36645e-05
2	0	0	0	0	0	1298.51	0.456637	0.456864	-0.0577454	13	1.9624	11	0	13.0018	-2.63818e-05
2	1	0	1	0	1	1300.89	0.455287	0.455564	0.0534036	14	1.96236	11	0	0.8	2.43287e-05
2	1	0	1	0	1	1303.39	0.467788	0.468021	0.0569275	14	1.9625	11	0	3.3004	2.66433e-05
2	1	0	0	0	1	1305.89	0.48029	0.48052	0.0597043	14	1.96265	11	0	5.8006	2.86891e-05
2	1	0	0	0	1	1308.39	0.492792	0.49307	0.0646905	14	1.9628	11	0	8.301	3.1897e-05
2	1	0	0	0	1	1310.89	0.505293	0.505613	0.0723257	14	1.96297	11	0	10.8014	3.65688e-05
2	1	0	1	0	1	1313.39	0.517795	0.518162	0.0881403	14	1.96317	11	0	13.3016	4.5671e-05
2	1	0	1	0	1	1315.89	0.530296	0.530585	0.114991	14	1.96342	11	0	15.802	6.10127e-05
2	1	0	1	0	1	1318.39	0.542798	0.543078	0.166091	14	1.96377	11	0	18.3024	9.02005e-05
2	1	0	0	0	1	1320.89	0.5553	0.555595	0.248613	14	1.96428	11	0	20.8026	0.000138129
2	1	0	0	0	1	1323.39	0.567801	0.568072	0.383698	14	1.96506	11	0	23.303	0.000217969
2	1	0	1	0	1	1325.89	0.580303	0.58049	0.587007	14	1.96626	11	0	25.8032	0.000340752
2	1	0	1	0	1	1328.39	0.592804	0.593124	0.870801	14	1.96806	11	0	28.3036	0.000516493
2	1	0	1	0	1	1330.89	0.605306	0.60555	1.24022	14	1.97069	11	0	30.804	0.000751013
2	1	0	0	0	1	1333.39	0.617808	0.618166	1.6899	14	1.97434	11	0	33.3042	0.00104464
2	1	0	0	0	1	1335.9	0.630309	0.630653	2.20769	14	1.9792	11	0	35.8046	0.00139228
2	1	0	1	0	1	1338.4	0.642811	0.643214	2.78364	14	1.98543	11	0	38.3049	0.00179048
2	1	0	1	0	1	1340.9	0.655313	0.655579	3.41178	14	1.99317	11	0	40.8052	0.00223669
2	1	0	1	0	1	1343.4	0.667814	0.668091	4.07992	14	2.00253	11	0	43.3056	0.00272576
2	1	0	0	0	1	1345.9	0.680316	0.680533	4.77045	14	2.01359	11	0	45.8058	0.00324645
2	1	0	0	0	1	1348.4	0.692817	0.692958	5.48433	14	2.02642	11	0	48.3062	0.00380041
2	1	0	1	0	1	1350.69	0.695668	0.695938	5.62246	14	2.03955	11	0	50.6028	0.00391289
2	1	0	0	0	1	1353.19	0.683166	0.683428	4.8604	14	2.05264	11	0	53.103	0.00332173
2	1	0	0	0	1	1355.69	0.670665	0.670995	4.14084	14	2.06388	11	0	55.6034	0.00277849
2	1	0	1	0	1	1358.19	0.658163	0.658495	3.46281	14	2.07338	11	0	58.1037	0.00228024
2	1	0	1	0	1	1360.69	0.645661	0.645877	2.82431	14	2.08122	11	0	60.604	0.00182416
2	1	0	1	0	1	1363.2	0.63316	0.633484	2.24322	14	2.08754	11	0	63.1044	0.00142105
2	1	0	0	0	1	1365.7	0.620658	0.620938	1.71016	14	2.09247	11	0	65.6046	0.0010619
2	1	0	0	0	1	1368.2	0.608156	0.608423	1.25256	14	2.09615	11	0	68.105	0.000762087
2	1	0	0	0	1	1370.7	0.595655	0.596032	0.864943	14	2.09878	11	0	70.6054	0.000515534
2	1	0	1	0	1	1373.2	0.583153	0.583491	0.562852	14	2.10055	11	0	73.1056	0.000328419
2	1	0	1	0	1	1375.7	0.570652	0.570948	0.339808	14	2.10166	11	0	75.606	0.000194012
2	1	0	0	0	1	1378.2	0.55815	0.558391	0.187531	14	2.1023	11	0	78.1062	0.000104716
2	1	0	0	0	1	1380.7	0.545648	0.545908	0.0903373	14	2.10264	11	0	80.6066	4.93158e-05
2	1	0	0	0	1	1383.2	0.533147	0.53343	0.0295382	14	2.10278	11	0	83.107	1.57565e-05
2	0	0	1	0	1	1385.7	0.520645	0.521001	-0.00519685	14	2.10281	11	0	0.3	-2.70757e-06
2	0	0	1	0	1	1388.2	0.508144	0.508437	-0.0266694	14	2.10277	11	0	2.8004	-1.35597e-05
2	0	0	1	0	1	1390.7	0.495642	0.496069	-0.0387602	14	2.10268	11	0	5.3008	-1.92277e-05
2	0	0	0	0	1	1393.2	0.48314	0.483511	-0.0465144	14	2.10258	11	0	7.801	-2.24902e-05
2	0	0	0	0	1	1395.7	0.470639	0.471039	-0.0518213	14	2.10245	11	0	10.3014	-2.44099e-05
2	0	0	1	0	1	1398.2	0.458137	0.458443	-0.0546684	14	2.10232	11	0	12.8016	-2.50624e-05
2	1	0	1	0	0	1400.58	0.453787	0.454017	0.0493805	15	2.10225	11	0	0.5	2.24196e-05
2	1	0	1	0	0	1403.08	0.466288	0.466533	0.0569484	15	2.10238	11	0	3.0004	2.65683e-05
2	1	0	0	0	0	1405.58	0.47879	0.479098	0.0572575	15	2.10253	11	0	5.5006	2.7432e-05
2	1	0	0	0	0	1408.08	0.491291	0.491594	0.0651925	15	2.10268	11	0	8.001	3.20482e-05
2	1	0	1	0	0	1410.58	0.503793	0.504057	0.0690048	15	2.10285	11	0	10.5013	3.47824e-05
2	1	0	1	0	0	1413.08	0.516295	0.516607	0.0864391	15	2.10304	11	0	13.0016	4.46551e-05
2	1	0	1	0	0	1415.58	0.528796	0.529032	0.110113	15	2.10328	11	0	15.502	5.82531e-05
2	1	0	0	0	0	1418.08	0.541298	0.541511	0.155437	15	2.10361	11	0	18.0022	8.41706e-05
2	1	0	0	0	0	1420.58	0.553799	0.554087	0.234709	15	2.10409	11	0	20.5026	0.000130049
2	1	0	0	0	0	1423.08	0.566301	0.566591	0.357569	15	2.10482	11	0	23.003	0.000202595
2	1	0	1	0	0	1425.58	0.578803	0.579206	0.552986	15	2.10594	11	0	25.5032	0.000320293
2	1	0	1	0	0	1428.08	0.591304	0.591705	0.82122	15	2.10765	11	0	28.0036	0.00048592
2	1	0	1	0	0	1430.58	0.603806	0.604154	1.18233	15	2.11013	11	0	30.5039	0.000714307
2	1	0	0	0	0	1433.08	0.616308	0.616531	1.6164	15	2.11362	11	0	33.0042	0.000996559
2	1	0	0	0	0	1435.58	0.628809	0.629101	2.12899	15	2.11829	11	0	35.5046	0.00133935
2	1	0	1	0	0	1438.08	0.641311	0.641593	2.69476	15	2.12431	11	0	38.0048	0.00172894
2	1	0	1	0	0	1440.58	0.653812	0.654028	3.31535	15	2.13182	11	0	40.5052	0.00216833
2	1	0	1	0	0	1443.08	0.666314	0.666608	3.97022	15	2.14092	11	0	43.0056	0.00264658
2	1	0	0	0	0	1445.58	0.678816	0.679123	4.66665	15	2.15172	11	0	45.5058	0.00316923
2	1	0	0	0	0	1448.08	0.691317	0.691652	5.38978	15	2.16429	11	0	48.0062	0.00372785
2	1	0	0	0	0	1450.38	0.697168	0.697551	5.71421	15	2.17735	11	0	50.3026	0.00398596
2	1	0	0	0	0	1452.88	0.684666	0.684901	4.93576	15	2.19065	11	0	52.803	0.0033805
2	1	0	0	0	0	1455.38	0.672165	0.672493	4.21219	15	2.20207	11	0	55.3034	0.00283267
2	1	0	1	0	0	1457.88	0.659663	0.659941	3.53289	15	2.21173	11	0	57.8036	0.0023315
2	1	0	1	0	0	1460.38	0.647162	0.647447	2.89538	15	2.21977	11	0	60.304	0.00187461
2	1	0	1	0	0	1462.88	0.63466	0.634956	2.30421	15	2.22625	11	0	62.8044	0.00146307
2	1	0	0	0	0	1465.38	0.622158	0.62242	1.76275	15	2.23132	11	0	65.3046	0.00109717
2	1	0	0	0	0	1467.88	0.609657	0.609912	1.29553	15	2.23513	11	0	67.805	0.00079016
2	1	0	1	0	0	1470.38	0.597155	0.59743	0.89887	15	2.23785	11	0	70.3052	0.000537012
2	1	0	1	0	0	1472.88	0.584653	0.584921	0.589997	15	2.2397	11	0	72.8056	0.000345102
2	1	0	1	0	0	1475.38	0.572152	0.572449	0.359497	15	2.24086	11	0	75.306	0.000205794
2	1	0	0	0	0	1477.88	0.55965	0.560001	0.199428	15	2.24155	11	0	77.8062	0.00011168
2	1	0	0	0	0	1480.38	0.547149	0.547532	0.0998343	15	2.24192	11	0	80.3066	5.46625e-05
2	1	0	1	0	0	1482.88	0.534647	0.53494	0.0344918	15	2.24207	11	0	82.8069	1.8451e-05
2	0	0	1	0	0	1485.38	0.522145	0.522476	-0.00383495	15	2.24211	11	0	0.000000000000000E+000	-2.00367e-06
2	0	0	1	0	0	1487.88	0.509644	0.509857	-0.0225511	15	2.24207	11	0	2.5004	-1.14978e-05
2	0	0	0	0	0	1490.39	0.497142	0.497389	-0.0394565	15	2.24199	11	0	5.0006	-1.96252e-05
2	0	0	0	0	0	1492.89	0.484641	0.484973	-0.0446829	15	2.24189	11	0	7.501	-2.167e-05
2	0	0	0	0	0	1495.39	0.472139	0.472407	-0.0508845	15	2.24177	11	0	10.0014	-2.40382e-05
2	0	0	1	0	0	1497.89	0.459637	0.459907	-0.0562993	15	2.24163	11	0	12.5016	-2.58924e-05
2	0	0	1	0	0	1499.81	0.450011	0.450274	-0.0733624	15	2.24153	11	0	14.4242	-3.30331e-05