File: ACS_Catal_2026/Figures_Na_K/main_figures/data/EC/20240126_2-102_Add_Na/20240201_2-102_018_add_Cs_5mL_elctrode6_C02.mpt
EC-Lab ASCII FILE
Nb header lines : 66

Cyclic Voltammetry Advanced

Run on channel : 2 (SN 66414)
User :
CE vs. WE compliance from -10 V to 10 V
Electrode connection : standard
Potential control : Ewe
Ewe ctrl range : min = -1.00 V, max = 1.00 V
Safety Limits :
	Do not start on E overload
Acquisition started on : 02/01/2024 15:19:23.934
Loaded Setting File :  C:\Users\NakamuraT\Documents\EC-Lab\Data\Yatsuzuka\20240126_2-102_Add_Na\20240125_2-102_010_K_elctrode4.mps
Saved on :
	File : 20240201_2-102_018_add_Cs_5mL_elctrode6_C02.mpr
	Directory : C:\Users\NakamuraT\Documents\EC-Lab\Data\Yatsuzuka\20240126_2-102_Add_Na\
	Host : 192.109.209.100
Device : SP-150e (SN .003411)
Address : 192.109.209.236
EC-Lab for windows v11.50 (software)
Internet server v11.50 (firmware)
Command interpretor v11.50 (firmware)
Electrode material :
Initial state :
Electrolyte :
Comments :
Electrode surface area : 0.001 cm2
Characteristic mass : 0.001 g
Equivalent Weight : 0.000 g/eq.
Density : 0.000 g/cm3
Volume (V) : 0.001 cm3
Cycle Definition : Charge/Discharge alternance
Ei (V)              0.450
vs.                 Ref
ti (h:m:s)          0:00:10.0000
dti (s)             0.0000
dE/dt               5.000
dE/dt unit          mV/s
E1 (V)              0.700
vs.                 Ref
t1 (h:m:s)          0:00:0.0000
dt1 (s)             0.1000
Step percent        50
N                   10
E range min (V)     -1.000
E range max (V)     1.000
I Range             10 mA
I Range min         Unset
I Range max         Unset
I Range init        Unset
Bandwidth           5
E2 (V)              0.450
vs.                 Ref
t2 (h:m:s)          0:00:0.0000
dt2 (s)             0.1000
nc cycles           14
nr                  1
Reverse Scan        0
Ef (V)              0.000
vs.                 Eoc
tf (h:m:s)          0:00:0.0000
dtf (s)             0.1000

mode	ox/red	error	control changes	Ns changes	counter inc.	time/s	control/V	Ewe/V	<I>/mA	cycle number	(Q-Qo)/C	I Range	Ns	step time/s	P/W
2	0	0	1	0	0	0.000000000000000E+000	0.449937	0.450417	-0.0110456	1	0.0000000E+000	11	0	0.000000000000000E+000	-4.97514e-06
2	1	0	1	0	0	2.4515	0.462195	0.462428	0.0934544	1	0.000202794	11	0	2.3967	4.3216e-05
2	1	0	0	0	0	4.948	0.474677	0.474932	0.0925178	1	0.000431485	11	0	4.8932	4.39396e-05
2	1	0	1	0	0	7.4446	0.48716	0.487459	0.0911051	1	0.000657565	11	0	7.3898	4.441e-05
2	1	0	1	0	0	9.9411	0.499643	0.499875	0.0904532	1	0.000882614	11	0	9.8863	4.52153e-05
2	1	0	0	0	0	12.4376	0.512125	0.512393	0.0917471	1	0.00111068	11	0	12.3828	4.70105e-05
2	1	0	1	0	0	14.9342	0.524608	0.52489	0.0967932	1	0.00134826	11	0	14.8794	5.08057e-05
2	1	0	1	0	0	17.4307	0.537091	0.537398	0.107539	1	0.00160566	11	0	17.3759	5.77911e-05
2	1	0	0	0	0	19.9272	0.549573	0.549906	0.127794	1	0.00190087	11	0	19.8724	7.02749e-05
2	1	0	1	0	0	22.4237	0.562056	0.562291	0.164499	1	0.00226506	11	0	22.3689	9.24963e-05
2	1	0	1	0	0	24.9203	0.574539	0.574843	0.22814	1	0.00275074	11	0	24.8655	0.000131145
2	1	0	0	0	0	27.4168	0.587021	0.587295	0.33343	1	0.0034417	11	0	27.362	0.000195822
2	1	0	1	0	0	29.9133	0.599504	0.599838	0.497165	1	0.00446275	11	0	29.8585	0.000298218
2	1	0	1	0	0	32.4099	0.611987	0.612274	0.73432	1	0.00598119	11	0	32.3551	0.000449605
2	1	0	0	0	0	34.9064	0.624469	0.624761	1.05459	1	0.0081953	11	0	34.8516	0.000658867
2	1	0	1	0	0	37.4029	0.636952	0.637188	1.45583	1	0.0113107	11	0	37.3481	0.000927637
2	1	0	1	0	0	39.8995	0.649435	0.649711	1.93065	1	0.0155254	11	0	39.8447	0.00125436
2	1	0	0	0	0	42.396	0.661917	0.662186	2.46469	1	0.0209997	11	0	42.3412	0.00163208
2	1	0	1	0	0	44.8925	0.6744	0.674702	3.05471	1	0.027879	11	0	44.8377	0.00206102
2	1	0	1	0	0	47.3891	0.686883	0.68714	3.68882	1	0.036286	11	0	47.3343	0.00253473
2	1	0	0	0	0	49.8856	0.699365	0.699616	4.34918	1	0.0463194	11	0	49.8308	0.00304276
2	1	0	0	0	0	52.2596	0.68873	0.688981	3.72461	1	0.0559584	11	0	52.2048	0.00256618
2	1	0	1	0	0	54.7561	0.676248	0.676523	3.06143	1	0.0644149	11	0	54.7013	0.00207113
2	1	0	1	0	0	57.2527	0.663765	0.663988	2.46923	1	0.0712989	11	0	57.1979	0.00163954
2	1	0	0	0	0	59.7492	0.651282	0.651563	1.9285	1	0.0767832	11	0	59.6944	0.00125654
2	1	0	1	0	0	62.2457	0.6388	0.639104	1.43522	1	0.0809694	11	0	62.1909	0.000917257
2	1	0	1	0	0	64.7423	0.626317	0.626573	1.01152	1	0.0840081	11	0	64.6875	0.000633789
2	1	0	0	0	0	67.2388	0.613834	0.614105	0.669693	1	0.0860883	11	0	67.184	0.000411261
2	1	0	1	0	0	69.7353	0.601352	0.60157	0.41267	1	0.0874218	11	0	69.6805	0.00024825
2	1	0	1	0	0	72.2319	0.588869	0.58914	0.227889	1	0.0882045	11	0	72.1771	0.000134259
2	1	0	0	0	0	74.7284	0.576386	0.576629	0.106152	1	0.0886071	11	0	74.6736	6.12105e-05
2	1	0	1	0	0	77.2249	0.563904	0.564149	0.0297076	1	0.088765	11	0	77.1701	1.67595e-05
2	0	0	1	0	0	79.7215	0.551421	0.551591	-0.0163183	1	0.0887732	11	0	0.9986	-9.00102e-06
2	0	0	0	0	0	82.218	0.538938	0.53917	-0.0437761	1	0.0886913	11	0	3.4951	-2.36028e-05
2	0	0	1	0	0	84.7145	0.526456	0.52677	-0.0605113	1	0.0885554	11	0	5.9916	-3.18755e-05
2	0	0	1	0	0	87.2111	0.513973	0.514223	-0.0713871	1	0.0883862	11	0	8.4882	-3.67088e-05
2	0	0	0	0	0	89.7076	0.50149	0.501779	-0.080245	1	0.0881955	11	0	10.9847	-4.02652e-05
2	0	0	1	0	0	92.2041	0.489008	0.489304	-0.0856372	1	0.0879902	11	0	13.4812	-4.19026e-05
2	0	0	1	0	0	94.7007	0.476525	0.476834	-0.0879606	1	0.0877727	11	0	15.9778	-4.19426e-05
2	0	0	0	0	0	97.1972	0.464042	0.464329	-0.0930746	1	0.0875442	11	0	18.4743	-4.32173e-05
2	0	0	1	0	0	99.6937	0.45156	0.45187	-0.0995671	1	0.0873047	11	0	20.9708	-4.49914e-05
2	1	0	0	0	1	101.963	0.459798	0.460071	0.0862577	2	0.0873937	11	0	1.6977	3.96847e-05
2	1	0	1	0	1	104.459	0.472281	0.472476	0.0863066	2	0.0876092	11	0	4.1942	4.07778e-05
2	1	0	1	0	1	106.956	0.484763	0.485038	0.0851121	2	0.0878254	11	0	6.6907	4.12826e-05
2	1	0	0	0	1	109.453	0.497246	0.497511	0.085177	2	0.0880413	11	0	9.1873	4.23765e-05
2	1	0	1	0	1	111.949	0.509729	0.510018	0.0870787	2	0.0882594	11	0	11.6838	4.44117e-05
2	1	0	1	0	1	114.446	0.522211	0.52249	0.0920136	2	0.0884846	11	0	14.1803	4.80762e-05
2	1	0	0	0	1	116.942	0.534694	0.534923	0.101458	2	0.0887254	11	0	16.6769	5.42721e-05
2	1	0	1	0	1	119.439	0.547177	0.547458	0.119152	2	0.0889975	11	0	19.1734	6.52308e-05
2	1	0	1	0	1	121.935	0.559659	0.559932	0.150471	2	0.0893279	11	0	21.6699	8.42537e-05
2	1	0	1	0	1	124.432	0.572142	0.572425	0.20483	2	0.0897622	11	0	24.1664	0.00011725
2	1	0	1	0	1	126.928	0.584625	0.584909	0.29615	2	0.0903755	11	0	26.663	0.000173221
2	1	0	1	0	1	129.425	0.597107	0.597373	0.441401	2	0.0912814	11	0	29.1595	0.000263681
2	1	0	1	0	1	131.921	0.60959	0.609839	0.657544	2	0.0926368	11	0	31.656	0.000400996
2	1	0	1	0	1	134.418	0.622073	0.622334	0.955096	2	0.0946342	11	0	34.1526	0.000594389
2	1	0	1	0	1	136.914	0.634555	0.634796	1.33502	2	0.0974785	11	0	36.6491	0.000847466
2	1	0	1	0	1	139.411	0.647038	0.647311	1.79274	2	0.101371	11	0	39.1456	0.00116046
2	1	0	1	0	1	141.907	0.659521	0.659766	2.31613	2	0.106491	11	0	41.6422	0.00152811
2	1	0	1	0	1	144.404	0.672003	0.672277	2.8921	2	0.112986	11	0	44.1387	0.00194429
2	1	0	1	0	1	146.9	0.684486	0.684762	3.50701	2	0.120972	11	0	46.6352	0.00240147
2	1	0	1	0	1	149.397	0.696969	0.697275	4.15984	2	0.130547	11	0	49.1318	0.00290055
2	1	0	1	0	1	151.751	0.691227	0.691525	3.81356	2	0.140212	11	0	51.4858	0.00263717
2	1	0	1	0	1	154.248	0.678744	0.679036	3.16016	2	0.148897	11	0	53.9823	0.00214586
2	1	0	0	0	1	156.744	0.666261	0.666498	2.5489	2	0.156012	11	0	56.4789	0.00169884
2	1	0	1	0	1	159.241	0.653779	0.654058	1.99017	2	0.161656	11	0	58.9754	0.00130169
2	1	0	1	0	1	161.737	0.641296	0.641505	1.49321	2	0.165984	11	0	61.4719	0.000957904
2	1	0	1	0	1	164.234	0.628814	0.629095	1.06517	2	0.169157	11	0	63.9684	0.000670091
2	1	0	1	0	1	166.73	0.616331	0.616605	0.712007	2	0.171354	11	0	66.465	0.000439027
2	1	0	1	0	1	169.227	0.603848	0.604127	0.442124	2	0.172772	11	0	68.9615	0.000267099
2	1	0	1	0	1	171.723	0.591366	0.591674	0.248672	2	0.173616	11	0	71.458	0.000147133
2	1	0	1	0	1	174.22	0.578883	0.579156	0.120224	2	0.174061	11	0	73.9546	6.96284e-05
2	1	0	1	0	1	176.716	0.5664	0.566679	0.0387518	2	0.174247	11	0	76.4511	2.19598e-05
2	0	0	1	0	1	179.213	0.553918	0.554239	-0.0105467	2	0.174273	11	0	0.5991	-5.84539e-06
2	0	0	1	0	1	181.709	0.541435	0.541723	-0.0405885	2	0.174202	11	0	3.0957	-2.19877e-05
2	0	0	1	0	1	184.206	0.528952	0.529201	-0.0585899	2	0.174073	11	0	5.5922	-3.10059e-05
2	0	0	0	0	1	186.703	0.516469	0.516677	-0.0695348	2	0.173909	11	0	8.0888	-3.59271e-05
2	0	0	1	0	1	189.199	0.503987	0.504258	-0.076875	2	0.173722	11	0	10.5853	-3.87649e-05
2	0	0	1	0	1	191.696	0.491504	0.491767	-0.0821294	2	0.173519	11	0	13.0818	-4.03885e-05
2	0	0	1	0	1	194.192	0.479022	0.479291	-0.0868971	2	0.173304	11	0	15.5783	-4.1649e-05
2	0	0	1	0	1	196.689	0.466539	0.466857	-0.09141	2	0.173078	11	0	18.0749	-4.26754e-05
2	0	0	1	0	1	199.185	0.454056	0.454307	-0.0959667	2	0.172842	11	0	20.5714	-4.35983e-05
2	1	0	1	0	0	201.454	0.457302	0.457562	0.0818416	3	0.172839	11	0	1.1984	3.74476e-05
2	1	0	1	0	0	203.951	0.469784	0.470053	0.0844745	3	0.173052	11	0	3.6949	3.97075e-05
2	1	0	1	0	0	206.447	0.482267	0.48253	0.0841956	3	0.173267	11	0	6.1914	4.06269e-05
2	1	0	1	0	0	208.944	0.49475	0.495046	0.0843579	3	0.173481	11	0	8.688	4.1761e-05
2	1	0	1	0	0	211.441	0.507232	0.507528	0.0859974	3	0.173696	11	0	11.1845	4.36461e-05
2	1	0	1	0	0	213.937	0.519715	0.519992	0.0904809	3	0.173917	11	0	13.681	4.70494e-05
2	1	0	1	0	0	216.434	0.532198	0.532486	0.0990178	3	0.174151	11	0	16.1776	5.27257e-05
2	1	0	1	0	0	218.93	0.54468	0.544885	0.114063	3	0.174412	11	0	18.6741	6.21512e-05
2	1	0	1	0	0	221.427	0.557163	0.55745	0.140687	3	0.174723	11	0	21.1706	7.84258e-05
2	1	0	1	0	0	223.923	0.569646	0.569872	0.186603	3	0.175125	11	0	23.6672	0.00010634
2	1	0	1	0	0	226.42	0.582128	0.582418	0.265598	3	0.175683	11	0	26.1637	0.000154689
2	1	0	1	0	0	228.916	0.594611	0.594812	0.395721	3	0.176501	11	0	28.6602	0.000235379
2	1	0	1	0	0	231.413	0.607094	0.607408	0.593591	3	0.177724	11	0	31.1568	0.000360552
2	1	0	1	0	0	233.909	0.619576	0.619847	0.871261	3	0.179537	11	0	33.6533	0.000540048
2	1	0	1	0	0	236.406	0.632059	0.632366	1.23093	3	0.182144	11	0	36.1498	0.000778399
2	1	0	1	0	0	238.902	0.644542	0.644824	1.67019	3	0.18575	11	0	38.6464	0.00107698
2	1	0	1	0	0	241.399	0.657024	0.657366	2.17647	3	0.190539	11	0	41.1429	0.00143074
2	1	0	1	0	0	243.895	0.669507	0.669791	2.73632	3	0.19666	11	0	43.6394	0.00183276
2	1	0	1	0	0	246.392	0.68199	0.682287	3.34482	3	0.204243	11	0	46.136	0.00228213
2	1	0	1	0	0	248.889	0.694472	0.694707	3.98418	3	0.213386	11	0	48.6325	0.00276784
2	1	0	1	0	0	251.243	0.693723	0.693957	3.90348	3	0.223044	11	0	50.9865	0.00270884
2	1	0	1	0	0	253.739	0.681241	0.681486	3.23261	3	0.231932	11	0	53.483	0.00220298
2	1	0	1	0	0	256.236	0.668758	0.668989	2.6264	3	0.23923	11	0	55.9796	0.00175703
2	1	0	1	0	0	258.732	0.656275	0.656587	2.06098	3	0.245067	11	0	58.4761	0.00135321
2	1	0	1	0	0	261.229	0.643793	0.644091	1.55218	3	0.249558	11	0	60.9726	0.000999747
2	1	0	1	0	0	263.725	0.63131	0.631583	1.11243	3	0.252864	11	0	63.4692	0.000702594
2	1	0	1	0	0	266.222	0.618827	0.619081	0.749211	3	0.255168	11	0	65.9657	0.000463822
2	1	0	1	0	0	268.718	0.606345	0.606639	0.470473	3	0.256674	11	0	68.4622	0.000285407
2	1	0	1	0	0	271.215	0.593862	0.594137	0.268824	3	0.257585	11	0	70.9588	0.000159718
2	1	0	1	0	0	273.711	0.581379	0.581622	0.132996	3	0.258077	11	0	73.4553	7.73533e-05
2	1	0	1	0	0	276.208	0.568897	0.569185	0.0463087	3	0.258294	11	0	75.9518	2.63582e-05
2	0	0	1	0	0	278.704	0.556414	0.55663	-0.00598081	3	0.258338	11	0	0.1998	-3.3291e-06
2	0	0	1	0	0	281.201	0.543931	0.544124	-0.0373419	3	0.25828	11	0	2.6963	-2.03186e-05
2	0	0	1	0	0	283.697	0.531449	0.531712	-0.0559611	3	0.258159	11	0	5.1928	-2.97552e-05
2	0	0	1	0	0	286.194	0.518966	0.519197	-0.0678219	3	0.258	11	0	7.6894	-3.52129e-05
2	0	0	1	0	0	288.691	0.506483	0.506736	-0.0756357	3	0.257818	11	0	10.1859	-3.83274e-05
2	0	0	1	0	0	291.187	0.494001	0.494268	-0.0812167	3	0.257618	11	0	12.6824	-4.01428e-05
2	0	0	1	0	0	293.684	0.481518	0.481787	-0.0857467	3	0.257406	11	0	15.179	-4.13117e-05
2	0	0	1	0	0	296.18	0.469035	0.469305	-0.0901393	3	0.257183	11	0	17.6755	-4.23028e-05
2	0	0	1	0	0	298.677	0.456553	0.456804	-0.0947616	3	0.256948	11	0	20.172	-4.32875e-05
2	1	0	1	0	1	300.946	0.454805	0.455057	0.0775975	4	0.256857	11	0	0.699	3.53113e-05
2	1	0	1	0	1	303.442	0.467288	0.467528	0.0866217	4	0.257066	11	0	3.1956	4.04981e-05
2	1	0	0	0	1	305.939	0.47977	0.480002	0.0866862	4	0.257279	11	0	5.6921	4.16095e-05
2	1	0	1	0	1	308.435	0.492253	0.492499	0.0851957	4	0.257492	11	0	8.1886	4.19589e-05
2	1	0	1	0	1	310.932	0.504736	0.505007	0.0845426	4	0.257706	11	0	10.6852	4.26946e-05
2	1	0	0	0	1	313.429	0.517218	0.517543	0.0882669	4	0.257924	11	0	13.1817	4.56819e-05
2	1	0	1	0	1	315.925	0.529701	0.529969	0.0963649	4	0.258154	11	0	15.6782	5.10704e-05
2	1	0	1	0	1	318.422	0.542184	0.542446	0.108716	4	0.258406	11	0	18.1748	5.89724e-05
2	1	0	0	0	1	320.918	0.554666	0.554986	0.1297	4	0.2587	11	0	20.6713	7.19815e-05
2	1	0	1	0	1	323.415	0.567149	0.567407	0.170313	4	0.259073	11	0	23.1678	9.66369e-05
2	1	0	1	0	1	325.911	0.579632	0.579903	0.242277	4	0.259583	11	0	25.6644	0.000140497
2	1	0	0	0	1	328.408	0.592114	0.592384	0.359461	4	0.260323	11	0	28.1609	0.000212939
2	1	0	1	0	1	330.904	0.604597	0.604851	0.538523	4	0.261428	11	0	30.6574	0.000325726
2	1	0	1	0	1	333.401	0.61708	0.617355	0.795218	4	0.263074	11	0	33.154	0.000490932
2	1	0	0	0	1	335.897	0.629562	0.629853	1.1354	4	0.265465	11	0	35.6505	0.000715133
2	1	0	1	0	1	338.394	0.642044	0.642317	1.55587	4	0.268809	11	0	38.147	0.00099936
2	1	0	1	0	1	340.89	0.654528	0.65479	2.0448	4	0.273294	11	0	40.6436	0.00133891
2	1	0	0	0	1	343.387	0.66701	0.667257	2.58978	4	0.279074	11	0	43.1401	0.00172805
2	1	0	1	0	1	345.883	0.679493	0.679771	3.18539	4	0.286281	11	0	45.6366	0.00216533
2	1	0	1	0	1	348.38	0.691976	0.692256	3.82206	4	0.295025	11	0	48.1332	0.00264585
2	1	0	1	0	1	350.734	0.69622	0.696464	4.01924	4	0.304591	11	0	50.4872	0.00279925
2	1	0	0	0	1	353.231	0.683737	0.684061	3.33955	4	0.313758	11	0	52.9837	0.00228445
2	1	0	1	0	1	355.727	0.671255	0.671521	2.72708	4	0.321318	11	0	55.4802	0.00183129
2	1	0	1	0	1	358.224	0.658772	0.659	2.15094	4	0.327396	11	0	57.9768	0.00141747
2	1	0	0	0	1	360.72	0.646289	0.646543	1.63145	4	0.332105	11	0	60.4733	0.0010548
2	1	0	1	0	1	363.217	0.633807	0.634093	1.17843	4	0.335596	11	0	62.9698	0.000747236
2	1	0	1	0	1	365.713	0.621324	0.621572	0.810912	4	0.338062	11	0	65.4664	0.000504041
2	1	0	0	0	1	368.21	0.608841	0.609141	0.516798	4	0.3397	11	0	67.9629	0.000314802
2	1	0	1	0	1	370.706	0.596359	0.596663	0.301877	4	0.340701	11	0	70.4594	0.000180119
2	1	0	1	0	1	373.203	0.583876	0.584143	0.153592	4	0.341253	11	0	72.956	8.97196e-05
2	1	0	0	0	1	375.699	0.571393	0.571692	0.0579776	4	0.341508	11	0	75.4525	3.31453e-05
2	0	0	1	0	1	378.196	0.558911	0.559146	-0.000612131	4	0.341575	11	0	77.949	-3.42271e-07
2	0	0	1	0	1	380.692	0.546428	0.546684	-0.0344763	4	0.34153	11	0	2.2968	-1.88476e-05
2	0	0	0	0	1	383.189	0.533945	0.534211	-0.0530563	4	0.341418	11	0	4.7933	-2.83433e-05
2	0	0	1	0	1	385.685	0.521463	0.521681	-0.0660878	4	0.341265	11	0	7.2898	-3.44767e-05
2	0	0	1	0	1	388.182	0.50898	0.509218	-0.076207	4	0.341086	11	0	9.7864	-3.8806e-05
2	0	0	0	0	1	390.679	0.496497	0.496747	-0.0819888	4	0.34089	11	0	12.2829	-4.07277e-05
2	0	0	1	0	1	393.175	0.484015	0.48428	-0.0847413	4	0.340681	11	0	14.7794	-4.10385e-05
2	0	0	1	0	1	395.672	0.471532	0.471787	-0.0896403	4	0.340461	11	0	17.276	-4.22911e-05
2	0	0	0	0	1	398.168	0.459049	0.459322	-0.0956806	4	0.34023	11	0	19.7725	-4.39482e-05
2	1	0	1	0	0	400.437	0.452309	0.452594	0.0539156	5	0.340058	11	0	0.1998	2.44019e-05
2	1	0	0	0	0	402.934	0.464791	0.465007	0.083385	5	0.340258	11	0	2.6963	3.87746e-05
2	1	0	1	0	0	405.43	0.477274	0.477527	0.0841176	5	0.34047	11	0	5.1928	4.01684e-05
2	1	0	1	0	0	407.927	0.489757	0.490087	0.0861289	5	0.340682	11	0	7.6894	4.22107e-05
2	1	0	0	0	0	410.424	0.502239	0.502518	0.0857183	5	0.340894	11	0	10.1859	4.3075e-05
2	1	0	1	0	0	412.92	0.514722	0.514997	0.0861819	5	0.34111	11	0	12.6824	4.43835e-05
2	1	0	1	0	0	415.417	0.527205	0.527461	0.0928464	5	0.341335	11	0	15.179	4.89729e-05
2	1	0	0	0	0	417.913	0.539687	0.539912	0.105168	5	0.341579	11	0	17.6755	5.67813e-05
2	1	0	1	0	0	420.41	0.55217	0.552421	0.124562	5	0.341861	11	0	20.172	6.88108e-05
2	1	0	1	0	0	422.906	0.564653	0.564875	0.158612	5	0.342211	11	0	22.6686	8.9596e-05
2	1	0	0	0	0	425.403	0.577135	0.577389	0.221144	5	0.342681	11	0	25.1651	0.000127686
2	1	0	1	0	0	427.899	0.589618	0.589899	0.326439	5	0.343356	11	0	27.6616	0.000192566
2	1	0	1	0	0	430.396	0.602101	0.602426	0.489371	5	0.344359	11	0	30.1582	0.00029481
2	1	0	0	0	0	432.892	0.614583	0.614796	0.724046	5	0.345857	11	0	32.6547	0.00044514
2	1	0	1	0	0	435.389	0.627066	0.627305	1.0408	5	0.348046	11	0	35.1512	0.0006529
2	1	0	1	0	0	437.885	0.639549	0.639806	1.44215	5	0.351133	11	0	37.6477	0.000922696
2	1	0	0	0	0	440.382	0.652031	0.652285	1.91529	5	0.355311	11	0	40.1443	0.00124932
2	1	0	1	0	0	442.878	0.664514	0.664722	2.4453	5	0.360744	11	0	42.6408	0.00162544
2	1	0	1	0	0	445.375	0.676996	0.677245	3.03008	5	0.367571	11	0	45.1373	0.0020521
2	1	0	0	0	0	447.872	0.689479	0.689729	3.65725	5	0.375917	11	0	47.6339	0.00252251
2	1	0	0	0	0	450.226	0.698716	0.698988	4.12186	5	0.385225	11	0	49.9879	0.00288114
2	1	0	1	0	0	452.722	0.686234	0.686484	3.42478	5	0.394629	11	0	52.4844	0.00235106
2	1	0	1	0	0	455.219	0.67375	0.673983	2.77972	5	0.402362	11	0	54.981	0.00187349
2	1	0	0	0	0	457.715	0.661268	0.661529	2.19287	5	0.408555	11	0	57.4775	0.00145064
2	1	0	1	0	0	460.212	0.648786	0.649052	1.66937	5	0.413356	11	0	59.974	0.00108351
2	1	0	1	0	0	462.708	0.636303	0.636594	1.21494	5	0.416939	11	0	62.4706	0.000773423
2	1	0	0	0	0	465.205	0.62382	0.624081	0.841279	5	0.419489	11	0	64.9671	0.000525026
2	1	0	1	0	0	467.701	0.611338	0.611615	0.544375	5	0.421201	11	0	67.4636	0.000332948
2	1	0	1	0	0	470.198	0.598854	0.59912	0.323408	5	0.422265	11	0	69.9602	0.00019376
2	1	0	0	0	0	472.694	0.586372	0.586636	0.168156	5	0.422866	11	0	72.4567	9.86464e-05
2	1	0	1	0	0	475.191	0.57389	0.574153	0.0689857	5	0.423155	11	0	74.9532	3.96083e-05
2	1	0	1	0	0	477.687	0.561406	0.561657	0.0093812	5	0.423245	11	0	77.4498	5.26901e-06
2	0	0	0	0	0	480.184	0.548924	0.549167	-0.0284114	5	0.423215	11	0	1.9973	-1.56026e-05
2	0	0	1	0	0	482.68	0.536442	0.536723	-0.052862	5	0.423111	11	0	4.4938	-2.83723e-05
2	0	0	1	0	0	485.177	0.523958	0.524252	-0.0662583	5	0.422964	11	0	6.9904	-3.47361e-05
2	0	0	0	0	0	487.674	0.511476	0.511738	-0.0733044	5	0.422789	11	0	9.4869	-3.75126e-05
2	0	0	1	0	0	490.17	0.498994	0.499313	-0.0788429	5	0.422596	11	0	11.9834	-3.93673e-05
2	0	0	1	0	0	492.667	0.486511	0.486822	-0.0854208	5	0.422389	11	0	14.4799	-4.15847e-05
2	0	0	0	0	0	495.163	0.474028	0.474253	-0.0908038	5	0.422171	11	0	16.9765	-4.3064e-05
2	0	0	1	0	0	497.66	0.461546	0.461814	-0.0929047	5	0.421943	11	0	19.473	-4.29047e-05
2	0	0	1	0	1	499.974	0.450037	0.450264	-0.0928482	6	0.421722	11	0	21.7871	-4.18062e-05
2	1	0	1	0	1	502.425	0.462295	0.46254	0.0840623	6	0.42188	11	0	2.197	3.88821e-05
2	1	0	1	0	1	504.922	0.474777	0.475067	0.0861229	6	0.422091	11	0	4.6935	4.09142e-05
2	1	0	1	0	1	507.418	0.48726	0.487502	0.0839577	6	0.422302	11	0	7.19	4.09295e-05
2	1	0	1	0	1	509.915	0.499743	0.499983	0.0835765	6	0.422514	11	0	9.6866	4.17868e-05
2	1	0	1	0	1	512.412	0.512225	0.512497	0.0876545	6	0.422728	11	0	12.1831	4.49227e-05
2	1	0	1	0	1	514.908	0.524708	0.525004	0.091973	6	0.422949	11	0	14.6796	4.82861e-05
2	1	0	1	0	1	517.405	0.537191	0.537491	0.0988319	6	0.423187	11	0	17.1762	5.31212e-05
2	1	0	1	0	1	519.901	0.549673	0.549937	0.116971	6	0.423457	11	0	19.6727	6.43266e-05
2	1	0	1	0	1	522.398	0.562156	0.562411	0.150256	6	0.423785	11	0	22.1692	8.45053e-05
2	1	0	1	0	1	524.894	0.574639	0.574899	0.203814	6	0.42422	11	0	24.6658	0.000117172
2	1	0	1	0	1	527.391	0.587121	0.587433	0.294708	6	0.424835	11	0	27.1623	0.000173121
2	1	0	1	0	1	529.887	0.599604	0.599854	0.443802	6	0.425745	11	0	29.6588	0.000266216
2	1	0	1	0	1	532.384	0.612087	0.612307	0.661236	6	0.427107	11	0	32.1554	0.00040488
2	1	0	1	0	1	534.88	0.624569	0.624798	0.957695	6	0.429113	11	0	34.6519	0.000598366
2	1	0	1	0	1	537.377	0.637052	0.637334	1.34246	6	0.431971	11	0	37.1484	0.000855593
2	1	0	1	0	1	539.873	0.649535	0.649765	1.80127	6	0.435881	11	0	39.645	0.0011704
2	1	0	1	0	1	542.37	0.662017	0.662321	2.32209	6	0.441017	11	0	42.1415	0.00153797
2	1	0	1	0	1	544.866	0.6745	0.67478	2.89972	6	0.447528	11	0	44.638	0.00195668
2	1	0	1	0	1	547.363	0.686983	0.687221	3.53149	6	0.455552	11	0	47.1346	0.00242691
2	1	0	1	0	1	549.86	0.699465	0.699705	4.17983	6	0.465176	11	0	49.6311	0.00292464
2	1	0	1	0	1	552.214	0.68873	0.688962	3.58026	6	0.474346	11	0	51.9851	0.00246666
2	1	0	1	0	1	554.71	0.676248	0.676503	2.92796	6	0.482458	11	0	54.4816	0.00198077
2	1	0	1	0	1	557.207	0.663765	0.664022	2.33	6	0.489008	11	0	56.9782	0.00154717
2	1	0	1	0	1	559.703	0.651282	0.65151	1.79203	6	0.494141	11	0	59.4747	0.00116752
2	1	0	1	0	1	562.2	0.6388	0.639008	1.31717	6	0.498002	11	0	61.9712	0.000841685
2	1	0	1	0	1	564.696	0.626317	0.626592	0.914118	6	0.500768	11	0	64.4678	0.00057278
2	1	0	1	0	1	567.193	0.613834	0.614103	0.600882	6	0.502644	11	0	66.9643	0.000369003
2	1	0	1	0	1	569.689	0.601352	0.601608	0.362843	6	0.503828	11	0	69.4608	0.000218289
2	1	0	1	0	1	572.186	0.588869	0.589159	0.193066	6	0.504508	11	0	71.9574	0.000113747
2	1	0	1	0	1	574.682	0.576386	0.576638	0.084489	6	0.504845	11	0	74.4539	4.87196e-05
2	1	0	1	0	1	577.179	0.563904	0.564168	0.0183936	6	0.504966	11	0	76.9504	1.03771e-05
2	0	0	1	0	1	579.675	0.551421	0.551718	-0.0230001	6	0.504953	11	0	1.3981	-1.26896e-05
2	0	0	1	0	1	582.172	0.538938	0.539198	-0.0493451	6	0.504861	11	0	3.8946	-2.66068e-05
2	0	0	1	0	1	584.668	0.526456	0.526731	-0.063254	6	0.504721	11	0	6.3911	-3.33178e-05
2	0	0	1	0	1	587.165	0.513973	0.514256	-0.0707667	6	0.504551	11	0	8.8877	-3.63922e-05
2	0	0	1	0	1	589.662	0.50149	0.501796	-0.0793583	6	0.504362	11	0	11.3842	-3.98217e-05
2	0	0	1	0	1	592.158	0.489008	0.489257	-0.0845967	6	0.504158	11	0	13.8807	-4.13896e-05
2	0	0	1	0	1	594.655	0.476525	0.476764	-0.086287	6	0.503944	11	0	16.3773	-4.11385e-05
2	0	0	1	0	1	597.151	0.464042	0.464271	-0.0922489	6	0.50372	11	0	18.8738	-4.28285e-05
2	0	0	1	0	1	599.648	0.45156	0.451807	-0.0979702	6	0.503484	11	0	21.3703	-4.42636e-05
2	1	0	1	0	0	601.917	0.459798	0.460035	0.0815581	7	0.50357	11	0	1.6977	3.75196e-05
2	1	0	1	0	0	604.413	0.472281	0.472533	0.0841774	7	0.50378	11	0	4.1942	3.97766e-05
2	1	0	0	0	0	606.91	0.484763	0.485013	0.0859727	7	0.503991	11	0	6.6907	4.16978e-05
2	1	0	1	0	0	609.407	0.497246	0.497502	0.0835738	7	0.504202	11	0	9.1873	4.15781e-05
2	1	0	1	0	0	611.903	0.509729	0.510029	0.0851108	7	0.504415	11	0	11.6838	4.3409e-05
2	1	0	0	0	0	614.4	0.522211	0.52246	0.0911111	7	0.504633	11	0	14.1803	4.76018e-05
2	1	0	1	0	0	616.896	0.534694	0.534954	0.0959453	7	0.504866	11	0	16.6769	5.13263e-05
2	1	0	1	0	0	619.393	0.547177	0.547431	0.112078	7	0.505125	11	0	19.1734	6.13552e-05
2	1	0	0	0	0	621.889	0.559659	0.559939	0.141283	7	0.505437	11	0	21.6699	7.91099e-05
2	1	0	1	0	0	624.386	0.572142	0.572389	0.187884	7	0.505841	11	0	24.1664	0.000107543
2	1	0	1	0	0	626.882	0.584625	0.584921	0.269568	7	0.506406	11	0	26.663	0.000157676
2	1	0	0	0	0	629.379	0.597107	0.597371	0.404311	7	0.507235	11	0	29.1595	0.000241524
2	1	0	1	0	0	631.875	0.60959	0.609874	0.602106	7	0.508475	11	0	31.656	0.000367209
2	1	0	1	0	0	634.372	0.622073	0.62235	0.880651	7	0.510312	11	0	34.1526	0.000548073
2	1	0	0	0	0	636.868	0.634555	0.634811	1.24693	7	0.512953	11	0	36.6491	0.000791563
2	1	0	1	0	0	639.365	0.647038	0.647341	1.68637	7	0.516599	11	0	39.1456	0.00109166
2	1	0	1	0	0	641.861	0.659521	0.659782	2.19116	7	0.521431	11	0	41.6422	0.00144569
2	1	0	0	0	0	644.358	0.672003	0.672289	2.7548	7	0.527599	11	0	44.1387	0.00185202
2	1	0	1	0	0	646.854	0.684486	0.684741	3.36914	7	0.535231	11	0	46.6352	0.00230699
2	1	0	1	0	0	649.351	0.696969	0.697244	4.01579	7	0.544446	11	0	49.1318	0.00279999
2	1	0	1	0	0	651.705	0.691227	0.691424	3.68696	7	0.553794	11	0	51.4858	0.00254925
2	1	0	0	0	0	654.202	0.678744	0.678992	3.0325	7	0.562171	11	0	53.9823	0.00205904
2	1	0	1	0	0	656.698	0.666261	0.66652	2.43779	7	0.568987	11	0	56.4789	0.00162483
2	1	0	1	0	0	659.195	0.653779	0.654008	1.89018	7	0.574374	11	0	58.9754	0.00123619
2	1	0	0	0	0	661.691	0.641296	0.641511	1.39789	7	0.578458	11	0	61.4719	0.00089676
2	1	0	1	0	0	664.188	0.628814	0.629083	0.980585	7	0.581406	11	0	63.9684	0.00061687
2	1	0	1	0	0	666.684	0.616331	0.616609	0.645628	7	0.583417	11	0	66.465	0.0003981
2	1	0	0	0	0	669.181	0.603848	0.60415	0.394659	7	0.584699	11	0	68.9615	0.000238433
2	1	0	1	0	0	671.677	0.591366	0.591597	0.217878	7	0.585452	11	0	71.458	0.000128896
2	1	0	1	0	0	674.174	0.578883	0.579122	0.101159	7	0.58584	11	0	73.9546	5.85831e-05
2	1	0	0	0	0	676.67	0.5664	0.566677	0.0281371	7	0.585991	11	0	76.4511	1.59447e-05
2	0	0	1	0	0	679.167	0.553918	0.554178	-0.0162959	7	0.585998	11	0	0.9986	-9.0308e-06
2	0	0	1	0	0	681.663	0.541435	0.541689	-0.04473	7	0.585917	11	0	3.4952	-2.42297e-05
2	0	0	0	0	0	684.16	0.528952	0.529212	-0.0617533	7	0.585785	11	0	5.9917	-3.26805e-05
2	0	0	1	0	0	686.657	0.516469	0.516729	-0.070319	7	0.585621	11	0	8.4883	-3.63359e-05
2	0	0	1	0	0	689.153	0.503987	0.504221	-0.0757721	7	0.585436	11	0	10.9848	-3.82059e-05
2	0	0	0	0	0	691.65	0.491504	0.491725	-0.0806321	7	0.585237	11	0	13.4813	-3.96489e-05
2	0	0	1	0	0	694.146	0.479022	0.479275	-0.08608	7	0.585026	11	0	15.9778	-4.1256e-05
2	0	0	1	0	0	696.643	0.466539	0.466786	-0.0918502	7	0.584805	11	0	18.4744	-4.28744e-05
2	0	0	0	0	0	699.139	0.454056	0.454333	-0.0969141	7	0.584572	11	0	20.9709	-4.40313e-05
2	1	0	1	0	1	701.408	0.457302	0.457574	0.0804073	8	0.584569	11	0	1.1984	3.67923e-05
2	1	0	0	0	1	703.905	0.469784	0.470062	0.0825608	8	0.584776	11	0	3.6949	3.88087e-05
2	1	0	1	0	1	706.401	0.482267	0.482514	0.0846314	8	0.584987	11	0	6.1914	4.08359e-05
2	1	0	1	0	1	708.898	0.49475	0.49501	0.0859665	8	0.585197	11	0	8.688	4.25543e-05
2	1	0	0	0	1	711.395	0.507232	0.50744	0.0845032	8	0.585409	11	0	11.1845	4.28803e-05
2	1	0	1	0	1	713.891	0.519715	0.51997	0.0872935	8	0.585625	11	0	13.681	4.539e-05
2	1	0	1	0	1	716.388	0.532198	0.532456	0.0964973	8	0.585853	11	0	16.1776	5.13806e-05
2	1	0	0	0	1	718.884	0.54468	0.544972	0.108097	8	0.586105	11	0	18.6741	5.89096e-05
2	1	0	1	0	1	721.381	0.557163	0.557489	0.130408	8	0.586402	11	0	21.1706	7.2701e-05
2	1	0	1	0	1	723.877	0.569646	0.569911	0.173905	8	0.586779	11	0	23.6672	9.91105e-05
2	1	0	0	0	1	726.374	0.582128	0.582348	0.248654	8	0.587299	11	0	26.1637	0.000144803
2	1	0	1	0	1	728.87	0.594611	0.594859	0.366091	8	0.588053	11	0	28.6602	0.000217772
2	1	0	1	0	1	731.367	0.607094	0.607331	0.545855	8	0.589179	11	0	31.1568	0.000331515
2	1	0	0	0	1	733.863	0.619576	0.619858	0.806637	8	0.590855	11	0	33.6533	0.000500001
2	1	0	1	0	1	736.36	0.632059	0.632319	1.15112	8	0.593282	11	0	36.1498	0.000727876
2	1	0	1	0	1	738.856	0.644542	0.644781	1.57148	8	0.596665	11	0	38.6464	0.00101326
2	1	0	0	0	1	741.353	0.657024	0.657304	2.06195	8	0.60119	11	0	41.1429	0.00135533
2	1	0	1	0	1	743.849	0.669507	0.66981	2.61881	8	0.607026	11	0	43.6394	0.0017541
2	1	0	1	0	1	746.346	0.68199	0.682267	3.22675	8	0.614314	11	0	46.136	0.00220151
2	1	0	0	0	1	748.843	0.694472	0.694749	3.86881	8	0.623172	11	0	48.6325	0.00268785
2	1	0	0	0	1	751.197	0.693723	0.693989	3.80034	8	0.632571	11	0	50.9865	0.0026374
2	1	0	1	0	1	753.693	0.681241	0.681503	3.13119	8	0.641214	11	0	53.483	0.00213391
2	1	0	1	0	1	756.19	0.668758	0.669007	2.51099	8	0.648238	11	0	55.9796	0.00167987
2	1	0	0	0	1	758.686	0.656275	0.656531	1.97121	8	0.653823	11	0	58.4761	0.00129416
2	1	0	1	0	1	761.183	0.643793	0.64407	1.47599	8	0.658107	11	0	60.9726	0.000950642
2	1	0	1	0	1	763.679	0.63131	0.631578	1.04917	8	0.661243	11	0	63.4692	0.000662633
2	1	0	0	0	1	766.176	0.618827	0.619111	0.698454	8	0.663407	11	0	65.9657	0.00043242
2	1	0	1	0	1	768.672	0.606345	0.606597	0.433429	8	0.664805	11	0	68.4622	0.000262917
2	1	0	1	0	1	771.169	0.593862	0.5941	0.244756	8	0.665636	11	0	70.9588	0.00014541
2	1	0	0	0	1	773.665	0.581379	0.581623	0.118311	8	0.666073	11	0	73.4553	6.88125e-05
2	1	0	1	0	1	776.162	0.568897	0.569132	0.0378408	8	0.666257	11	0	75.9518	2.15364e-05
2	0	0	1	0	1	778.658	0.556414	0.556687	-0.0118505	8	0.666284	11	0	0.5992	-6.59702e-06
2	0	0	0	0	1	781.155	0.543931	0.544188	-0.0417735	8	0.666216	11	0	3.0957	-2.27326e-05
2	0	0	1	0	1	783.651	0.531449	0.531756	-0.0593081	8	0.666091	11	0	5.5922	-3.15374e-05
2	0	0	1	0	1	786.148	0.518966	0.519217	-0.0695717	8	0.665932	11	0	8.0888	-3.61228e-05
2	0	0	0	0	1	788.645	0.506483	0.506728	-0.0760625	8	0.66575	11	0	10.5853	-3.8543e-05
2	0	0	1	0	1	791.141	0.494001	0.494237	-0.0799311	8	0.665553	11	0	13.0818	-3.95049e-05
2	0	0	1	0	1	793.638	0.481518	0.481824	-0.0845307	8	0.665344	11	0	15.5784	-4.07289e-05
2	0	0	0	0	1	796.134	0.469035	0.469296	-0.0900665	8	0.665124	11	0	18.0749	-4.22678e-05
2	0	0	1	0	1	798.631	0.456553	0.456847	-0.0956484	8	0.664894	11	0	20.5714	-4.36967e-05
2	1	0	1	0	0	800.9	0.454805	0.455043	0.0761617	9	0.664804	11	0	0.699	3.46568e-05
2	1	0	1	0	0	803.396	0.467288	0.467513	0.0832456	9	0.665008	11	0	3.1956	3.89184e-05
2	1	0	1	0	0	805.893	0.47977	0.480051	0.0834092	9	0.665217	11	0	5.6921	4.00406e-05
2	1	0	1	0	0	808.389	0.492253	0.492525	0.0826755	9	0.665427	11	0	8.1886	4.07198e-05
2	1	0	1	0	0	810.886	0.504736	0.50505	0.083053	9	0.665637	11	0	10.6852	4.19459e-05
2	1	0	1	0	0	813.383	0.517218	0.517465	0.0855574	9	0.665851	11	0	13.1817	4.42729e-05
2	1	0	1	0	0	815.879	0.529701	0.529972	0.0912804	9	0.666074	11	0	15.6782	4.83761e-05
2	1	0	1	0	0	818.376	0.542184	0.542484	0.10263	9	0.666318	11	0	18.1748	5.56751e-05
2	1	0	1	0	0	820.872	0.554666	0.554939	0.123582	9	0.666601	11	0	20.6713	6.85804e-05
2	1	0	1	0	0	823.369	0.567149	0.567428	0.160429	9	0.666954	11	0	23.1678	9.10318e-05
2	1	0	1	0	0	825.865	0.579632	0.579907	0.224914	9	0.667432	11	0	25.6644	0.00013043
2	1	0	1	0	0	828.362	0.592114	0.592369	0.330904	9	0.668119	11	0	28.1609	0.000196017
2	1	0	1	0	0	830.858	0.604597	0.604898	0.495622	9	0.669142	11	0	30.6574	0.000299801
2	1	0	1	0	0	833.355	0.61708	0.617374	0.736369	9	0.670668	11	0	33.154	0.000454615
2	1	0	1	0	0	835.851	0.629562	0.629791	1.05944	9	0.672895	11	0	35.6505	0.000667224
2	1	0	1	0	0	838.348	0.642044	0.642309	1.46338	9	0.676031	11	0	38.147	0.00093994
2	1	0	1	0	0	840.844	0.654528	0.654791	1.93969	9	0.680265	11	0	40.6436	0.00127009
2	1	0	1	0	0	843.341	0.66701	0.667248	2.4813	9	0.685769	11	0	43.1401	0.00165564
2	1	0	1	0	0	845.837	0.679493	0.679794	3.06757	9	0.692687	11	0	45.6366	0.00208532
2	1	0	1	0	0	848.334	0.691976	0.692242	3.69271	9	0.701119	11	0	48.1332	0.00255625
2	1	0	1	0	0	850.688	0.69622	0.696507	3.89321	9	0.710376	11	0	50.4872	0.00271165
2	1	0	1	0	0	853.185	0.683737	0.683974	3.23461	9	0.719259	11	0	52.9837	0.00221239
2	1	0	1	0	0	855.681	0.671255	0.671519	2.61192	9	0.726545	11	0	55.4802	0.00175395
2	1	0	1	0	0	858.178	0.658772	0.65902	2.05176	9	0.732351	11	0	57.9768	0.00135215
2	1	0	1	0	0	860.674	0.646289	0.646541	1.54712	9	0.736831	11	0	60.4733	0.00100028
2	1	0	1	0	0	863.171	0.633807	0.63406	1.11131	9	0.740136	11	0	62.9698	0.000704635
2	1	0	1	0	0	865.667	0.621324	0.621604	0.750724	9	0.742443	11	0	65.4664	0.000466653
2	1	0	1	0	0	868.164	0.608841	0.609079	0.472832	9	0.743951	11	0	67.9629	0.000287992
2	1	0	1	0	0	870.66	0.596359	0.596662	0.271099	9	0.744861	11	0	70.4594	0.000161755
2	1	0	1	0	0	873.157	0.583876	0.584127	0.135181	9	0.745353	11	0	72.956	7.89626e-05
2	1	0	1	0	0	875.653	0.571393	0.571671	0.0476529	9	0.745571	11	0	75.4525	2.72418e-05
2	0	0	1	0	0	878.15	0.558911	0.559171	-0.00585446	9	0.745619	11	0	0.1997	-3.27365e-06
2	0	0	1	0	0	880.646	0.546428	0.546718	-0.0377249	9	0.745565	11	0	2.6963	-2.06249e-05
2	0	0	1	0	0	883.143	0.533945	0.534193	-0.0563684	9	0.745449	11	0	5.1928	-3.01116e-05
2	0	0	1	0	0	885.639	0.521463	0.521662	-0.0682194	9	0.745295	11	0	7.6893	-3.55874e-05
2	0	0	1	0	0	888.136	0.50898	0.509259	-0.0757739	9	0.745118	11	0	10.1859	-3.85885e-05
2	0	0	1	0	0	890.633	0.496497	0.496749	-0.0811066	9	0.744925	11	0	12.6824	-4.02896e-05
2	0	0	1	0	0	893.129	0.484015	0.484309	-0.0852567	9	0.744719	11	0	15.1789	-4.12906e-05
2	0	0	1	0	0	895.626	0.471532	0.471779	-0.0892079	9	0.744503	11	0	17.6755	-4.20864e-05
2	0	0	1	0	0	898.122	0.459049	0.459317	-0.0935717	9	0.744276	11	0	20.172	-4.2979e-05
2	1	0	1	0	1	900.391	0.452309	0.452603	0.0533504	10	0.744107	11	0	0.1998	2.41466e-05
2	1	0	1	0	1	902.888	0.464791	0.46502	0.0842235	10	0.744302	11	0	2.6963	3.91656e-05
2	1	0	1	0	1	905.384	0.477274	0.477503	0.0851597	10	0.74451	11	0	5.1928	4.0664e-05
2	1	0	1	0	1	907.881	0.489757	0.490037	0.0847106	10	0.744719	11	0	7.6894	4.15113e-05
2	1	0	1	0	1	910.378	0.502239	0.50254	0.0850607	10	0.744927	11	0	10.1859	4.27464e-05
2	1	0	1	0	1	912.874	0.514722	0.515022	0.0870274	10	0.74514	11	0	12.6824	4.4821e-05
2	1	0	1	0	1	915.371	0.527205	0.527517	0.0912433	10	0.745361	11	0	15.179	4.81324e-05
2	1	0	1	0	1	917.867	0.539687	0.539961	0.101195	10	0.745599	11	0	17.6755	5.46415e-05
2	1	0	1	0	1	920.364	0.55217	0.552438	0.119872	10	0.745871	11	0	20.172	6.62218e-05
2	1	0	1	0	1	922.86	0.564653	0.564949	0.152825	10	0.746205	11	0	22.6686	8.63382e-05
2	1	0	1	0	1	925.357	0.577135	0.577421	0.209442	10	0.746647	11	0	25.1651	0.000120936
2	1	0	1	0	1	927.853	0.589618	0.589922	0.303641	10	0.747275	11	0	27.6616	0.000179125
2	1	0	1	0	1	930.35	0.602101	0.602333	0.452707	10	0.748203	11	0	30.1582	0.00027268
2	1	0	1	0	1	932.846	0.614583	0.614889	0.673539	10	0.749591	11	0	32.6547	0.000414152
2	1	0	1	0	1	935.343	0.627066	0.627331	0.97396	10	0.751629	11	0	35.1512	0.000610995
2	1	0	0	0	1	937.839	0.639549	0.639844	1.35651	10	0.75452	11	0	37.6477	0.000867956
2	1	0	1	0	1	940.336	0.652031	0.652319	1.8132	10	0.758462	11	0	40.1443	0.00118278
2	1	0	1	0	1	942.832	0.664514	0.664761	2.33227	10	0.763624	11	0	42.6408	0.0015504
2	1	0	0	0	1	945.329	0.676996	0.677198	2.90214	10	0.770149	11	0	45.1373	0.00196532
2	1	0	1	0	1	947.826	0.689479	0.689737	3.52414	10	0.778161	11	0	47.6339	0.00243073
2	1	0	1	0	1	950.18	0.698716	0.69897	3.98529	10	0.787153	11	0	49.9879	0.0027856
2	1	0	1	0	1	952.676	0.686234	0.686487	3.2986	10	0.796229	11	0	52.4844	0.00226444
2	1	0	1	0	1	955.173	0.67375	0.67407	2.66795	10	0.803663	11	0	54.981	0.00179839
2	1	0	1	0	1	957.669	0.661268	0.661555	2.10091	10	0.809608	11	0	57.4775	0.00138987
2	1	0	1	0	1	960.166	0.648786	0.649019	1.58699	10	0.814198	11	0	59.974	0.00102999
2	1	0	1	0	1	962.662	0.636303	0.636576	1.14173	10	0.817587	11	0	62.4706	0.000726798
2	1	0	1	0	1	965.159	0.62382	0.624058	0.787447	10	0.819978	11	0	64.9671	0.000491413
2	1	0	1	0	1	967.655	0.611338	0.611658	0.502636	10	0.821568	11	0	67.4636	0.000307441
2	1	0	1	0	1	970.152	0.598854	0.599126	0.293865	10	0.822543	11	0	69.9602	0.000176062
2	1	0	1	0	1	972.648	0.586372	0.586677	0.149194	10	0.823082	11	0	72.4567	8.75284e-05
2	1	0	1	0	1	975.145	0.57389	0.57417	0.0578206	10	0.823332	11	0	74.9532	3.31989e-05
2	1	0	1	0	1	977.641	0.561406	0.561666	0.00132055	10	0.823401	11	0	77.4498	7.4171e-07
2	0	0	1	0	1	980.138	0.548924	0.549197	-0.0325813	10	0.82336	11	0	2.197	-1.78935e-05
2	0	0	1	0	1	982.634	0.536442	0.536717	-0.0535979	10	0.823253	11	0	4.6935	-2.87669e-05
2	0	0	1	0	1	985.131	0.523958	0.524229	-0.0666092	10	0.823105	11	0	7.1901	-3.49185e-05
2	0	0	1	0	1	987.628	0.511476	0.511725	-0.0742932	10	0.822932	11	0	9.6866	-3.80177e-05
2	0	0	1	0	1	990.124	0.498994	0.499213	-0.0792972	10	0.822741	11	0	12.1831	-3.95862e-05
2	0	0	0	0	1	992.621	0.486511	0.486792	-0.0826973	10	0.822538	11	0	14.6796	-4.02564e-05
2	0	0	1	0	1	995.117	0.474028	0.47426	-0.0861136	10	0.822324	11	0	17.1762	-4.08402e-05
2	0	0	1	0	1	997.614	0.461546	0.461742	-0.0914165	10	0.8221	11	0	19.6727	-4.22109e-05
2	0	0	0	0	0	999.928	0.450037	0.450226	-0.0833895	11	0.821883	11	0	21.9868	-3.75441e-05
2	1	0	1	0	0	1002.38	0.462295	0.462506	0.0827497	11	0.822038	11	0	2.197	3.82722e-05
2	1	0	0	0	0	1004.88	0.474777	0.475026	0.082993	11	0.822244	11	0	4.6935	3.94239e-05
2	1	0	1	0	0	1007.37	0.48726	0.487479	0.0821304	11	0.822452	11	0	7.19	4.00368e-05
2	1	0	1	0	0	1009.87	0.499743	0.500033	0.0819712	11	0.82266	11	0	9.6866	4.09883e-05
2	1	0	0	0	0	1012.37	0.512225	0.512442	0.0841933	11	0.82287	11	0	12.1831	4.31442e-05
2	1	0	1	0	0	1014.86	0.524708	0.524987	0.0895062	11	0.823087	11	0	14.6796	4.69896e-05
2	1	0	1	0	0	1017.36	0.537191	0.537424	0.0989151	11	0.823319	11	0	17.1762	5.31594e-05
2	1	0	0	0	0	1019.86	0.549673	0.549959	0.112983	11	0.82358	11	0	19.6727	6.21359e-05
2	1	0	1	0	0	1022.35	0.562156	0.562413	0.139779	11	0.823894	11	0	22.1692	7.86133e-05
2	1	0	1	0	0	1024.85	0.574639	0.57494	0.19052	11	0.824304	11	0	24.6658	0.000109538
2	1	0	0	0	0	1027.34	0.587121	0.587338	0.276735	11	0.824879	11	0	27.1623	0.000162537
2	1	0	1	0	0	1029.84	0.599604	0.599883	0.411761	11	0.825724	11	0	29.6588	0.000247009
2	1	0	1	0	0	1032.34	0.612087	0.612355	0.612607	11	0.826987	11	0	32.1554	0.000375133
2	1	0	0	0	0	1034.83	0.624569	0.624861	0.892776	11	0.828853	11	0	34.6519	0.000557861
2	1	0	1	0	0	1037.33	0.637052	0.637328	1.25783	11	0.831525	11	0	37.1484	0.000801652
2	1	0	1	0	0	1039.83	0.649535	0.649827	1.70086	11	0.835202	11	0	39.645	0.00110526
2	1	0	0	0	0	1042.32	0.662017	0.662308	2.20803	11	0.84007	11	0	42.1415	0.00146239
2	1	0	1	0	0	1044.82	0.6745	0.674766	2.77128	11	0.846279	11	0	44.638	0.00186996
2	1	0	1	0	0	1047.32	0.686983	0.687274	3.37968	11	0.853956	11	0	47.1346	0.00232277
2	1	0	0	0	0	1049.81	0.699465	0.699768	4.0196	11	0.863188	11	0	49.6311	0.00281279
2	1	0	0	0	0	1052.17	0.68873	0.689075	3.40723	11	0.871966	11	0	51.9851	0.00234784
2	1	0	1	0	0	1054.66	0.676248	0.676513	2.76699	11	0.879655	11	0	54.4816	0.0018719
2	1	0	1	0	0	1057.16	0.663765	0.664024	2.19812	11	0.885844	11	0	56.9782	0.00145961
2	1	0	0	0	0	1059.66	0.651282	0.651536	1.67975	11	0.89067	11	0	59.4747	0.00109441
2	1	0	1	0	0	1062.15	0.6388	0.63906	1.23247	11	0.894292	11	0	61.9712	0.000787621
2	1	0	1	0	0	1064.65	0.626317	0.626514	0.847716	11	0.896872	11	0	64.4678	0.000531106
2	1	0	0	0	0	1067.15	0.613834	0.614132	0.546662	11	0.898594	11	0	66.9643	0.000335723
2	1	0	1	0	0	1069.64	0.601352	0.601623	0.323897	11	0.899662	11	0	69.4608	0.000194864
2	1	0	1	0	0	1072.14	0.588869	0.589192	0.169515	11	0.900265	11	0	71.9574	9.98766e-05
2	1	0	0	0	0	1074.64	0.576386	0.576644	0.0707115	11	0.900557	11	0	74.4539	4.07754e-05
2	1	0	1	0	0	1077.13	0.563904	0.564214	0.0108815	11	0.900652	11	0	76.9504	6.13947e-06
2	0	0	1	0	0	1079.63	0.551421	0.551681	-0.0277474	11	0.900625	11	0	1.7975	-1.53077e-05
2	0	0	0	0	0	1082.13	0.538938	0.539198	-0.0515669	11	0.900525	11	0	4.294	-2.78048e-05
2	0	0	1	0	0	1084.62	0.526456	0.526702	-0.0625653	11	0.900382	11	0	6.7905	-3.29533e-05
2	0	0	1	0	0	1087.12	0.513973	0.514221	-0.0706029	11	0.900212	11	0	9.2871	-3.63055e-05
2	0	0	0	0	0	1089.62	0.50149	0.501742	-0.0789219	11	0.900025	11	0	11.7836	-3.95984e-05
2	0	0	1	0	0	1092.11	0.489008	0.489258	-0.0833124	11	0.899825	11	0	14.2801	-4.07613e-05
2	0	0	1	0	0	1094.61	0.476525	0.476826	-0.0860097	11	0.899614	11	0	16.7767	-4.10117e-05
2	0	0	0	0	0	1097.11	0.464042	0.464299	-0.0892662	11	0.899392	11	0	19.2732	-4.14462e-05
2	0	0	1	0	0	1099.6	0.45156	0.451837	-0.0947115	11	0.89916	11	0	21.7697	-4.27942e-05
2	1	0	0	0	1	1101.87	0.459798	0.460073	0.0817527	12	0.899243	11	0	1.6977	3.76122e-05
2	1	0	1	0	1	1104.37	0.472281	0.472533	0.0828726	12	0.899448	11	0	4.1942	3.91601e-05
2	1	0	1	0	1	1106.86	0.484763	0.485023	0.0809712	12	0.899654	11	0	6.6907	3.92729e-05
2	1	0	0	0	1	1109.36	0.497246	0.497539	0.0816135	12	0.89986	11	0	9.1873	4.06059e-05
2	1	0	1	0	1	1111.86	0.509729	0.510006	0.0837593	12	0.900068	11	0	11.6838	4.27178e-05
2	1	0	1	0	1	1114.35	0.522211	0.522494	0.088432	12	0.900281	11	0	14.1803	4.62052e-05
2	1	0	0	0	1	1116.85	0.534694	0.535009	0.0960513	12	0.900508	11	0	16.6769	5.13883e-05
2	1	0	1	0	1	1119.35	0.547177	0.547445	0.108754	12	0.900759	11	0	19.1734	5.95367e-05
2	1	0	1	0	1	1121.84	0.559659	0.559935	0.132047	12	0.901057	11	0	21.6699	7.39377e-05
2	1	0	1	0	1	1124.34	0.572142	0.572384	0.175468	12	0.90144	11	0	24.1664	0.000100435
2	1	0	1	0	1	1126.84	0.584625	0.584893	0.251034	12	0.901968	11	0	26.663	0.000146828
2	1	0	1	0	1	1129.33	0.597107	0.597369	0.374192	12	0.902736	11	0	29.1595	0.000223531
2	1	0	1	0	1	1131.83	0.60959	0.6099	0.558854	12	0.903884	11	0	31.656	0.000340845
2	1	0	1	0	1	1134.33	0.622073	0.62236	0.819131	12	0.905588	11	0	34.1526	0.000509794
2	1	0	1	0	1	1136.82	0.634555	0.634847	1.16327	12	0.908049	11	0	36.6491	0.000738497
2	1	0	1	0	1	1139.32	0.647038	0.647277	1.58754	12	0.911472	11	0	39.1456	0.00102758
2	1	0	1	0	1	1141.82	0.659521	0.659786	2.08064	12	0.916039	11	0	41.6422	0.00137278
2	1	0	1	0	1	1144.31	0.672003	0.672276	2.62891	12	0.921907	11	0	44.1387	0.00176735
2	1	0	1	0	1	1146.81	0.684486	0.684739	3.22559	12	0.929209	11	0	46.6352	0.00220869
2	1	0	1	0	1	1149.31	0.696969	0.697251	3.85665	12	0.938049	11	0	49.1318	0.00268905
2	1	0	1	0	1	1151.66	0.691227	0.691472	3.51364	12	0.946999	11	0	51.4858	0.00242958
2	1	0	1	0	1	1154.16	0.678744	0.678997	2.87159	12	0.954958	11	0	53.9823	0.0019498
2	1	0	0	0	1	1156.65	0.666261	0.66649	2.28315	12	0.961375	11	0	56.4789	0.0015217
2	1	0	1	0	1	1159.15	0.653779	0.654092	1.75075	12	0.966393	11	0	58.9754	0.00114515
2	1	0	1	0	1	1161.65	0.641296	0.641593	1.29103	12	0.970169	11	0	61.4719	0.000828314
2	1	0	1	0	1	1164.14	0.628814	0.629095	0.898741	12	0.972888	11	0	63.9684	0.000565394
2	1	0	1	0	1	1166.64	0.616331	0.616666	0.586974	12	0.974725	11	0	66.465	0.000361967
2	1	0	1	0	1	1169.13	0.603848	0.604139	0.355365	12	0.975882	11	0	68.9615	0.00021469
2	1	0	1	0	1	1171.63	0.591366	0.591663	0.192276	12	0.976548	11	0	71.458	0.000113762
2	1	0	1	0	1	1174.13	0.578883	0.579186	0.0834615	12	0.976882	11	0	73.9546	4.83397e-05
2	1	0	1	0	1	1176.62	0.5664	0.566646	0.0164344	12	0.977003	11	0	76.4511	9.31246e-06
2	0	0	1	0	1	1179.12	0.553918	0.554128	-0.022194	12	0.976992	11	0	1.4978	-1.22983e-05
2	0	0	1	0	1	1181.62	0.541435	0.541725	-0.0451761	12	0.976903	11	0	3.9944	-2.4473e-05
2	0	0	1	0	1	1184.11	0.528952	0.529233	-0.0601852	12	0.976767	11	0	6.4909	-3.1852e-05
2	0	0	0	0	1	1186.61	0.516469	0.516769	-0.0708098	12	0.976602	11	0	8.9875	-3.65924e-05
2	0	0	1	0	1	1189.11	0.503987	0.504261	-0.0782168	12	0.976417	11	0	11.484	-3.94416e-05
2	0	0	1	0	1	1191.6	0.491504	0.491774	-0.0824491	12	0.97622	11	0	13.9805	-4.05464e-05
2	0	0	1	0	1	1194.1	0.479022	0.479311	-0.0854135	12	0.97601	11	0	16.477	-4.09396e-05
2	0	0	1	0	1	1196.6	0.466539	0.466842	-0.0883442	12	0.975791	11	0	18.9736	-4.12428e-05
2	0	0	1	0	1	1199.09	0.454056	0.454322	-0.0923039	12	0.975562	11	0	21.4701	-4.19357e-05
2	1	0	1	0	0	1201.36	0.457302	0.457596	0.0783014	13	0.975559	11	0	1.1984	3.58304e-05
2	1	0	1	0	0	1203.86	0.469784	0.469973	0.0833413	13	0.975761	11	0	3.6949	3.91682e-05
2	1	0	1	0	0	1206.36	0.482267	0.482522	0.0837619	13	0.975967	11	0	6.1914	4.04169e-05
2	1	0	1	0	0	1208.85	0.49475	0.495009	0.0828546	13	0.976173	11	0	8.688	4.10138e-05
2	1	0	1	0	0	1211.35	0.507232	0.507465	0.0825403	13	0.97638	11	0	11.1845	4.18863e-05
2	1	0	1	0	0	1213.85	0.519715	0.52002	0.0847385	13	0.976591	11	0	13.681	4.40657e-05
2	1	0	1	0	0	1216.34	0.532198	0.532479	0.0916109	13	0.976813	11	0	16.1776	4.87809e-05
2	1	0	1	0	0	1218.84	0.54468	0.544979	0.104484	13	0.977057	11	0	18.6741	5.69416e-05
2	1	0	1	0	0	1221.33	0.557163	0.557495	0.127027	13	0.977342	11	0	21.1706	7.08167e-05
2	1	0	1	0	0	1223.83	0.569646	0.569939	0.16591	13	0.9777	11	0	23.6672	9.45586e-05
2	1	0	1	0	0	1226.33	0.582128	0.582445	0.232013	13	0.978186	11	0	26.1637	0.000135135
2	1	0	1	0	0	1228.82	0.594611	0.594882	0.340335	13	0.978888	11	0	28.6602	0.000202459
2	1	0	1	0	0	1231.32	0.607094	0.607357	0.508277	13	0.979934	11	0	31.1568	0.000308706
2	1	0	1	0	0	1233.82	0.619576	0.619861	0.751337	13	0.981491	11	0	33.6533	0.000465724
2	1	0	1	0	0	1236.31	0.632059	0.63231	1.07732	13	0.98376	11	0	36.1498	0.000681198
2	1	0	1	0	0	1238.81	0.644542	0.644793	1.48586	13	0.98695	11	0	38.6464	0.000958071
2	1	0	1	0	0	1241.31	0.657024	0.657237	1.96734	13	0.991252	11	0	41.1429	0.00129301
2	1	0	1	0	0	1243.8	0.669507	0.669794	2.50479	13	0.99683	11	0	43.6394	0.0016777
2	1	0	1	0	0	1246.3	0.68199	0.68224	3.0939	13	1.00381	11	0	46.136	0.00211078
2	1	0	1	0	0	1248.8	0.694472	0.694751	3.71724	13	1.01232	11	0	48.6325	0.00258256
2	1	0	1	0	0	1251.15	0.693723	0.694045	3.63536	13	1.02134	11	0	50.9865	0.0025231
2	1	0	1	0	0	1253.65	0.681241	0.681503	2.9713	13	1.02958	11	0	53.483	0.00202495
2	1	0	1	0	0	1256.14	0.668758	0.669016	2.36723	13	1.03623	11	0	55.9796	0.00158371
2	1	0	1	0	0	1258.64	0.656275	0.656487	1.83498	13	1.04146	11	0	58.4761	0.00120464
2	1	0	1	0	0	1261.14	0.643793	0.644078	1.3689	13	1.04544	11	0	60.9726	0.00088168
2	1	0	1	0	0	1263.63	0.63131	0.631571	0.965144	13	1.04834	11	0	63.4692	0.000609557
2	1	0	1	0	0	1266.13	0.618827	0.619068	0.638007	13	1.05032	11	0	65.9657	0.000394969
2	1	0	1	0	0	1268.63	0.606345	0.606536	0.391123	13	1.05159	11	0	68.4622	0.00023723
2	1	0	1	0	0	1271.12	0.593862	0.594067	0.217708	13	1.05233	11	0	70.9588	0.000129333
2	1	0	1	0	0	1273.62	0.581379	0.581646	0.100732	13	1.05271	11	0	73.4553	5.85906e-05
2	1	0	1	0	0	1276.12	0.568897	0.569165	0.027621	13	1.05287	11	0	75.9518	1.57209e-05
2	0	0	1	0	0	1278.61	0.556414	0.556661	-0.0173089	13	1.05287	11	0	0.9986	-9.63518e-06
2	0	0	1	0	0	1281.11	0.543931	0.544205	-0.0442523	13	1.0528	11	0	3.4951	-2.40823e-05
2	0	0	1	0	0	1283.61	0.531449	0.531699	-0.060451	13	1.05267	11	0	5.9916	-3.21417e-05
2	0	0	1	0	0	1286.1	0.518966	0.519248	-0.0705985	13	1.05251	11	0	8.4882	-3.66582e-05
2	0	0	1	0	0	1288.6	0.506483	0.506733	-0.0773669	13	1.05232	11	0	10.9847	-3.92044e-05
2	0	0	1	0	0	1291.1	0.494001	0.49423	-0.0821553	13	1.05213	11	0	13.4812	-4.06036e-05
2	0	0	1	0	0	1293.59	0.481518	0.481797	-0.0862946	13	1.05192	11	0	15.9778	-4.15765e-05
2	0	0	1	0	0	1296.09	0.469035	0.469263	-0.0899963	13	1.05171	11	0	18.4743	-4.22319e-05
2	0	0	1	0	0	1298.58	0.456553	0.456872	-0.0935347	13	1.05148	11	0	20.9708	-4.27334e-05
2	1	0	1	0	1	1300.85	0.454805	0.455027	0.0749261	14	1.05139	11	0	0.699	3.40934e-05
2	1	0	1	0	1	1303.35	0.467288	0.467532	0.0831361	14	1.05159	11	0	3.1956	3.88688e-05
2	1	0	0	0	1	1305.85	0.47977	0.479999	0.0834891	14	1.0518	11	0	5.6921	4.00746e-05
2	1	0	1	0	1	1308.34	0.492253	0.492528	0.0836555	14	1.052	11	0	8.1886	4.12027e-05
2	1	0	1	0	1	1310.84	0.504736	0.504997	0.0841366	14	1.05221	11	0	10.6852	4.24888e-05
2	1	0	0	0	1	1313.34	0.517218	0.51745	0.0867182	14	1.05242	11	0	13.1817	4.48723e-05
2	1	0	1	0	1	1315.83	0.529701	0.529951	0.0915604	14	1.05264	11	0	15.6782	4.85225e-05
2	1	0	1	0	1	1318.33	0.542184	0.542429	0.101135	14	1.05287	11	0	18.1748	5.48584e-05
2	1	0	0	0	1	1320.83	0.554666	0.554916	0.119362	14	1.05314	11	0	20.6713	6.62359e-05
2	1	0	1	0	1	1323.32	0.567149	0.567367	0.152279	14	1.05348	11	0	23.1678	8.63979e-05
2	1	0	1	0	1	1325.82	0.579632	0.579837	0.210723	14	1.05393	11	0	25.6644	0.000122185
2	1	0	0	0	1	1328.32	0.592114	0.592337	0.308802	14	1.05458	11	0	28.1609	0.000182915
2	1	0	1	0	1	1330.81	0.604597	0.604913	0.462898	14	1.05553	11	0	30.6574	0.000280013
2	1	0	1	0	1	1333.31	0.61708	0.617309	0.68855	14	1.05695	11	0	33.154	0.000425048
2	1	0	0	0	1	1335.81	0.629562	0.629801	0.994973	14	1.05903	11	0	35.6505	0.000626635
2	1	0	1	0	1	1338.3	0.642044	0.642283	1.38225	14	1.06198	11	0	38.147	0.000887796
2	1	0	1	0	1	1340.8	0.654528	0.654799	1.84255	14	1.06599	11	0	40.6436	0.0012065
2	1	0	0	0	1	1343.29	0.66701	0.667248	2.36492	14	1.07123	11	0	43.1401	0.00157799
2	1	0	1	0	1	1345.79	0.679493	0.679714	2.93621	14	1.07784	11	0	45.6366	0.00199578
2	1	0	1	0	1	1348.29	0.691976	0.692297	3.54811	14	1.08594	11	0	48.1332	0.00245634
2	1	0	1	0	1	1350.64	0.69622	0.696449	3.73401	14	1.09484	11	0	50.4872	0.00260054
2	1	0	0	0	1	1353.14	0.683737	0.683999	3.07972	14	1.10333	11	0	52.9837	0.00210653
2	1	0	1	0	1	1355.64	0.671255	0.671453	2.47993	14	1.11025	11	0	55.4802	0.00166516
2	1	0	1	0	1	1358.13	0.658772	0.659065	1.92934	14	1.11574	11	0	57.9768	0.00127156
2	1	0	0	0	1	1360.63	0.646289	0.646577	1.4381	14	1.11992	11	0	60.4733	0.000929841
2	1	0	1	0	1	1363.12	0.633807	0.634069	1.03083	14	1.12299	11	0	62.9698	0.00065362
2	1	0	1	0	1	1365.62	0.621324	0.62162	0.687587	14	1.12512	11	0	65.4664	0.000427418
2	1	0	0	0	1	1368.12	0.608841	0.609133	0.425819	14	1.12649	11	0	67.9629	0.00025938
2	1	0	1	0	1	1370.61	0.596359	0.596599	0.239272	14	1.12731	11	0	70.4594	0.000142749
2	1	0	1	0	1	1373.11	0.583876	0.584153	0.116495	14	1.12774	11	0	72.956	6.80509e-05
2	1	0	0	0	1	1375.61	0.571393	0.571687	0.0385719	14	1.12793	11	0	75.4525	2.20511e-05
2	0	0	1	0	1	1378.1	0.558911	0.559178	-0.008907	14	1.12796	11	0	0.4992	-4.9806e-06
2	0	0	1	0	1	1380.6	0.546428	0.546621	-0.0386694	14	1.12789	11	0	2.9958	-2.11375e-05
2	0	0	0	0	1	1383.1	0.533945	0.534175	-0.0570759	14	1.12777	11	0	5.4923	-3.04885e-05
2	0	0	1	0	1	1385.59	0.521463	0.521704	-0.0686981	14	1.12762	11	0	7.9888	-3.58401e-05
2	0	0	1	0	1	1388.09	0.50898	0.509205	-0.0757862	14	1.12744	11	0	10.4854	-3.85907e-05
2	0	0	0	0	1	1390.59	0.496497	0.496768	-0.0799751	14	1.12725	11	0	12.9819	-3.97291e-05
2	0	0	1	0	1	1393.08	0.484015	0.484244	-0.0835777	14	1.12704	11	0	15.4784	-4.0472e-05
2	0	0	1	0	1	1395.58	0.471532	0.471768	-0.0866728	14	1.12683	11	0	17.975	-4.08895e-05
2	0	0	0	0	1	1398.08	0.459049	0.459316	-0.090068	14	1.1266	11	0	20.4715	-4.13696e-05
2	1	0	1	0	0	1400.35	0.452309	0.452577	0.0494404	15	1.12644	11	0	0.1998	2.23756e-05
2	1	0	0	0	0	1402.84	0.464791	0.465007	0.0791143	15	1.12663	11	0	2.6963	3.67887e-05
2	1	0	1	0	0	1405.34	0.477274	0.477566	0.0804085	15	1.12683	11	0	5.1928	3.84004e-05
2	1	0	1	0	0	1407.84	0.489757	0.490027	0.0801348	15	1.12703	11	0	7.6894	3.92682e-05
2	1	0	0	0	0	1410.33	0.502239	0.502462	0.0810784	15	1.12724	11	0	10.1859	4.07389e-05
2	1	0	1	0	0	1412.83	0.514722	0.514952	0.0844486	15	1.12745	11	0	12.6824	4.3487e-05
2	1	0	1	0	0	1415.32	0.527205	0.527429	0.0893175	15	1.12766	11	0	15.179	4.71087e-05
2	1	0	0	0	0	1417.82	0.539687	0.539924	0.0984755	15	1.1279	11	0	17.6755	5.31693e-05
2	1	0	1	0	0	1420.32	0.55217	0.552404	0.115483	15	1.12816	11	0	20.172	6.37933e-05
2	1	0	1	0	0	1422.81	0.564653	0.56488	0.145658	15	1.12848	11	0	22.6686	8.22791e-05
2	1	0	0	0	0	1425.31	0.577135	0.577397	0.197596	15	1.1289	11	0	25.1651	0.000114091
2	1	0	1	0	0	1427.81	0.589618	0.589862	0.28486	15	1.12949	11	0	27.6616	0.000168028
2	1	0	1	0	0	1430.3	0.602101	0.602393	0.423597	15	1.13036	11	0	30.1582	0.000255172
2	1	0	0	0	0	1432.8	0.614583	0.614856	0.63114	15	1.13165	11	0	32.6547	0.00038806
2	1	0	1	0	0	1435.3	0.627066	0.627306	0.917494	15	1.13357	11	0	35.1512	0.000575549
2	1	0	1	0	0	1437.79	0.639549	0.639788	1.28625	15	1.1363	11	0	37.6477	0.000822925
2	1	0	0	0	0	1440.29	0.652031	0.652321	1.73144	15	1.14005	11	0	40.1443	0.00112946
2	1	0	1	0	0	1442.79	0.664514	0.664764	2.24082	15	1.145	11	0	42.6408	0.00148962
2	1	0	1	0	0	1445.28	0.676996	0.677286	2.81255	15	1.1513	11	0	45.1373	0.0019049
2	1	0	0	0	0	1447.78	0.689479	0.689762	3.43635	15	1.15909	11	0	47.6339	0.00237026
2	1	0	0	0	0	1450.13	0.698716	0.698979	3.89503	15	1.16788	11	0	49.9879	0.00272254
2	1	0	1	0	0	1452.63	0.686234	0.6865	3.21146	15	1.17673	11	0	52.4844	0.00220467
2	1	0	1	0	0	1455.13	0.67375	0.673999	2.6112	15	1.18397	11	0	54.981	0.00175995
2	1	0	0	0	0	1457.62	0.661268	0.661515	2.04389	15	1.18977	11	0	57.4775	0.00135207
2	1	0	1	0	0	1460.12	0.648786	0.649047	1.53695	15	1.19422	11	0	59.974	0.000997557
2	1	0	1	0	0	1462.62	0.636303	0.636589	1.10128	15	1.1975	11	0	62.4706	0.000701065
2	1	0	0	0	0	1465.11	0.62382	0.624075	0.744883	15	1.19978	11	0	64.9671	0.000464863
2	1	0	1	0	0	1467.61	0.611338	0.611587	0.467957	15	1.20128	11	0	67.4636	0.000286196
2	1	0	1	0	0	1470.11	0.598854	0.599105	0.268706	15	1.20218	11	0	69.9602	0.000160983
2	1	0	0	0	0	1472.6	0.586372	0.586591	0.133944	15	1.20268	11	0	72.4567	7.85702e-05
2	1	0	1	0	0	1475.1	0.57389	0.574189	0.0489745	15	1.2029	11	0	74.9532	2.81206e-05
2	1	0	1	0	0	1477.6	0.561406	0.561665	-0.00283488	15	1.20295	11	0	0.0999	-1.59226e-06
2	0	0	0	0	0	1480.09	0.548924	0.549187	-0.0333321	15	1.2029	11	0	2.5964	-1.83055e-05
2	0	0	1	0	0	1482.59	0.536442	0.536675	-0.0519024	15	1.20279	11	0	5.0929	-2.78547e-05
2	0	0	1	0	0	1485.09	0.523958	0.524221	-0.0638567	15	1.20264	11	0	7.5895	-3.3475e-05
2	0	0	0	0	0	1487.58	0.511476	0.511746	-0.071621	15	1.20246	11	0	10.086	-3.66518e-05
2	0	0	1	0	0	1490.08	0.498994	0.499207	-0.0777575	15	1.20228	11	0	12.5825	-3.88171e-05
2	0	0	1	0	0	1492.57	0.486511	0.486779	-0.0828233	15	1.20207	11	0	15.079	-4.03167e-05
2	0	0	0	0	0	1495.07	0.474028	0.474291	-0.0872118	15	1.20186	11	0	17.5756	-4.13638e-05
2	0	0	1	0	0	1497.57	0.461546	0.461766	-0.0915968	15	1.20164	11	0	20.0721	-4.22963e-05
2	0	0	0	0	0	1499.87	0.449987	0.450359	-0.0956888	15	1.20143	11	0	22.3762	-4.30943e-05