File: ACS_Catal_2026/Figures_Na_K/main_figures/data/EC/20240126_2-102_Add_Na/20240125_2-102_007_preconditioning_elctrode3_02_PEIS_C01.mpt
EC-Lab ASCII FILE
Nb header lines : 63

Potentio Electrochemical Impedance Spectroscopy

Run on channel : 1 (SN 66412)
User :
CE vs. WE compliance from -10 V to 10 V
Electrode connection : standard
Potential control : Ewe
Ewe ctrl range : min = -1.00 V, max = 1.00 V
Safety Limits :
	Do not start on E overload
Acquisition started on : 01/26/2024 17:08:35.119
Loaded Setting File :  C:\Users\NakamuraT\Documents\EC-Lab\Data\Yatsuzuka\20240126_2-102_Add_Na\20240125_2-102_001_preconditioning_elctrode1.mps
Saved on :
	File : 20240125_2-102_007_preconditioning_elctrode3_02_PEIS_C01.mpr
	Directory : C:\Users\NakamuraT\Documents\EC-Lab\Data\Yatsuzuka\20240126_2-102_Add_Na\
	Host : 192.109.209.100
Device : SP-150e (SN .003411)
Address : 192.109.209.236
EC-Lab for windows v11.50 (software)
Internet server v11.50 (firmware)
Command interpretor v11.50 (firmware)
Electrode material :
Initial state :
Electrolyte :
Comments :
Electrode surface area : 0.001 cm2
Characteristic mass : 0.001 g
Equivalent Weight : 0.000 g/eq.
Density : 0.000 g/cm3
Volume (V) : 0.001 cm3
Cycle Definition : Charge/Discharge alternance
Mode                Single sine
E (V)               0.4000
vs.                 Eoc
tE (h:m:s)          0:00:0.0000
record              0
dI                  0.000
unit dI             mA
dt (s)              0.000
fi                  500.000
unit fi             kHz
ff                  1.000
unit ff             Hz
Nd                  6
Points              per decade
spacing             Logarithmic
Va (mV)             10.0
pw                  0.10
Na                  2
corr                0
E range min (V)     -1.000
E range max (V)     1.000
I Range             Auto
Bandwidth           5
nc cycles           0
goto Ns'            0
nr cycles           0
inc. cycle          0

freq/Hz	Re(Z)/Ohm	-Im(Z)/Ohm	|Z|/Ohm	Phase(Z)/deg	time/s	<Ewe>/V	<I>/mA	Cs/uF	Cp/uF	cycle number	I Range	|Ewe|/V	|I|/A	Ns	(Q-Qo)/mA.h	Re(Y)/Ohm-1	Im(Y)/Ohm-1	|Y|/Ohm-1	Phase(Y)/deg	Re(C)/nF	Im(C)/nF	|C|/nF	Phase(C)/deg	Re(M)	Im(M)	|M|	Phase(M)/deg	Re(Permittivity)	Im(Permittivity)	|Permittivity|	Phase(Permittivity)/deg	Re(Resistivity)/Ohm.cm	Im(Resistivity)/Ohm.cm	|Resistivity|/Ohm.cm	Phase(Resistivity)/deg	Re(Conductivity)/mS/cm	Im(Conductivity)/mS/cm	|Conductivity|/mS/cm	Phase(Conductivity)/deg	Tan(Delta)	Loss Angle(Delta)/deg	dq/mA.h
500019	24.4527	-3.88316	24.7591	9.02341	211.007	0.374288	0.0413581	-0.0819687	-0.00201628	1	10	0.0106492	0.000430113	0	4.93538e-05	0.0398894	-0.00633457	0.0403893	-9.02341	-2.01628	12.6967	12.8558	-99.0234	0.0000000E+000	0.0000000E+000	0.0000000E+000	99.0234	0.0000000E+000	0.0000000E+000	0.0000000E+000	-99.0234	0.0000000E+000	0.0000000E+000	0.0000000E+000	9.02341	0.0000000E+000	0.0000000E+000	0.0000000E+000	-9.02341	6.2971	80.9766	4.93538e-05
339899	16.9159	-3.55649	17.2858	11.8732	211.429	0.374211	0.000485219	-0.131658	-0.00557333	1	10	0.0105876	0.000612507	0	5.14231e-05	0.0566134	-0.0119027	0.0578511	-11.8732	-5.57333	26.5087	27.0883	-101.873	0.0000000E+000	0.0000000E+000	0.0000000E+000	101.873	0.0000000E+000	0.0000000E+000	0.0000000E+000	-101.873	0.0000000E+000	0.0000000E+000	0.0000000E+000	11.8732	0.0000000E+000	0.0000000E+000	0.0000000E+000	-11.8732	4.75635	78.1268	2.06929e-06
231063	14.2573	-2.20644	14.4271	8.79721	211.852	0.374172	-0.00795805	-0.312175	-0.00730176	1	10	0.0109693	0.000760329	0	5.10004e-05	0.0684988	-0.0106008	0.0693142	-8.79721	-7.30176	47.1817	47.7433	-98.7972	0.0000000E+000	0.0000000E+000	0.0000000E+000	98.7972	0.0000000E+000	0.0000000E+000	0.0000000E+000	-98.7972	0.0000000E+000	0.0000000E+000	0.0000000E+000	8.79721	0.0000000E+000	0.0000000E+000	0.0000000E+000	-8.79721	6.46169	81.2028	-4.22742e-07
157076	13.3689	-1.2683	13.429	5.41938	212.41	0.374185	-0.0118671	-0.798895	-0.00712603	1	10	0.0101063	0.000752577	0	4.93339e-05	0.0741331	-0.00703294	0.074466	-5.41938	-7.12603	75.1144	75.4516	-95.4194	0.0000000E+000	0.0000000E+000	0.0000000E+000	95.4194	0.0000000E+000	0.0000000E+000	0.0000000E+000	-95.4194	0.0000000E+000	0.0000000E+000	0.0000000E+000	5.41938	0.0000000E+000	0.0000000E+000	0.0000000E+000	-5.41938	10.5408	84.5806	-1.66644e-06
106786	13.1036	-0.740436	13.1245	3.23413	212.833	0.374189	-0.0121041	-2.01288	-0.00640656	1	10	0.0107032	0.00081551	0	4.88446e-05	0.0760718	-0.00429853	0.0761932	-3.23413	-6.40656	113.378	113.559	-93.2341	0.0000000E+000	0.0000000E+000	0.0000000E+000	93.2341	0.0000000E+000	0.0000000E+000	0.0000000E+000	-93.2341	0.0000000E+000	0.0000000E+000	0.0000000E+000	3.23413	0.0000000E+000	0.0000000E+000	0.0000000E+000	-3.23413	17.6972	86.7659	-4.89295e-07
72595	13.0026	-0.464868	13.0109	2.04756	213.256	0.374193	-0.0108782	-4.71611	-0.00602045	1	10	0.0105908	0.000813995	0	4.77106e-05	0.0768096	-0.00274609	0.0768586	-2.04756	-6.02044	168.395	168.502	-92.0476	0.0000000E+000	0.0000000E+000	0.0000000E+000	92.0476	0.0000000E+000	0.0000000E+000	0.0000000E+000	-92.0476	0.0000000E+000	0.0000000E+000	0.0000000E+000	2.04756	0.0000000E+000	0.0000000E+000	0.0000000E+000	-2.04756	27.9705	87.9524	-1.134e-06
49352.4	12.9543	-0.303265	12.9578	1.34107	213.678	0.374192	-0.0114734	-10.6338	-0.00582466	1	10	0.0104847	0.000809143	0	4.6756e-05	0.0771523	-0.00180617	0.0771734	-1.34107	-5.82465	248.806	248.874	-91.3411	0.0000000E+000	0.0000000E+000	0.0000000E+000	91.3411	0.0000000E+000	0.0000000E+000	0.0000000E+000	-91.3411	0.0000000E+000	0.0000000E+000	0.0000000E+000	1.34107	0.0000000E+000	0.0000000E+000	0.0000000E+000	-1.34107	42.716	88.6589	-9.54618e-07
33551.1	12.9362	-0.200121	12.9377	0.886289	214.101	0.374189	-0.0133505	-23.704	-0.00567141	1	10	0.010365	0.000801145	0	4.58849e-05	0.0772841	-0.00119558	0.0772934	-0.886289	-5.67143	366.61	366.654	-90.8863	0.0000000E+000	0.0000000E+000	0.0000000E+000	90.8863	0.0000000E+000	0.0000000E+000	0.0000000E+000	-90.8863	0.0000000E+000	0.0000000E+000	0.0000000E+000	0.886289	0.0000000E+000	0.0000000E+000	0.0000000E+000	-0.886289	64.6417	89.1137	-8.71115e-07
22806.6	12.9079	-0.13526	12.9086	0.600373	214.523	0.374194	-0.0130576	-51.5929	-0.00566462	1	10	0.0103376	0.000800831	0	4.57328e-05	0.0774634	-0.000811728	0.0774676	-0.600373	-5.66462	540.576	540.606	-90.6004	0.0000000E+000	0.0000000E+000	0.0000000E+000	90.6004	0.0000000E+000	0.0000000E+000	0.0000000E+000	-90.6004	0.0000000E+000	0.0000000E+000	0.0000000E+000	0.600373	0.0000000E+000	0.0000000E+000	0.0000000E+000	-0.600373	95.4302	89.3996	-1.52063e-07
15504.4	12.915	-0.0807857	12.9153	0.35839	214.945	0.374188	-0.011994	-127.067	-0.00497156	1	10	0.0101971	0.000789541	0	4.42062e-05	0.0774261	-0.000484314	0.0774277	-0.35839	-4.97157	794.792	794.807	-90.3584	0.0000000E+000	0.0000000E+000	0.0000000E+000	90.3584	0.0000000E+000	0.0000000E+000	0.0000000E+000	-90.3584	0.0000000E+000	0.0000000E+000	0.0000000E+000	0.35839	0.0000000E+000	0.0000000E+000	0.0000000E+000	-0.35839	159.868	89.6416	-1.52658e-06
10540.4	12.9078	-0.051362	12.9079	0.227987	215.367	0.374185	-0.0118597	-293.983	-0.00465474	1	10	0.0100956	0.000782129	0	4.32789e-05	0.0774714	-0.00030827	0.077472	-0.227987	-4.65478	1169.78	1169.79	-90.228	0.0000000E+000	0.0000000E+000	0.0000000E+000	90.228	0.0000000E+000	0.0000000E+000	0.0000000E+000	-90.228	0.0000000E+000	0.0000000E+000	0.0000000E+000	0.227987	0.0000000E+000	0.0000000E+000	0.0000000E+000	-0.227987	251.31	89.772	-9.27347e-07
7163.78	12.8995	-0.0415793	12.8996	0.184682	215.723	0.374176	-0.0142051	-534.318	-0.00555142	1	10	0.0106258	0.000823731	0	4.14179e-05	0.0775215	-0.000249877	0.0775219	-0.184682	-5.55149	1722.26	1722.27	-90.1847	0.0000000E+000	0.0000000E+000	0.0000000E+000	90.1847	0.0000000E+000	0.0000000E+000	0.0000000E+000	-90.1847	0.0000000E+000	0.0000000E+000	0.0000000E+000	0.184682	0.0000000E+000	0.0000000E+000	0.0000000E+000	-0.184682	310.239	89.8153	-1.86099e-06
4871.56	12.9007	-0.0232754	12.9007	0.103373	216.192	0.374218	-0.011229	-1403.64	-0.00456903	1	10	0.0109087	0.000845592	0	4.04852e-05	0.0775151	-0.000139853	0.0775153	-0.103373	-4.56892	2532.44	2532.44	-90.1034	0.0000000E+000	0.0000000E+000	0.0000000E+000	90.1034	0.0000000E+000	0.0000000E+000	0.0000000E+000	-90.1034	0.0000000E+000	0.0000000E+000	0.0000000E+000	0.103373	0.0000000E+000	0.0000000E+000	0.0000000E+000	-0.103373	554.261	89.8966	-9.32661e-07
3311.06	12.9102	-0.0178614	12.9102	0.079269	216.878	0.374219	-0.0113671	-2691.15	-0.0051511	1	10	0.0102023	0.000790246	0	3.93387e-05	0.0774579	-0.000107164	0.077458	-0.079269	-5.15113	3723.22	3723.23	-90.0793	0.0000000E+000	0.0000000E+000	0.0000000E+000	90.0793	0.0000000E+000	0.0000000E+000	0.0000000E+000	-90.0793	0.0000000E+000	0.0000000E+000	0.0000000E+000	0.079269	0.0000000E+000	0.0000000E+000	0.0000000E+000	-0.079269	722.801	89.9207	-1.14652e-06
2250.72	12.8992	-0.00536006	12.8992	0.0238083	217.343	0.37422	-0.0119045	-13192.6	-0.00227794	1	10	0.0102562	0.000795102	0	3.72965e-05	0.0775241	-3.22139e-05	0.0775241	-0.0238083	-2.27822	5481.95	5481.95	-90.0238	0.0000000E+000	0.0000000E+000	0.0000000E+000	90.0238	0.0000000E+000	0.0000000E+000	0.0000000E+000	-90.0238	0.0000000E+000	0.0000000E+000	0.0000000E+000	0.0238083	0.0000000E+000	0.0000000E+000	0.0000000E+000	-0.0238083	2406.54	89.9762	-2.04226e-06
1530.49	12.9084	0.00042471	12.9084	-0.00188513	217.808	0.374219	-0.0109939	244848	0.000265055	1	10	0.0102895	0.000797114	0	3.52094e-05	0.0774688	2.54886e-06	0.0774688	0.00188513	0.26496	8055.94	8055.94	-89.9981	0.0000000E+000	0.0000000E+000	0.0000000E+000	89.9981	0.0000000E+000	0.0000000E+000	0.0000000E+000	-89.9981	0.0000000E+000	0.0000000E+000	0.0000000E+000	-0.00188513	0.0000000E+000	0.0000000E+000	0.0000000E+000	0.00188513	30393.5	89.9981	-2.0871e-06
1040.33	12.9054	0.00388087	12.9054	-0.0172298	218.273	0.374222	-0.0114193	39420.2	0.00356479	1	10	0.0103033	0.000798373	0	3.43581e-05	0.0774869	2.33016e-05	0.0774869	0.0172298	3.56424	11854.3	11854.3	-89.9828	0.0000000E+000	0.0000000E+000	0.0000000E+000	89.9828	0.0000000E+000	0.0000000E+000	0.0000000E+000	-89.9828	0.0000000E+000	0.0000000E+000	0.0000000E+000	-0.0172298	0.0000000E+000	0.0000000E+000	0.0000000E+000	0.0172298	3325.39	89.9828	-8.51273e-07
707.036	12.8876	0.0152295	12.8876	-0.0677076	218.738	0.374219	-0.0120332	14780.6	0.0206405	1	10	0.0102966	0.000798952	0	3.23625e-05	0.0775939	9.16943e-05	0.0775939	0.0677076	20.6415	17466.5	17466.5	-89.9323	0.0000000E+000	0.0000000E+000	0.0000000E+000	89.9323	0.0000000E+000	0.0000000E+000	0.0000000E+000	-89.9323	0.0000000E+000	0.0000000E+000	0.0000000E+000	-0.0677076	0.0000000E+000	0.0000000E+000	0.0000000E+000	0.0677076	846.223	89.9323	-1.99554e-06
480.769	12.9055	0.018125	12.9056	-0.0804681	219.203	0.374214	-0.0120407	18264.4	0.0360253	1	10	0.0103111	0.000798966	0	3.04151e-05	0.0774859	0.000108824	0.077486	0.0804681	36.0249	25651.1	25651.1	-89.9195	0.0000000E+000	0.0000000E+000	0.0000000E+000	89.9195	0.0000000E+000	0.0000000E+000	0.0000000E+000	-89.9195	0.0000000E+000	0.0000000E+000	0.0000000E+000	-0.0804681	0.0000000E+000	0.0000000E+000	0.0000000E+000	0.0804681	712.03	89.9195	-1.94745e-06
326.778	12.8996	0.0258169	12.8996	-0.11467	219.666	0.374214	-0.0121134	18865.3	0.0755648	1	10	0.0103091	0.000799176	0	2.84184e-05	0.0775216	0.00015515	0.0775217	0.11467	75.5644	37756.4	37756.5	-89.8853	0.0000000E+000	0.0000000E+000	0.0000000E+000	89.8853	0.0000000E+000	0.0000000E+000	0.0000000E+000	-89.8853	0.0000000E+000	0.0000000E+000	0.0000000E+000	-0.11467	0.0000000E+000	0.0000000E+000	0.0000000E+000	0.11467	499.656	89.8853	-1.99667e-06
222.061	12.9222	0.0462821	12.9223	-0.20521	220.127	0.374214	-0.0123112	15485.8	0.198648	1	10	0.0103266	0.000799135	0	2.74096e-05	0.0773852	0.000277163	0.0773857	0.20521	198.646	55463.4	55463.7	-89.7948	0.0000000E+000	0.0000000E+000	0.0000000E+000	89.7948	0.0000000E+000	0.0000000E+000	0.0000000E+000	-89.7948	0.0000000E+000	0.0000000E+000	0.0000000E+000	-0.20521	0.0000000E+000	0.0000000E+000	0.0000000E+000	0.20521	279.205	89.7948	-1.0088e-06
151.015	12.9125	0.0585275	12.9127	-0.259697	220.589	0.374215	-0.0119922	18007	0.369937	1	10	0.0103242	0.000799542	0	2.56084e-05	0.0774425	0.000351016	0.0774433	0.259697	369.936	81616.8	81617.7	-89.7403	0.0000000E+000	0.0000000E+000	0.0000000E+000	89.7403	0.0000000E+000	0.0000000E+000	0.0000000E+000	-89.7403	0.0000000E+000	0.0000000E+000	0.0000000E+000	-0.259697	0.0000000E+000	0.0000000E+000	0.0000000E+000	0.259697	220.624	89.7403	-1.80117e-06
102.667	12.9156	0.0946893	12.916	-0.42005	221.064	0.374222	-0.0112047	16371.4	0.879905	1	10	0.0103201	0.000799024	0	2.44353e-05	0.0774216	0.000567607	0.0774236	0.42005	879.908	120019	120022	-89.5799	0.0000000E+000	0.0000000E+000	0.0000000E+000	89.5799	0.0000000E+000	0.0000000E+000	0.0000000E+000	-89.5799	0.0000000E+000	0.0000000E+000	0.0000000E+000	-0.42005	0.0000000E+000	0.0000000E+000	0.0000000E+000	0.42005	136.4	89.5799	-1.17317e-06
69.7545	12.9131	0.137994	12.9138	-0.612261	221.531	0.374219	-0.0116302	16534.4	1.88799	1	10	0.0103177	0.000798963	0	2.33399e-05	0.077432	0.000827467	0.0774364	0.612261	1887.98	176672	176682	-89.3877	0.0000000E+000	0.0000000E+000	0.0000000E+000	89.3877	0.0000000E+000	0.0000000E+000	0.0000000E+000	-89.3877	0.0000000E+000	0.0000000E+000	0.0000000E+000	-0.612261	0.0000000E+000	0.0000000E+000	0.0000000E+000	0.612261	93.5771	89.3877	-1.09532e-06
47.4443	12.9333	0.177552	12.9346	-0.786518	221.975	0.374204	-0.0144757	18893.5	3.56005	1	10	0.010323	0.000798092	0	2.22907e-05	0.0773049	0.00106126	0.0773122	0.786518	3560.07	259324	259349	-89.2135	0.0000000E+000	0.0000000E+000	0.0000000E+000	89.2135	0.0000000E+000	0.0000000E+000	0.0000000E+000	-89.2135	0.0000000E+000	0.0000000E+000	0.0000000E+000	-0.786518	0.0000000E+000	0.0000000E+000	0.0000000E+000	0.786518	72.8428	89.2135	-1.04923e-06
32.2387	12.9237	0.25968	12.9263	-1.15111	222.412	0.374198	-0.0142126	19011	7.67246	1	10	0.0103217	0.000798505	0	1.98971e-05	0.0773462	0.00155415	0.0773618	1.15111	7672.44	381840	381918	-88.8489	0.0000000E+000	0.0000000E+000	0.0000000E+000	88.8489	0.0000000E+000	0.0000000E+000	0.0000000E+000	-88.8489	0.0000000E+000	0.0000000E+000	0.0000000E+000	-1.15111	0.0000000E+000	0.0000000E+000	0.0000000E+000	1.15111	49.7677	88.8489	-2.39363e-06
21.9144	12.9334	0.376428	12.9389	-1.66713	222.843	0.374201	-0.0149515	19293.3	16.3298	1	10	0.0103299	0.000798365	0	1.95249e-05	0.0772539	0.00224849	0.0772866	1.66713	16329.7	561061	561298	-88.3329	0.0000000E+000	0.0000000E+000	0.0000000E+000	88.3329	0.0000000E+000	0.0000000E+000	0.0000000E+000	-88.3329	0.0000000E+000	0.0000000E+000	0.0000000E+000	-1.66713	0.0000000E+000	0.0000000E+000	0.0000000E+000	1.66713	34.3582	88.3329	-3.72222e-07
14.9093	13.0216	0.491457	13.0309	-2.16141	223.31	0.374212	-0.0123355	21720.8	30.8957	1	10	0.0103266	0.000792471	0	1.92239e-05	0.076686	0.00289425	0.0767406	2.16141	30895.7	818611	819194	-87.8386	0.0000000E+000	0.0000000E+000	0.0000000E+000	87.8386	0.0000000E+000	0.0000000E+000	0.0000000E+000	-87.8386	0.0000000E+000	0.0000000E+000	0.0000000E+000	-2.16141	0.0000000E+000	0.0000000E+000	0.0000000E+000	2.16141	26.496	87.8386	-3.00999e-07
10.1329	12.9402	0.820414	12.9662	-3.62771	224.02	0.37421	0.000132831	19144.8	76.6463	1	11	0.0103315	0.000796799	0	1.03297e-05	0.076969	0.00487986	0.0771236	3.62771	76646.3	1.20893e+06	1.21136e+06	-86.3723	0.0000000E+000	0.0000000E+000	0.0000000E+000	86.3723	0.0000000E+000	0.0000000E+000	0.0000000E+000	-86.3723	0.0000000E+000	0.0000000E+000	0.0000000E+000	-3.62771	0.0000000E+000	0.0000000E+000	0.0000000E+000	3.62771	15.7728	86.3723	-8.8942e-06
6.88933	12.9468	1.22347	13.0045	-5.39841	224.373	0.374187	-0.00714438	18882.1	167.128	1	11	0.010325	0.000793958	0	1.58383e-05	0.0765555	0.00723448	0.0768966	5.39841	167128	1.76856e+06	1.77644e+06	-84.6016	0.0000000E+000	0.0000000E+000	0.0000000E+000	84.6016	0.0000000E+000	0.0000000E+000	0.0000000E+000	-84.6016	0.0000000E+000	0.0000000E+000	0.0000000E+000	-5.39841	0.0000000E+000	0.0000000E+000	0.0000000E+000	5.39841	10.582	84.6016	5.50868e-06
4.68375	12.9863	1.77468	13.107	-7.78171	224.87	0.374213	0.00616783	19147.2	351.026	1	11	0.0103358	0.000788573	0	1.51138e-05	0.0755925	0.0103303	0.0762951	7.78171	351026	2.56865e+06	2.59252e+06	-82.2183	0.0000000E+000	0.0000000E+000	0.0000000E+000	82.2183	0.0000000E+000	0.0000000E+000	0.0000000E+000	-82.2183	0.0000000E+000	0.0000000E+000	0.0000000E+000	-7.78171	0.0000000E+000	0.0000000E+000	0.0000000E+000	7.78171	7.31755	82.2183	-7.24508e-07
3.18099	12.9664	2.60735	13.226	-11.3697	225.572	0.374212	0.000628039	19189.3	745.764	1	11	0.0103342	0.000781353	0	3.80237e-06	0.0741249	0.0149054	0.0756087	11.3697	745764	3.70871e+06	3.78295e+06	-78.6303	0.0000000E+000	0.0000000E+000	0.0000000E+000	78.6303	0.0000000E+000	0.0000000E+000	0.0000000E+000	-78.6303	0.0000000E+000	0.0000000E+000	0.0000000E+000	-11.3697	0.0000000E+000	0.0000000E+000	0.0000000E+000	11.3697	4.97303	78.6303	-1.13115e-05
2.16533	13.1416	3.88266	13.7032	-16.4597	226.583	0.374226	-0.0034674	18930.7	1519.79	1	11	0.010335	0.000754207	0	5.3569e-06	0.0699853	0.020677	0.0729759	16.4597	1.51979e+06	5.14403e+06	5.36384e+06	-73.5403	0.0000000E+000	0.0000000E+000	0.0000000E+000	73.5403	0.0000000E+000	0.0000000E+000	0.0000000E+000	-73.5403	0.0000000E+000	0.0000000E+000	0.0000000E+000	-16.4597	0.0000000E+000	0.0000000E+000	0.0000000E+000	16.4597	3.38469	73.5403	1.55454e-06
1.46962	13.0834	5.57335	14.221	-23.0734	228.053	0.374227	0.00043423	19431.2	2984.5	1	11	0.0103376	0.000726924	0	2.42846e-05	0.0646933	0.0275585	0.0703186	23.0734	2.9845e+06	7.00607e+06	7.61526e+06	-66.9266	0.0000000E+000	0.0000000E+000	0.0000000E+000	66.9266	0.0000000E+000	0.0000000E+000	0.0000000E+000	-66.9266	0.0000000E+000	0.0000000E+000	0.0000000E+000	-23.0734	0.0000000E+000	0.0000000E+000	0.0000000E+000	23.0734	2.34749	66.9266	1.89277e-05
1.00006	13.4151	8.04466	15.6423	-30.95	230.192	0.374228	0.00141199	19782.7	5232.4	1	11	0.01034	0.000661028	0	4.14208e-05	0.0548269	0.0328782	0.0639294	30.95	5.2324e+06	8.72541e+06	1.0174e+07	-59.05	0.0000000E+000	0.0000000E+000	0.0000000E+000	59.05	0.0000000E+000	0.0000000E+000	0.0000000E+000	-59.05	0.0000000E+000	0.0000000E+000	0.0000000E+000	-30.95	0.0000000E+000	0.0000000E+000	0.0000000E+000	30.95	1.66757	59.05	1.71362e-05