File: ACS_Catal_2026/Figures_Na_K/main_figures/data/EC/20240126_2-102_Add_Na/20240201_2-102_014_preconditioning_elctrode6_01_CVA_C02.mpt
EC-Lab ASCII FILE
Nb header lines : 66

Cyclic Voltammetry Advanced

Run on channel : 2 (SN 66414)
User :
CE vs. WE compliance from -10 V to 10 V
Electrode connection : standard
Potential control : Ewe
Ewe ctrl range : min = -1.00 V, max = 1.00 V
Safety Limits :
	Do not start on E overload
Acquisition started on : 02/01/2024 14:41:57.621
Loaded Setting File :  C:\Users\NakamuraT\Documents\EC-Lab\Data\Yatsuzuka\20240126_2-102_Add_Na\20240125_2-102_001_preconditioning_elctrode1.mps
Saved on :
	File : 20240201_2-102_014_preconditioning_elctrode6_01_CVA_C02.mpr
	Directory : C:\Users\NakamuraT\Documents\EC-Lab\Data\Yatsuzuka\20240126_2-102_Add_Na\
	Host : 192.109.209.100
Device : SP-150e (SN .003411)
Address : 192.109.209.236
EC-Lab for windows v11.50 (software)
Internet server v11.50 (firmware)
Command interpretor v11.50 (firmware)
Electrode material :
Initial state :
Electrolyte :
Comments :
Electrode surface area : 0.001 cm2
Characteristic mass : 0.001 g
Equivalent Weight : 0.000 g/eq.
Density : 0.000 g/cm3
Volume (V) : 0.001 cm3
Cycle Definition : Charge/Discharge alternance
Ei (V)              0.350
vs.                 Ref
ti (h:m:s)          0:00:10.0000
dti (s)             1.0000
dE/dt               10.000
dE/dt unit          mV/s
E1 (V)              0.450
vs.                 Ref
t1 (h:m:s)          0:00:0.0000
dt1 (s)             0.1000
Step percent        50
N                   10
E range min (V)     -1.000
E range max (V)     1.000
I Range             Auto
I Range min         Unset
I Range max         Unset
I Range init        Unset
Bandwidth           5
E2 (V)              0.350
vs.                 Ref
t2 (h:m:s)          0:00:0.0000
dt2 (s)             0.1000
nc cycles           9
nr                  1
Reverse Scan        0
Ef (V)              0.000
vs.                 Eoc
tf (h:m:s)          0:00:0.0000
dtf (s)             0.1000

mode	ox/red	error	control changes	Ns changes	counter inc.	time/s	control/V	Ewe/V	<I>/mA	cycle number	(Q-Qo)/C	I Range	Ns	step time/s	P/W
2	1	0	1	0	0	0.000000000000000E+000	0.349999	0.350116	12.5633	1	0.0000000E+000	10	0	0.000000000000000E+000	0.00439863
2	1	0	1	0	0	7	0.349999	0.350155	0.189948	1	0.0136387	12	0	6	6.65111e-05
2	1	0	1	0	0	10.1825	0.351774	0.351976	0.223485	1	0.0140748	12	0	9.1825	7.86614e-05
2	1	0	1	0	0	10.5325	0.355275	0.355515	0.34546	1	0.0141773	12	0	9.5325	0.000122816
2	1	0	1	0	0	10.8825	0.358775	0.359028	0.410029	1	0.0143111	12	0	9.8825	0.000147212
2	1	0	1	0	0	11.2325	0.362276	0.362485	0.438136	1	0.0144599	12	0	10.2325	0.000158818
2	1	0	1	0	0	11.5827	0.365776	0.36604	0.449518	1	0.0146159	12	0	10.5827	0.000164542
2	1	0	1	0	0	11.9327	0.369277	0.36948	0.4596	1	0.0147749	12	0	10.9327	0.000169813
2	1	0	1	0	0	12.2827	0.372777	0.373013	0.456358	1	0.0149354	12	0	11.2827	0.000170228
2	1	0	1	0	0	12.6327	0.376278	0.37652	0.462792	1	0.0150963	12	0	11.6327	0.00017425
2	1	0	1	0	0	12.9829	0.379778	0.379984	0.457784	1	0.0152573	12	0	11.9829	0.000173951
2	1	0	1	0	0	13.3329	0.383279	0.383496	0.459654	1	0.0154182	12	0	12.3329	0.000176275
2	1	0	1	0	0	13.6829	0.386779	0.387013	0.458567	1	0.0155785	12	0	12.6829	0.000177471
2	1	0	1	0	0	14.0329	0.39028	0.39052	0.454287	1	0.0157386	12	0	13.0329	0.000177408
2	1	0	1	0	0	14.3831	0.39378	0.394014	0.457303	1	0.015898	12	0	13.3831	0.000180184
2	1	0	1	0	0	14.7331	0.397281	0.397532	0.450205	1	0.0160569	12	0	13.7331	0.000178971
2	1	0	1	0	0	15.0831	0.400781	0.401042	0.453901	1	0.0162152	12	0	14.0831	0.000182033
2	1	0	1	0	0	15.4331	0.404282	0.404557	0.447626	1	0.0163727	12	0	14.4331	0.00018109
2	1	0	1	0	0	15.7833	0.407782	0.408044	0.447228	1	0.0165297	12	0	14.7833	0.000182489
2	1	0	1	0	0	16.1333	0.411283	0.411529	0.445263	1	0.0166856	12	0	15.1333	0.000183238
2	1	0	1	0	0	16.4833	0.414783	0.415047	0.44011	1	0.0168409	12	0	15.4833	0.000182666
2	1	0	1	0	0	16.8333	0.418284	0.418545	0.442061	1	0.0169952	12	0	15.8333	0.000185023
2	1	0	1	0	0	17.1835	0.421784	0.422071	0.434349	1	0.0171487	12	0	16.1835	0.000183326
2	1	0	1	0	0	17.5335	0.425285	0.425518	0.436981	1	0.0173013	12	0	16.5335	0.000185943
2	1	0	1	0	0	17.8835	0.428785	0.429058	0.430945	1	0.017453	12	0	16.8835	0.0001849
2	1	0	1	0	0	18.2335	0.432286	0.432584	0.429352	1	0.0176039	12	0	17.2335	0.000185731
2	1	0	1	0	0	18.5837	0.435786	0.436007	0.428191	1	0.0177537	12	0	17.5837	0.000186694
2	1	0	1	0	0	18.9337	0.439287	0.439533	0.421969	1	0.0179028	12	0	17.9337	0.000185469
2	1	0	1	0	0	19.2837	0.442787	0.443071	0.425104	1	0.018051	12	0	18.2837	0.000188351
2	1	0	1	0	0	19.6337	0.446288	0.446571	0.417023	1	0.0181984	12	0	18.6337	0.00018623
2	1	0	1	0	0	19.9814	0.449763	0.450027	0.418608	1	0.0183439	12	0	18.9814	0.000188385
2	1	0	1	0	0	20.2353	0.447688	0.447962	0.164986	1	0.0184163	12	0	19.2353	7.39075e-05
2	1	0	1	0	0	20.6003	0.444037	0.444316	0.000700235	1	0.0184409	12	0	19.6003	3.11126e-07
2	0	0	1	0	0	20.9653	0.440387	0.440619	-0.0644619	1	0.0184273	13	0	0.3	-2.84031e-05
2	0	0	1	0	0	21.3303	0.436736	0.437015	-0.0999963	1	0.0183957	13	0	0.665	-4.36999e-05
2	0	0	1	0	0	21.6955	0.433086	0.43332	-0.127769	1	0.0183536	12	0	1.0302	-5.53649e-05
2	0	0	1	0	0	22.0455	0.429585	0.429805	-0.142363	1	0.0183065	12	0	1.3802	-6.11884e-05
2	0	0	1	0	0	22.3955	0.426085	0.426371	-0.157046	1	0.0182536	12	0	1.7302	-6.69597e-05
2	0	0	1	0	0	22.7455	0.422584	0.422874	-0.172103	1	0.0181962	12	0	2.0802	-7.27777e-05
2	0	0	1	0	0	23.0957	0.419084	0.419319	-0.178888	1	0.0181345	12	0	2.4304	-7.5011e-05
2	0	0	1	0	0	23.4457	0.415583	0.415829	-0.194743	1	0.0180691	12	0	2.7804	-8.09796e-05
2	0	0	1	0	0	23.7957	0.412083	0.412368	-0.198558	1	0.0180002	12	0	3.1304	-8.18788e-05
2	0	0	1	0	0	24.1457	0.408582	0.408852	-0.212103	1	0.0179281	12	0	3.4804	-8.67188e-05
2	0	0	1	0	0	24.4959	0.405082	0.405301	-0.217197	1	0.0178531	12	0	3.8306	-8.80303e-05
2	0	0	1	0	0	24.8459	0.401581	0.401827	-0.226404	1	0.0177751	12	0	4.1806	-9.09752e-05
2	0	0	1	0	0	25.1959	0.398081	0.398338	-0.235842	1	0.0176945	12	0	4.5306	-9.39448e-05
2	0	0	1	0	0	25.5459	0.39458	0.394844	-0.23994	1	0.017611	12	0	4.8806	-9.47387e-05
2	0	0	1	0	0	25.8961	0.39108	0.391303	-0.252609	1	0.0175249	12	0	5.2308	-9.88467e-05
2	0	0	1	0	0	26.2461	0.387579	0.387865	-0.2547	1	0.0174361	12	0	5.5808	-9.87893e-05
2	0	0	1	0	0	26.5961	0.384079	0.384348	-0.266617	1	0.0173447	12	0	5.9308	-0.000102474
2	0	0	1	0	0	26.9461	0.380578	0.380831	-0.270979	1	0.0172508	12	0	6.2808	-0.000103197
2	0	0	1	0	0	27.2963	0.377078	0.377354	-0.278664	1	0.0171541	12	0	6.631	-0.000105155
2	0	0	1	0	0	27.6463	0.373577	0.373801	-0.287921	1	0.0170553	12	0	6.981	-0.000107625
2	0	0	1	0	0	27.9963	0.370077	0.370285	-0.290857	1	0.0169537	12	0	7.331	-0.0001077
2	0	0	1	0	0	28.3463	0.366576	0.366856	-0.303588	1	0.0168498	12	0	7.681	-0.000111373
2	0	0	1	0	0	28.6965	0.363076	0.36333	-0.304779	1	0.0167433	12	0	8.0312	-0.000110735
2	0	0	1	0	0	29.0465	0.359575	0.359817	-0.316687	1	0.0166344	12	0	8.3812	-0.000113949
2	0	0	1	0	0	29.3965	0.356075	0.356281	-0.320358	1	0.0165231	12	0	8.7312	-0.000114138
2	0	0	1	0	0	29.7465	0.352574	0.352844	-0.32811	1	0.0164093	12	0	9.0812	-0.000115772
2	0	0	1	0	1	30.0293	0.350274	0.350612	-0.296289	2	0.0163168	12	0	9.364	-0.000103882
2	1	0	1	0	1	30.3793	0.353775	0.353994	0.0556088	2	0.0162832	12	0	0.05	1.96852e-05
2	1	0	1	0	1	30.7293	0.357275	0.357535	0.207967	2	0.0163332	12	0	0.4	7.43554e-05
2	1	0	1	0	1	31.0793	0.360776	0.361023	0.286997	2	0.0164217	12	0	0.75	0.000103613
2	1	0	1	0	1	31.4294	0.364276	0.364513	0.317439	2	0.0165281	12	0	1.1001	0.000115711
2	1	0	1	0	1	31.7795	0.367777	0.36799	0.334672	2	0.0166429	12	0	1.4502	0.000123156
2	1	0	1	0	1	32.1295	0.371277	0.371549	0.341211	2	0.0167611	12	0	1.8002	0.000126776
2	1	0	1	0	1	32.4795	0.374777	0.375017	0.340286	2	0.0168808	12	0	2.1502	0.000127613
2	1	0	1	0	1	32.8296	0.378278	0.378542	0.344467	2	0.0170006	12	0	2.5003	0.000130395
2	1	0	1	0	1	33.1797	0.381779	0.381991	0.337151	2	0.01712	12	0	2.8504	0.000128789
2	1	0	1	0	1	33.5297	0.385279	0.385513	0.340418	2	0.0172387	12	0	3.2004	0.000131236
2	1	0	1	0	1	33.8797	0.388779	0.389045	0.3339	2	0.0173565	12	0	3.5504	0.000129902
2	1	0	1	0	1	34.2297	0.39228	0.392502	0.333704	2	0.0174737	12	0	3.9004	0.000130979
2	1	0	1	0	1	34.5799	0.39578	0.396008	0.33115	2	0.0175898	12	0	4.2506	0.000131138
2	1	0	1	0	1	34.9299	0.399281	0.399536	0.326189	2	0.0177051	12	0	4.6006	0.000130324
2	1	0	1	0	1	35.2799	0.402781	0.403056	0.327958	2	0.0178194	12	0	4.9506	0.000132185
2	1	0	1	0	1	35.6299	0.406282	0.406502	0.320141	2	0.0179328	12	0	5.3006	0.000130138
2	1	0	1	0	1	35.9801	0.409782	0.409999	0.323175	2	0.0180455	12	0	5.6508	0.000132502
2	1	0	1	0	1	36.3301	0.413283	0.413559	0.317018	2	0.0181573	12	0	6.0008	0.000131106
2	1	0	1	0	1	36.6801	0.416783	0.417058	0.316876	2	0.0182685	12	0	6.3508	0.000132155
2	1	0	1	0	1	37.0301	0.420284	0.420529	0.315368	2	0.0183788	12	0	6.7008	0.000132622
2	1	0	1	0	1	37.3803	0.423784	0.424025	0.31109	2	0.0184888	12	0	7.051	0.00013191
2	1	0	1	0	1	37.7303	0.427285	0.427505	0.314314	2	0.0185981	12	0	7.401	0.000134371
2	1	0	1	0	1	38.0803	0.430785	0.431012	0.308057	2	0.0187071	12	0	7.751	0.000132776
2	1	0	1	0	1	38.4303	0.434286	0.434571	0.31294	2	0.0188158	12	0	8.101	0.000135995
2	1	0	1	0	1	38.7805	0.437786	0.438045	0.307744	2	0.0189243	12	0	8.4512	0.000134806
2	1	0	1	0	1	39.1305	0.441287	0.441479	0.31086	2	0.0190328	12	0	8.8012	0.000137238
2	1	0	1	0	1	39.4805	0.444787	0.445035	0.310339	2	0.0191412	12	0	9.1512	0.000138112
2	1	0	1	0	1	39.8305	0.448288	0.448505	0.309673	2	0.0192501	12	0	9.5012	0.00013889
2	1	0	1	0	1	40.082	0.449188	0.449436	0.199851	2	0.0193232	12	0	9.7527	8.98203e-05
2	0	0	1	0	1	40.4471	0.445537	0.445739	-0.0439038	2	0.0193429	12	0	0.065	-1.95696e-05
2	0	0	1	0	1	40.8421	0.441587	0.441804	-0.126485	2	0.0193073	12	0	0.46	-5.58815e-05
2	0	0	1	0	1	41.1921	0.438086	0.438345	-0.15324	2	0.0192579	12	0	0.81	-6.71721e-05
2	0	0	1	0	1	41.5423	0.434586	0.434825	-0.170387	2	0.0192007	12	0	1.1602	-7.40886e-05
2	0	0	1	0	1	41.8923	0.431085	0.431331	-0.184119	2	0.0191388	12	0	1.5102	-7.94164e-05
2	0	0	1	0	1	42.2423	0.427585	0.427821	-0.189606	2	0.0190731	12	0	1.8602	-8.11175e-05
2	0	0	1	0	1	42.5923	0.424084	0.42433	-0.203318	2	0.0190044	12	0	2.2102	-8.62737e-05
2	0	0	1	0	1	42.9425	0.420584	0.420797	-0.205359	2	0.0189328	12	0	2.5604	-8.64144e-05
2	0	0	1	0	1	43.2925	0.417083	0.417351	-0.217294	2	0.0188587	12	0	2.9104	-9.06879e-05
2	0	0	1	0	1	43.6425	0.413583	0.413857	-0.220829	2	0.0187822	12	0	3.2604	-9.13915e-05
2	0	0	1	0	1	43.9925	0.410082	0.410301	-0.22869	2	0.0187032	12	0	3.6104	-9.38319e-05
2	0	0	1	0	1	44.3427	0.406582	0.406828	-0.236234	2	0.018622	12	0	3.9606	-9.61068e-05
2	0	0	1	0	1	44.6927	0.403081	0.403296	-0.239337	2	0.0185385	12	0	4.3106	-9.65236e-05
2	0	0	1	0	1	45.0427	0.399581	0.399787	-0.250247	2	0.018453	12	0	4.6606	-0.000100046
2	0	0	1	0	1	45.3927	0.39608	0.396282	-0.250982	2	0.0183652	12	0	5.0106	-9.94598e-05
2	0	0	1	0	1	45.7428	0.39258	0.392792	-0.262166	2	0.0182752	12	0	5.3607	-0.000102977
2	0	0	1	0	1	46.0929	0.38908	0.3893	-0.26419	2	0.0181832	12	0	5.7108	-0.000102849
2	0	0	1	0	1	46.4429	0.385579	0.38581	-0.272913	2	0.018089	12	0	6.0608	-0.000105293
2	0	0	1	0	1	46.7929	0.382079	0.382253	-0.278955	2	0.0179927	12	0	6.4108	-0.000106631
2	0	0	1	0	1	47.143	0.378577	0.378742	-0.282912	2	0.0178941	12	0	6.7609	-0.000107151
2	0	0	1	0	1	47.4931	0.375078	0.375292	-0.293101	2	0.0177935	12	0	7.111	-0.000109998
2	0	0	1	0	1	47.8431	0.371577	0.371783	-0.294018	2	0.0176907	12	0	7.461	-0.000109311
2	0	0	1	0	1	48.1931	0.368077	0.368279	-0.305788	2	0.0175857	12	0	7.811	-0.000112615
2	0	0	1	0	1	48.5431	0.364576	0.364776	-0.307177	2	0.0174785	12	0	8.161	-0.000112051
2	0	0	1	0	1	48.8933	0.361076	0.361311	-0.316864	2	0.017369	12	0	8.5112	-0.000114487
2	0	0	1	0	1	49.2433	0.357575	0.357758	-0.321827	2	0.0172575	12	0	8.8612	-0.000115136
2	0	0	1	0	1	49.5933	0.354075	0.354256	-0.327335	2	0.0171435	12	0	9.2112	-0.00011596
2	0	0	1	0	1	49.9433	0.350574	0.3508	-0.336969	2	0.0170275	12	0	9.5612	-0.000118209
2	0	0	1	0	0	50.2261	0.352274	0.352474	-0.0636327	3	0.0169666	12	0	9.844	-2.24289e-05
2	1	0	1	0	0	50.5761	0.355775	0.356031	0.148673	3	0.0169869	12	0	0.2	5.29323e-05
2	1	0	1	0	0	50.9261	0.359275	0.359545	0.252348	3	0.0170596	12	0	0.55	9.07305e-05
2	1	0	1	0	0	51.2761	0.362776	0.36302	0.294955	3	0.0171563	12	0	0.9	0.000107075
2	1	0	1	0	0	51.6263	0.366276	0.36651	0.315798	3	0.0172641	12	0	1.2502	0.000115743
2	1	0	1	0	0	51.9763	0.369777	0.36996	0.32578	3	0.0173764	12	0	1.6002	0.000120526
2	1	0	1	0	0	52.3263	0.373277	0.373498	0.324865	3	0.0174906	12	0	1.9502	0.000121336
2	1	0	1	0	0	52.6763	0.376778	0.377038	0.329396	3	0.017605	12	0	2.3002	0.000124195
2	1	0	1	0	0	53.0265	0.380278	0.380537	0.322181	3	0.0177192	12	0	2.6504	0.000122602
2	1	0	1	0	0	53.3765	0.383779	0.383948	0.324784	3	0.0178325	12	0	3.0004	0.0001247
2	1	0	1	0	0	53.7265	0.387279	0.387569	0.318121	3	0.0179448	12	0	3.3504	0.000123294
2	1	0	1	0	0	54.0765	0.39078	0.390992	0.316855	3	0.0180561	12	0	3.7004	0.000123888
2	1	0	1	0	0	54.4267	0.39428	0.394528	0.314096	3	0.0181663	12	0	4.0506	0.00012392
2	1	0	1	0	0	54.7767	0.397781	0.398011	0.307955	3	0.0182754	12	0	4.4006	0.000122569
2	1	0	1	0	0	55.1267	0.401281	0.401568	0.309613	3	0.0183833	12	0	4.7506	0.000124331
2	1	0	1	0	0	55.4767	0.404782	0.405	0.300801	3	0.0184902	12	0	5.1006	0.000121825
2	1	0	1	0	0	55.8269	0.408282	0.40856	0.303989	3	0.0185962	12	0	5.4508	0.000124198
2	1	0	1	0	0	56.1769	0.411783	0.412091	0.296404	3	0.018701	12	0	5.8008	0.000122146
2	1	0	1	0	0	56.5269	0.415283	0.415537	0.296849	3	0.0188051	12	0	6.1508	0.000123352
2	1	0	1	0	0	56.8769	0.418784	0.41905	0.293365	3	0.0189081	12	0	6.5008	0.000122935
2	1	0	1	0	0	57.2271	0.422284	0.422522	0.289943	3	0.0190105	12	0	6.851	0.000122507
2	1	0	1	0	0	57.5771	0.425785	0.426049	0.291174	3	0.0191119	12	0	7.201	0.000124054
2	1	0	1	0	0	57.9271	0.429285	0.429501	0.285011	3	0.0192128	12	0	7.551	0.000122413
2	1	0	1	0	0	58.2771	0.432786	0.433013	0.28858	3	0.0193131	12	0	7.901	0.000124959
2	1	0	1	0	0	58.6273	0.436286	0.436578	0.282425	3	0.0194131	12	0	8.2512	0.000123301
2	1	0	1	0	0	58.9773	0.439787	0.440038	0.285677	3	0.0195126	12	0	8.6012	0.000125709
2	1	0	1	0	0	59.3273	0.443287	0.443558	0.283275	3	0.0196119	12	0	8.9512	0.000125649
2	1	0	1	0	0	59.6773	0.446788	0.447011	0.282589	3	0.0197112	12	0	9.3012	0.000126321
2	1	0	1	0	0	59.9962	0.450013	0.450401	0.280538	3	0.0198015	12	0	9.6201	0.000126355
2	1	0	1	0	0	60.2789	0.447188	0.447389	0.00987747	3	0.0198357	12	0	9.9028	4.41907e-06
2	0	0	1	0	0	60.6289	0.443687	0.443949	-0.116542	3	0.019813	12	0	0.3	-5.17385e-05
2	0	0	1	0	0	60.9789	0.440187	0.440445	-0.155073	3	0.0197643	12	0	0.65	-6.83013e-05
2	0	0	1	0	0	61.3289	0.436686	0.436939	-0.178674	3	0.0197054	12	0	1	-7.80696e-05
2	0	0	1	0	0	61.6791	0.433186	0.433391	-0.188667	3	0.0196411	12	0	1.3502	-8.17666e-05
2	0	0	1	0	0	62.0291	0.429685	0.429953	-0.197445	3	0.0195732	12	0	1.7002	-8.4892e-05
2	0	0	1	0	0	62.3791	0.426185	0.42645	-0.207574	3	0.0195025	12	0	2.0502	-8.85199e-05
2	0	0	1	0	0	62.7291	0.422684	0.42288	-0.20989	3	0.0194292	12	0	2.4002	-8.87584e-05
2	0	0	1	0	0	63.0793	0.419184	0.419398	-0.221668	3	0.0193537	12	0	2.7504	-9.29669e-05
2	0	0	1	0	0	63.4293	0.415683	0.415957	-0.222028	3	0.0192759	12	0	3.1004	-9.23543e-05
2	0	0	1	0	0	63.7793	0.412183	0.412512	-0.233136	3	0.0191961	12	0	3.4504	-9.61715e-05
2	0	0	1	0	0	64.1293	0.408682	0.408911	-0.235367	3	0.0191143	12	0	3.8004	-9.62441e-05
2	0	0	1	0	0	64.4795	0.405182	0.405372	-0.242653	3	0.0190302	12	0	4.1506	-9.83648e-05
2	0	0	1	0	0	64.8295	0.401681	0.401914	-0.249055	3	0.0189445	12	0	4.5006	-0.000100099
2	0	0	1	0	0	65.1795	0.398181	0.398439	-0.251821	3	0.0188565	12	0	4.8506	-0.000100335
2	0	0	1	0	0	65.5295	0.39468	0.394894	-0.261677	3	0.0187669	12	0	5.2006	-0.000103335
2	0	0	1	0	0	65.8797	0.39118	0.391436	-0.262265	3	0.018675	12	0	5.5508	-0.00010266
2	0	0	1	0	0	66.2297	0.387679	0.387853	-0.273178	3	0.0185813	12	0	5.9008	-0.000105953
2	0	0	1	0	0	66.5797	0.384179	0.384438	-0.274722	3	0.0184856	12	0	6.2508	-0.000105614
2	0	0	1	0	0	66.9297	0.380678	0.381006	-0.282985	3	0.0183877	12	0	6.6008	-0.000107819
2	0	0	1	0	0	67.2799	0.377178	0.3774	-0.288177	3	0.018288	12	0	6.951	-0.000108758
2	0	0	1	0	0	67.6299	0.373677	0.37394	-0.292595	3	0.018186	12	0	7.301	-0.000109413
2	0	0	1	0	0	67.9799	0.370177	0.37032	-0.30242	3	0.0180821	12	0	7.651	-0.000111992
2	0	0	1	0	0	68.3299	0.366676	0.36683	-0.303241	3	0.017976	12	0	8.001	-0.000111238
2	0	0	1	0	0	68.6801	0.363176	0.363355	-0.315178	3	0.0178677	12	0	8.3512	-0.000114522
2	0	0	1	0	0	69.0301	0.359675	0.35999	-0.315781	3	0.0177573	12	0	8.7012	-0.000113678
2	0	0	1	0	0	69.3801	0.356175	0.356333	-0.326662	3	0.0176447	12	0	9.0512	-0.0001164
2	0	0	1	0	0	69.7301	0.352674	0.352925	-0.330119	3	0.0175301	12	0	9.4012	-0.000116507
2	0	0	1	0	1	70.0229	0.350274	0.350367	-0.298461	4	0.0174333	12	0	9.694	-0.000104571
2	1	0	1	0	1	70.3729	0.353775	0.353944	0.0476892	4	0.0173986	12	0	0.000000000000000E+000	1.68793e-05
2	1	0	1	0	1	70.7229	0.357275	0.357502	0.200497	4	0.0174455	12	0	0.35	7.1678e-05
2	1	0	1	0	1	71.0729	0.360776	0.361048	0.268175	4	0.0175295	12	0	0.7	9.68242e-05
2	1	0	1	0	1	71.423	0.364276	0.364474	0.303164	4	0.0176301	12	0	1.0501	0.000110496
2	1	0	1	0	1	71.7731	0.367777	0.367932	0.311667	4	0.0177382	12	0	1.4002	0.000114672
2	1	0	1	0	1	72.1231	0.371277	0.371504	0.321665	4	0.0178491	12	0	1.7502	0.0001195
2	1	0	1	0	1	72.4731	0.374777	0.375036	0.31735	4	0.017961	12	0	2.1002	0.000119018
2	1	0	1	0	1	72.8232	0.378278	0.378482	0.320027	4	0.0180727	12	0	2.4503	0.000121125
2	1	0	1	0	1	73.1733	0.381779	0.381961	0.314944	4	0.0181836	12	0	2.8004	0.000120296
2	1	0	1	0	1	73.5233	0.385279	0.38553	0.31257	4	0.0182937	12	0	3.1504	0.000120505
2	1	0	1	0	1	73.8733	0.388779	0.389015	0.310935	4	0.0184026	12	0	3.5004	0.000120958
2	1	0	1	0	1	74.2233	0.39228	0.392513	0.304031	4	0.0185104	12	0	3.8504	0.000119336
2	1	0	1	0	1	74.5735	0.39578	0.396	0.305618	4	0.018617	12	0	4.2006	0.000121025
2	1	0	1	0	1	74.9235	0.399281	0.399509	0.296621	4	0.0187224	12	0	4.5506	0.000118503
2	1	0	1	0	1	75.2735	0.402781	0.403012	0.299104	4	0.0188267	12	0	4.9006	0.000120542
2	1	0	1	0	1	75.6235	0.406282	0.40651	0.29107	4	0.0189298	12	0	5.2506	0.000118323
2	1	0	1	0	1	75.9737	0.409782	0.409995	0.291428	4	0.0190321	12	0	5.6008	0.000119484
2	1	0	1	0	1	76.3237	0.413283	0.413506	0.28713	4	0.019133	12	0	5.9508	0.00011873
2	1	0	1	0	1	76.6737	0.416783	0.416996	0.283553	4	0.0192331	12	0	6.3008	0.000118241
2	1	0	1	0	1	77.0237	0.420284	0.420518	0.283628	4	0.0193321	12	0	6.6508	0.000119271
2	1	0	1	0	1	77.3739	0.423784	0.424036	0.277105	4	0.0194304	12	0	7.001	0.000117502
2	1	0	1	0	1	77.7239	0.427285	0.427499	0.280012	4	0.0195278	12	0	7.351	0.000119705
2	1	0	1	0	1	78.0739	0.430785	0.430978	0.273026	4	0.0196245	12	0	7.701	0.000117668
2	1	0	1	0	1	78.4239	0.434286	0.434524	0.276167	4	0.0197207	12	0	8.051	0.000120001
2	1	0	1	0	1	78.7741	0.437786	0.438011	0.271026	4	0.0198162	12	0	8.4012	0.000118712
2	1	0	1	0	1	79.1241	0.441287	0.441507	0.271881	4	0.0199115	12	0	8.7512	0.000120037
2	1	0	1	0	1	79.4741	0.444787	0.445036	0.271142	4	0.0200062	12	0	9.1012	0.000120668
2	1	0	1	0	1	79.8241	0.448288	0.44851	0.2684	4	0.0201009	12	0	9.4512	0.00012038
2	1	0	1	0	1	80.0756	0.449188	0.44944	0.158858	4	0.0201636	12	0	9.7027	7.13972e-05
2	0	0	1	0	1	80.4257	0.445687	0.445874	-0.0699428	4	0.0201706	12	0	0.1	-3.11856e-05
2	0	0	1	0	1	80.7757	0.442187	0.442459	-0.149162	4	0.0201298	12	0	0.45	-6.59981e-05
2	0	0	1	0	1	81.1257	0.438687	0.438958	-0.172535	4	0.0200729	12	0	0.8	-7.57356e-05
2	0	0	1	0	1	81.4758	0.435186	0.435464	-0.190496	4	0.0200089	12	0	1.1501	-8.29541e-05
2	0	0	1	0	1	81.8259	0.431686	0.431932	-0.197978	4	0.019941	12	0	1.5002	-8.55131e-05
2	0	0	1	0	1	82.1759	0.428185	0.428435	-0.205631	4	0.0198701	12	0	1.8502	-8.80994e-05
2	0	0	1	0	1	82.5259	0.424685	0.42484	-0.21436	4	0.0197968	12	0	2.2002	-9.10687e-05
2	0	0	1	0	1	82.8759	0.421184	0.421392	-0.216339	4	0.0197213	12	0	2.5502	-9.11635e-05
2	0	0	1	0	1	83.2261	0.417684	0.417918	-0.227209	4	0.0196438	12	0	2.9004	-9.49548e-05
2	0	0	1	0	1	83.5761	0.414183	0.414433	-0.227216	4	0.0195642	12	0	3.2504	-9.41657e-05
2	0	0	1	0	1	83.9261	0.410683	0.410876	-0.237871	4	0.0194828	12	0	3.6004	-9.77355e-05
2	0	0	1	0	1	84.2761	0.407182	0.407406	-0.239485	4	0.0193994	12	0	3.9504	-9.75675e-05
2	0	0	1	0	1	84.6263	0.403682	0.403931	-0.24722	4	0.019314	12	0	4.3006	-9.986e-05
2	0	0	1	0	1	84.9763	0.400181	0.400371	-0.251243	4	0.019227	12	0	4.6506	-0.00010059
2	0	0	1	0	1	85.3263	0.396681	0.396914	-0.255677	4	0.0191379	12	0	5.0006	-0.000101482
2	0	0	1	0	1	85.6763	0.39318	0.393357	-0.263925	4	0.0190472	12	0	5.3506	-0.000103817
2	0	0	1	0	1	86.0265	0.38968	0.389915	-0.26486	4	0.0189544	12	0	5.7008	-0.000103273
2	0	0	1	0	1	86.3765	0.386179	0.386422	-0.275784	4	0.0188599	12	0	6.0508	-0.000106569
2	0	0	1	0	1	86.7265	0.382679	0.382945	-0.275786	4	0.0187633	12	0	6.4008	-0.000105611
2	0	0	1	0	1	87.0765	0.379178	0.379391	-0.28676	4	0.0186647	12	0	6.7508	-0.000108794
2	0	0	1	0	1	87.4267	0.375678	0.375848	-0.288068	4	0.0185642	12	0	7.101	-0.00010827
2	0	0	1	0	1	87.7767	0.372177	0.372393	-0.296523	4	0.0184616	12	0	7.451	-0.000110423
2	0	0	1	0	1	88.1267	0.368677	0.368908	-0.30198	4	0.0183571	12	0	7.801	-0.000111403
2	0	0	1	0	1	88.4767	0.365176	0.365413	-0.306386	4	0.0182503	12	0	8.151	-0.000111957
2	0	0	1	0	1	88.8269	0.361676	0.361875	-0.315716	4	0.0181416	12	0	8.5012	-0.00011425
2	0	0	1	0	1	89.1769	0.358175	0.358363	-0.317448	4	0.0180306	12	0	8.8512	-0.000113762
2	0	0	1	0	1	89.5269	0.354675	0.354873	-0.328784	4	0.0179176	12	0	9.2012	-0.000116676
2	0	0	1	0	1	89.8769	0.351174	0.351381	-0.330141	4	0.0178023	12	0	9.5512	-0.000116005
2	0	0	1	0	0	90.1697	0.351774	0.351991	-0.115875	5	0.0177261	12	0	9.844	-4.0787e-05
2	1	0	1	0	0	90.5197	0.355275	0.355481	0.129994	5	0.0177347	12	0	0.15	4.62103e-05
2	1	0	1	0	0	90.8697	0.358775	0.359044	0.233011	5	0.0178008	12	0	0.5	8.36611e-05
2	1	0	1	0	0	91.2197	0.362276	0.362488	0.284353	5	0.0178927	12	0	0.85	0.000103075
2	1	0	1	0	0	91.5699	0.365776	0.365974	0.304106	5	0.0179961	12	0	1.2002	0.000111295
2	1	0	1	0	0	91.9199	0.369277	0.36952	0.311765	5	0.0181044	12	0	1.5502	0.000115203
2	1	0	1	0	0	92.2699	0.372777	0.373023	0.316476	5	0.0182142	12	0	1.9002	0.000118053
2	1	0	1	0	0	92.6199	0.376278	0.376536	0.311821	5	0.0183244	12	0	2.2502	0.000117412
2	1	0	1	0	0	92.9701	0.379778	0.379995	0.314935	5	0.0184341	12	0	2.6004	0.000119674
2	1	0	1	0	0	93.3201	0.383279	0.383519	0.306339	5	0.0185429	12	0	2.9504	0.000117487
2	1	0	1	0	0	93.6701	0.386779	0.386931	0.308633	5	0.0186506	12	0	3.3004	0.000119419
2	1	0	1	0	0	94.0201	0.39028	0.39054	0.300525	5	0.018757	12	0	3.6504	0.000117367
2	1	0	1	0	0	94.3703	0.39378	0.393998	0.299997	5	0.0188624	12	0	4.0006	0.000118198
2	1	0	1	0	0	94.7203	0.397281	0.397493	0.295221	5	0.0189664	12	0	4.3506	0.000117348
2	1	0	1	0	0	95.0703	0.400781	0.401058	0.291056	5	0.0190693	12	0	4.7006	0.00011673
2	1	0	1	0	0	95.4203	0.404282	0.404548	0.290347	5	0.0191708	12	0	5.0506	0.000117459
2	1	0	1	0	0	95.7705	0.407782	0.407993	0.283017	5	0.0192714	12	0	5.4008	0.000115469
2	1	0	1	0	0	96.1205	0.411283	0.411536	0.285476	5	0.0193709	12	0	5.7508	0.000117484
2	1	0	1	0	0	96.4705	0.414783	0.415047	0.276828	5	0.0194693	12	0	6.1008	0.000114897
2	1	0	1	0	0	96.8205	0.418284	0.41857	0.279437	5	0.0195666	12	0	6.4508	0.000116964
2	1	0	1	0	0	97.1707	0.421784	0.422024	0.272171	5	0.0196631	12	0	6.801	0.000114863
2	1	0	1	0	0	97.5207	0.425285	0.425487	0.273248	5	0.0197587	12	0	7.151	0.000116264
2	1	0	1	0	0	97.8707	0.428785	0.429069	0.269561	5	0.0198534	12	0	7.501	0.00011566
2	1	0	1	0	0	98.2207	0.432286	0.432505	0.266961	5	0.0199475	12	0	7.851	0.000115462
2	1	0	1	0	0	98.5709	0.435786	0.436024	0.267138	5	0.0200408	12	0	8.2012	0.000116478
2	1	0	1	0	0	98.9209	0.439287	0.439495	0.261959	5	0.0201337	12	0	8.5512	0.00011513
2	1	0	1	0	0	99.2709	0.442787	0.44306	0.265845	5	0.0202259	12	0	8.9012	0.000117785
2	1	0	1	0	0	99.6209	0.446288	0.446524	0.259472	5	0.0203179	12	0	9.2512	0.000115861
2	1	0	1	0	0	99.9686	0.449763	0.450021	0.264406	5	0.020409	12	0	9.5989	0.000118988
2	1	0	1	0	0	100.222	0.447688	0.447906	0.0199075	5	0.0204426	12	0	9.8528	8.91671e-06
2	0	0	1	0	0	100.572	0.444187	0.444447	-0.121074	5	0.0204198	12	0	0.25	-5.38108e-05
2	0	0	1	0	0	100.922	0.440687	0.440915	-0.166478	5	0.0203684	12	0	0.6	-7.34028e-05
2	0	0	1	0	0	101.272	0.437186	0.437416	-0.184672	5	0.0203062	12	0	0.95	-8.07786e-05
2	0	0	1	0	0	101.623	0.433686	0.433963	-0.198651	5	0.0202392	12	0	1.3002	-8.62075e-05
2	0	0	1	0	0	101.973	0.430185	0.430438	-0.202111	5	0.0201688	12	0	1.6502	-8.69962e-05
2	0	0	1	0	0	102.323	0.426685	0.426888	-0.213775	5	0.0200961	12	0	2.0002	-9.12579e-05
2	0	0	1	0	0	102.673	0.423184	0.423429	-0.214542	5	0.020021	12	0	2.3502	-9.08432e-05
2	0	0	1	0	0	103.023	0.419684	0.419891	-0.224707	5	0.019944	12	0	2.7004	-9.43524e-05
2	0	0	1	0	0	103.373	0.416183	0.416391	-0.226484	5	0.0198652	12	0	3.0504	-9.4306e-05
2	0	0	1	0	0	103.723	0.412683	0.412877	-0.233723	5	0.0197844	12	0	3.4004	-9.64989e-05
2	0	0	1	0	0	104.073	0.409182	0.409396	-0.238315	5	0.0197019	12	0	3.7504	-9.75653e-05
2	0	0	1	0	0	104.423	0.405682	0.40594	-0.242258	5	0.0196174	12	0	4.1006	-9.83423e-05
2	0	0	1	0	0	104.773	0.402181	0.402412	-0.250647	5	0.0195313	12	0	4.4506	-0.000100863
2	0	0	1	0	0	105.123	0.398681	0.398887	-0.251119	5	0.0194434	12	0	4.8006	-0.000100168
2	0	0	1	0	0	105.473	0.39518	0.395427	-0.26183	5	0.0193537	12	0	5.1506	-0.000103535
2	0	0	1	0	0	105.823	0.39168	0.391874	-0.261192	5	0.0192621	12	0	5.5008	-0.000102354
2	0	0	1	0	0	106.173	0.388179	0.388379	-0.271773	5	0.0191687	12	0	5.8508	-0.000105551
2	0	0	1	0	0	106.523	0.384679	0.384893	-0.273467	5	0.0190735	12	0	6.2008	-0.000105255
2	0	0	1	0	0	106.873	0.381178	0.38136	-0.281043	5	0.0189762	12	0	6.5508	-0.000107179
2	0	0	1	0	0	107.223	0.377678	0.377863	-0.286293	5	0.0188771	12	0	6.901	-0.00010818
2	0	0	1	0	0	107.573	0.374177	0.374307	-0.290287	5	0.018776	12	0	7.251	-0.000108656
2	0	0	1	0	0	107.923	0.370677	0.370852	-0.299579	5	0.018673	12	0	7.601	-0.0001111
2	0	0	1	0	0	108.273	0.367177	0.36737	-0.300454	5	0.0185678	12	0	7.951	-0.000110378
2	0	0	1	0	0	108.624	0.363676	0.363899	-0.311776	5	0.0184606	12	0	8.3012	-0.000113455
2	0	0	1	0	0	108.974	0.360175	0.36038	-0.31241	5	0.0183513	12	0	8.6512	-0.000112586
2	0	0	1	0	0	109.324	0.356675	0.356867	-0.323321	5	0.0182399	12	0	9.0012	-0.000115383
2	0	0	1	0	0	109.674	0.353175	0.353372	-0.325987	5	0.0181264	12	0	9.3512	-0.000115195
2	0	0	1	0	1	109.989	0.349999	0.350212	-0.332725	5	0.0180221	12	0	9.6667	-0.000116524
2	0	0	1	0	1	110.316	0.353274	0.353455	0.0164699	6	0.0179784	12	0	9.994	5.82137e-06
2	1	0	1	0	1	110.666	0.356775	0.356976	0.183186	6	0.0180174	12	0	0.3	6.5393e-05
2	1	0	1	0	1	111.016	0.360276	0.360475	0.25879	6	0.0180969	12	0	0.65	9.32871e-05
2	1	0	1	0	1	111.366	0.363776	0.363951	0.293869	6	0.0181942	12	0	1	0.000106954
2	1	0	1	0	1	111.717	0.367276	0.367504	0.304187	6	0.0182995	12	0	1.3502	0.00011179
2	1	0	1	0	1	112.067	0.370777	0.371046	0.313719	6	0.0184077	12	0	1.7002	0.000116404
2	1	0	1	0	1	112.417	0.374277	0.374466	0.308962	6	0.0185168	12	0	2.0502	0.000115696
2	1	0	1	0	1	112.767	0.377778	0.378036	0.312549	6	0.0186256	12	0	2.4002	0.000118155
2	1	0	1	0	1	113.117	0.381278	0.381476	0.305225	6	0.0187337	12	0	2.7504	0.000116436
2	1	0	1	0	1	113.467	0.384779	0.384961	0.305777	6	0.0188408	12	0	3.1004	0.000117712
2	1	0	1	0	1	113.817	0.388279	0.388544	0.300298	6	0.0189467	12	0	3.4504	0.000116679
2	1	0	1	0	1	114.167	0.39178	0.392066	0.297118	6	0.0190514	12	0	3.8004	0.00011649
2	1	0	1	0	1	114.517	0.39528	0.395541	0.294561	6	0.0191548	12	0	4.1506	0.000116511
2	1	0	1	0	1	114.867	0.398781	0.399059	0.288143	6	0.019257	12	0	4.5006	0.000114986
2	1	0	1	0	1	115.217	0.402281	0.402508	0.288954	6	0.0193578	12	0	4.8506	0.000116306
2	1	0	1	0	1	115.567	0.405782	0.406011	0.280403	6	0.0194575	12	0	5.2006	0.000113847
2	1	0	1	0	1	115.917	0.409282	0.409542	0.283188	6	0.0195561	12	0	5.5508	0.000115978
2	1	0	1	0	1	116.267	0.412783	0.412976	0.273946	6	0.0196535	12	0	5.9008	0.000113133
2	1	0	1	0	1	116.617	0.416283	0.416512	0.276165	6	0.0197499	12	0	6.2508	0.000115026
2	1	0	1	0	1	116.967	0.419784	0.420012	0.269097	6	0.0198451	12	0	6.6008	0.000113024
2	1	0	1	0	1	117.317	0.423284	0.423512	0.268959	6	0.0199395	12	0	6.951	0.000113907
2	1	0	1	0	1	117.667	0.426785	0.427034	0.26567	6	0.0200329	12	0	7.301	0.00011345
2	1	0	1	0	1	118.017	0.430285	0.430522	0.262801	6	0.0201256	12	0	7.651	0.000113142
2	1	0	1	0	1	118.367	0.433786	0.433957	0.263118	6	0.0202174	12	0	8.001	0.000114182
2	1	0	1	0	1	118.718	0.437286	0.4376	0.257762	6	0.0203088	12	0	8.3512	0.000112796
2	1	0	1	0	1	119.068	0.440787	0.441037	0.260794	6	0.0203993	12	0	8.7012	0.00011502
2	1	0	1	0	1	119.418	0.444287	0.444526	0.254404	6	0.0204896	12	0	9.0512	0.000113089
2	1	0	1	0	1	119.768	0.447788	0.447989	0.258899	6	0.0205794	12	0	9.4012	0.000115984
2	1	0	1	0	1	120.019	0.449688	0.449927	0.212842	6	0.0206425	12	0	9.6526	9.57636e-05
2	0	0	1	0	1	120.369	0.446188	0.446404	-0.0673991	6	0.0206574	12	0	0.1	-3.00873e-05
2	0	0	1	0	1	120.719	0.442687	0.442952	-0.148287	6	0.0206171	12	0	0.45	-6.56841e-05
2	0	0	1	0	1	121.069	0.439187	0.439436	-0.179065	6	0.0205588	12	0	0.8	-7.86878e-05
2	0	0	1	0	1	121.419	0.435686	0.435844	-0.193908	6	0.0204934	12	0	1.15	-8.45135e-05
2	0	0	1	0	1	121.769	0.432186	0.432388	-0.200436	6	0.0204241	12	0	1.5002	-8.66659e-05
2	0	0	1	0	1	122.119	0.428685	0.428922	-0.211065	6	0.0203522	12	0	1.8502	-9.05305e-05
2	0	0	1	0	1	122.469	0.425185	0.425421	-0.212054	6	0.020278	12	0	2.2002	-9.02125e-05
2	0	0	1	0	1	122.819	0.421684	0.421898	-0.223445	6	0.0202018	12	0	2.5502	-9.42708e-05
2	0	0	1	0	1	123.17	0.418184	0.418429	-0.222615	6	0.0201237	12	0	2.9004	-9.31488e-05
2	0	0	1	0	1	123.52	0.414683	0.414897	-0.233401	6	0.0200438	12	0	3.2504	-9.68372e-05
2	0	0	1	0	1	123.87	0.411183	0.41143	-0.233767	6	0.0199622	12	0	3.6004	-9.61788e-05
2	0	0	1	0	1	124.22	0.407682	0.407898	-0.242762	6	0.0198787	12	0	3.9504	-9.9022e-05
2	0	0	1	0	1	124.57	0.404182	0.4044	-0.244928	6	0.0197935	12	0	4.3006	-9.90488e-05
2	0	0	1	0	1	124.92	0.400681	0.400904	-0.250982	6	0.0197065	12	0	4.6506	-0.00010062
2	0	0	1	0	1	125.27	0.397181	0.397417	-0.256357	6	0.019618	12	0	5.0006	-0.000101881
2	0	0	1	0	1	125.62	0.39368	0.393977	-0.259507	6	0.0195275	12	0	5.3506	-0.00010224
2	0	0	1	0	1	125.97	0.39018	0.39036	-0.267971	6	0.0194353	12	0	5.7008	-0.000104605
2	0	0	1	0	1	126.32	0.386679	0.386908	-0.268848	6	0.0193412	12	0	6.0508	-0.000104019
2	0	0	1	0	1	126.67	0.383179	0.383404	-0.279316	6	0.0192454	12	0	6.4008	-0.000107091
2	0	0	1	0	1	127.02	0.379678	0.379866	-0.279171	6	0.0191475	12	0	6.7508	-0.000106048
2	0	0	1	0	1	127.37	0.376178	0.376403	-0.290084	6	0.0190478	12	0	7.101	-0.000109188
2	0	0	1	0	1	127.72	0.372677	0.372915	-0.2911	6	0.0189462	12	0	7.451	-0.000108556
2	0	0	1	0	1	128.07	0.369177	0.369386	-0.300413	6	0.0188425	12	0	7.801	-0.000110968
2	0	0	1	0	1	128.42	0.365676	0.365899	-0.303924	6	0.0187369	12	0	8.151	-0.000111206
2	0	0	1	0	1	128.77	0.362176	0.362381	-0.310808	6	0.018629	12	0	8.5012	-0.000112631
2	0	0	1	0	1	129.12	0.358675	0.35886	-0.317169	6	0.0185193	12	0	8.8512	-0.000113819
2	0	0	1	0	1	129.47	0.355175	0.355368	-0.321331	6	0.0184074	12	0	9.2012	-0.000114191
2	0	0	1	0	1	129.82	0.351674	0.35192	-0.330769	6	0.0182934	12	0	9.5512	-0.000116404
2	0	0	1	0	0	130.113	0.351274	0.351512	-0.163387	7	0.0182082	12	0	9.844	-5.74327e-05
2	1	0	1	0	0	130.463	0.354775	0.354972	0.103103	7	0.0182048	12	0	0.1	3.65989e-05
2	1	0	1	0	0	130.813	0.358275	0.358529	0.224752	7	0.0182651	12	0	0.45	8.05801e-05
2	1	0	1	0	0	131.163	0.361776	0.362028	0.27288	7	0.0183537	12	0	0.8	9.87903e-05
2	1	0	1	0	0	131.513	0.365276	0.365515	0.300584	7	0.0184546	12	0	1.1502	0.000109868
2	1	0	1	0	0	131.863	0.368777	0.368992	0.304135	7	0.0185608	12	0	1.5002	0.000112224
2	1	0	1	0	0	132.213	0.372277	0.372525	0.311795	7	0.0186687	12	0	1.8502	0.000116151
2	1	0	1	0	0	132.563	0.375778	0.376024	0.30644	7	0.0187769	12	0	2.2002	0.000115229
2	1	0	1	0	0	132.914	0.379278	0.379484	0.307974	7	0.0188847	12	0	2.5504	0.000116871
2	1	0	1	0	0	133.264	0.382779	0.382982	0.302494	7	0.0189913	12	0	2.9004	0.00011585
2	1	0	1	0	0	133.614	0.386279	0.386428	0.30047	7	0.019097	12	0	3.2504	0.00011611
2	1	0	1	0	0	133.964	0.38978	0.390054	0.296773	7	0.0192013	12	0	3.6004	0.000115757
2	1	0	1	0	0	134.314	0.39328	0.393483	0.291681	7	0.0193045	12	0	3.9506	0.000114772
2	1	0	1	0	0	134.664	0.396781	0.397016	0.290456	7	0.0194061	12	0	4.3006	0.000115316
2	1	0	1	0	0	135.014	0.400281	0.400558	0.283153	7	0.0195067	12	0	4.6506	0.000113419
2	1	0	1	0	0	135.364	0.403782	0.403991	0.284354	7	0.0196059	12	0	5.0006	0.000114877
2	1	0	1	0	0	135.714	0.407282	0.407496	0.275454	7	0.0197041	12	0	5.3508	0.000112246
2	1	0	1	0	0	136.064	0.410783	0.411005	0.278138	7	0.019801	12	0	5.7008	0.000114316
2	1	0	1	0	0	136.414	0.414283	0.414533	0.269392	7	0.0198968	12	0	6.0508	0.000111672
2	1	0	1	0	0	136.764	0.417784	0.417966	0.271223	7	0.0199915	12	0	6.4008	0.000113362
2	1	0	1	0	0	137.114	0.421284	0.421475	0.264407	7	0.0200852	12	0	6.751	0.000111441
2	1	0	1	0	0	137.464	0.424785	0.424999	0.264476	7	0.0201779	12	0	7.101	0.000112402
2	1	0	1	0	0	137.814	0.428285	0.42854	0.260928	7	0.0202696	12	0	7.451	0.000111818
2	1	0	1	0	0	138.164	0.431785	0.431988	0.258629	7	0.0203607	12	0	7.801	0.000111724
2	1	0	1	0	0	138.514	0.435286	0.435515	0.257825	7	0.0204509	12	0	8.1512	0.000112287
2	1	0	1	0	0	138.864	0.438787	0.439028	0.253026	7	0.0205405	12	0	8.5012	0.000111086
2	1	0	1	0	0	139.214	0.442287	0.442526	0.255834	7	0.0206295	12	0	8.8512	0.000113213
2	1	0	1	0	0	139.564	0.445787	0.445998	0.24959	7	0.020718	12	0	9.2012	0.000111317
2	1	0	1	0	0	139.915	0.449288	0.449496	0.254298	7	0.0208062	12	0	9.5513	0.000114306
2	1	0	1	0	0	140.166	0.448188	0.44842	0.0478849	7	0.020848	12	0	9.8028	2.14725e-05
2	0	0	1	0	0	140.516	0.444687	0.444944	-0.118224	7	0.0208297	12	0	0.25	-5.26031e-05
2	0	0	1	0	0	140.866	0.441187	0.441397	-0.165331	7	0.0207786	12	0	0.6	-7.29768e-05
2	0	0	1	0	0	141.216	0.437686	0.437912	-0.188675	7	0.0207159	12	0	0.95	-8.26231e-05
2	0	0	1	0	0	141.566	0.434186	0.434358	-0.197721	7	0.0206482	12	0	1.3002	-8.58815e-05
2	0	0	1	0	0	141.916	0.430685	0.43089	-0.205736	7	0.0205773	12	0	1.6502	-8.86495e-05
2	0	0	1	0	0	142.266	0.427185	0.427427	-0.213303	7	0.0205042	12	0	2.0002	-9.11712e-05
2	0	0	1	0	0	142.616	0.423684	0.423901	-0.216023	7	0.0204288	12	0	2.3502	-9.15724e-05
2	0	0	1	0	0	142.966	0.420184	0.420378	-0.224993	7	0.0203517	12	0	2.7004	-9.45821e-05
2	0	0	1	0	0	143.316	0.416683	0.416893	-0.225462	7	0.0202728	12	0	3.0504	-9.39935e-05
2	0	0	1	0	0	143.666	0.413183	0.413419	-0.235478	7	0.0201922	12	0	3.4004	-9.73513e-05
2	0	0	1	0	0	144.016	0.409682	0.409887	-0.235111	7	0.0201098	12	0	3.7504	-9.63691e-05
2	0	0	1	0	0	144.367	0.406182	0.406346	-0.245137	7	0.0200256	12	0	4.1006	-9.96104e-05
2	0	0	1	0	0	144.717	0.402682	0.402905	-0.245103	7	0.0199398	12	0	4.4506	-9.87531e-05
2	0	0	1	0	0	145.067	0.399181	0.399418	-0.253997	7	0.0198523	12	0	4.8006	-0.000101451
2	0	0	1	0	0	145.417	0.39568	0.39589	-0.255768	7	0.0197632	12	0	5.1506	-0.000101256
2	0	0	1	0	0	145.767	0.39218	0.392402	-0.262631	7	0.0196722	12	0	5.5008	-0.000103057
2	0	0	1	0	0	146.117	0.388679	0.388909	-0.267609	7	0.0195796	12	0	5.8508	-0.000104076
2	0	0	1	0	0	146.467	0.385179	0.385406	-0.271731	7	0.0194851	12	0	6.2008	-0.000104727
2	0	0	1	0	0	146.817	0.381679	0.381902	-0.279461	7	0.0193888	12	0	6.5508	-0.000106727
2	0	0	1	0	0	147.167	0.378178	0.378395	-0.281081	7	0.0192905	12	0	6.901	-0.00010636
2	0	0	1	0	0	147.517	0.374678	0.374893	-0.291078	7	0.0191905	12	0	7.251	-0.000109123
2	0	0	1	0	0	147.867	0.371177	0.371393	-0.291519	7	0.0190884	12	0	7.601	-0.000108268
2	0	0	1	0	0	148.217	0.367677	0.367927	-0.302503	7	0.0189844	12	0	7.951	-0.000111299
2	0	0	1	0	0	148.567	0.364176	0.364352	-0.303102	7	0.0188784	12	0	8.3011	-0.000110436
2	0	0	1	0	0	148.917	0.360676	0.360885	-0.313905	7	0.0187703	12	0	8.6512	-0.000113284
2	0	0	1	0	0	149.267	0.357175	0.357407	-0.315758	7	0.0186602	12	0	9.0012	-0.000112854
2	0	0	1	0	0	149.617	0.353675	0.353922	-0.324978	7	0.0185479	12	0	9.3512	-0.000115017
2	0	0	1	0	0	149.962	0.350224	0.350481	-0.331188	7	0.0184352	12	0	9.6962	-0.000116075
2	0	0	1	0	1	150.26	0.352774	0.352993	-0.0215147	8	0.0183854	12	0	9.994	-7.59454e-06
2	1	0	1	0	1	150.61	0.356275	0.356459	0.168585	8	0.0184162	12	0	0.3	6.00936e-05
2	1	0	1	0	1	150.96	0.359775	0.360002	0.249964	8	0.0184914	12	0	0.65	8.99877e-05
2	1	0	1	0	1	151.31	0.363276	0.363532	0.285931	8	0.0185864	12	0	1	0.000103945
2	1	0	1	0	1	151.66	0.366776	0.367015	0.302882	8	0.0186897	12	0	1.3502	0.000111162
2	1	0	1	0	1	152.01	0.370277	0.370502	0.305033	8	0.0187965	12	0	1.7002	0.000113015
2	1	0	1	0	1	152.36	0.373777	0.37402	0.309829	8	0.018904	12	0	2.0502	0.000115882
2	1	0	1	0	1	152.71	0.377278	0.377513	0.303383	8	0.0190114	12	0	2.4002	0.000114531
2	1	0	1	0	1	153.06	0.380778	0.380961	0.305535	8	0.019118	12	0	2.7504	0.000116397
2	1	0	1	0	1	153.41	0.384279	0.384511	0.297021	8	0.0192235	12	0	3.1004	0.000114208
2	1	0	1	0	1	153.76	0.387779	0.387962	0.298447	8	0.0193277	12	0	3.4504	0.000115786
2	1	0	1	0	1	154.11	0.39128	0.391475	0.290206	8	0.0194307	12	0	3.8004	0.000113609
2	1	0	1	0	1	154.461	0.39478	0.394967	0.290049	8	0.0195324	12	0	4.1506	0.00011456
2	1	0	1	0	1	154.811	0.398281	0.398504	0.283972	8	0.0196327	12	0	4.5006	0.000113164
2	1	0	1	0	1	155.161	0.401781	0.402013	0.281127	8	0.0197318	12	0	4.8506	0.000113017
2	1	0	1	0	1	155.511	0.405282	0.405565	0.27866	8	0.0198295	12	0	5.2006	0.000113015
2	1	0	1	0	1	155.861	0.408782	0.409033	0.273182	8	0.0199263	12	0	5.5508	0.00011174
2	1	0	1	0	1	156.211	0.412283	0.412527	0.273266	8	0.0200217	12	0	5.9008	0.000112729
2	1	0	1	0	1	156.561	0.415783	0.416057	0.26532	8	0.020116	12	0	6.2508	0.000110388
2	1	0	1	0	1	156.911	0.419284	0.419512	0.267493	8	0.0202092	12	0	6.6008	0.000112216
2	1	0	1	0	1	157.261	0.422784	0.423014	0.259109	8	0.0203014	12	0	6.951	0.000109607
2	1	0	1	0	1	157.611	0.426285	0.426523	0.261912	8	0.0203926	12	0	7.301	0.000111712
2	1	0	1	0	1	157.961	0.429785	0.430032	0.254808	8	0.020483	12	0	7.651	0.000109576
2	1	0	1	0	1	158.311	0.433286	0.433473	0.256583	8	0.0205726	12	0	8.001	0.000111222
2	1	0	1	0	1	158.661	0.436786	0.436996	0.251582	8	0.0206613	12	0	8.3512	0.00010994
2	1	0	1	0	1	159.011	0.440287	0.440516	0.251429	8	0.0207496	12	0	8.7012	0.000110759
2	1	0	1	0	1	159.361	0.443787	0.444084	0.250084	8	0.0208371	12	0	9.0512	0.000111058
2	1	0	1	0	1	159.711	0.447288	0.447577	0.246852	8	0.0209243	12	0	9.4012	0.000110485
2	1	0	1	0	1	159.985	0.449963	0.450191	0.250687	8	0.0209921	12	0	9.6751	0.000112857
2	0	0	1	0	1	160.313	0.446688	0.446921	-0.0485603	8	0.0210132	12	0	0.05	-2.17026e-05
2	0	0	1	0	1	160.663	0.443187	0.443452	-0.149686	8	0.0209753	12	0	0.4	-6.63787e-05
2	0	0	1	0	1	161.013	0.439687	0.439939	-0.176868	8	0.0209172	12	0	0.75	-7.78112e-05
2	0	0	1	0	1	161.363	0.436186	0.436458	-0.196944	8	0.0208515	12	0	1.1	-8.59579e-05
2	0	0	1	0	1	161.713	0.432686	0.432945	-0.200661	8	0.0207819	12	0	1.4502	-8.6875e-05
2	0	0	1	0	1	162.063	0.429185	0.429447	-0.211339	8	0.0207096	12	0	1.8002	-9.07588e-05
2	0	0	1	0	1	162.413	0.425685	0.425937	-0.213999	8	0.0206353	12	0	2.1502	-9.11498e-05
2	0	0	1	0	1	162.763	0.422184	0.422419	-0.220864	8	0.0205591	12	0	2.5002	-9.32973e-05
2	0	0	1	0	1	163.113	0.418684	0.41895	-0.224993	8	0.0204811	12	0	2.8504	-9.42608e-05
2	0	0	1	0	1	163.463	0.415183	0.415403	-0.229366	8	0.0204014	12	0	3.2004	-9.52794e-05
2	0	0	1	0	1	163.813	0.411683	0.411906	-0.235971	8	0.0203201	12	0	3.5504	-9.7198e-05
2	0	0	1	0	1	164.163	0.408182	0.408453	-0.238076	8	0.0202369	12	0	3.9004	-9.72427e-05
2	0	0	1	0	1	164.513	0.404682	0.404845	-0.246647	8	0.0201522	12	0	4.2506	-9.9854e-05
2	0	0	1	0	1	164.863	0.401181	0.401343	-0.246597	8	0.0200657	12	0	4.6006	-9.89701e-05
2	0	0	1	0	1	165.213	0.397681	0.397895	-0.256831	8	0.0199777	12	0	4.9506	-0.000102192
2	0	0	1	0	1	165.563	0.39418	0.394432	-0.256263	8	0.0198879	12	0	5.3006	-0.000101078
2	0	0	1	0	1	165.914	0.39068	0.390906	-0.266347	8	0.0197963	12	0	5.6508	-0.000104117
2	0	0	1	0	1	166.264	0.387179	0.387422	-0.266841	8	0.0197031	12	0	6.0008	-0.00010338
2	0	0	1	0	1	166.614	0.383679	0.383913	-0.275726	8	0.0196079	12	0	6.3508	-0.000105855
2	0	0	1	0	1	166.964	0.380178	0.380432	-0.278768	8	0.0195111	12	0	6.7008	-0.000106052
2	0	0	1	0	1	167.314	0.376678	0.376868	-0.285299	8	0.0194121	12	0	7.051	-0.00010752
2	0	0	1	0	1	167.664	0.373177	0.373424	-0.290717	8	0.0193115	12	0	7.401	-0.000108561
2	0	0	1	0	1	168.014	0.369677	0.369907	-0.294782	8	0.0192087	12	0	7.751	-0.000109042
2	0	0	1	0	1	168.364	0.366176	0.36639	-0.30338	8	0.0191042	12	0	8.101	-0.000111155
2	0	0	1	0	1	168.714	0.362676	0.362884	-0.305123	8	0.0189975	12	0	8.4512	-0.000110724
2	0	0	1	0	1	169.064	0.359175	0.359374	-0.31598	8	0.0188889	12	0	8.8012	-0.000113555
2	0	0	1	0	1	169.414	0.355675	0.355892	-0.316384	8	0.0187782	12	0	9.1512	-0.000112599
2	0	0	1	0	1	169.764	0.352174	0.352396	-0.328177	8	0.0186654	12	0	9.5012	-0.000115648
2	0	0	1	0	0	170.057	0.350774	0.350933	-0.219104	9	0.0185742	12	0	9.794	-7.68908e-05
2	1	0	1	0	0	170.407	0.354275	0.354494	0.0774141	9	0.0185574	12	0	0.1	2.74429e-05
2	1	0	1	0	0	170.757	0.357775	0.357926	0.213873	9	0.0186117	12	0	0.45	7.65508e-05
2	1	0	1	0	0	171.107	0.361276	0.361388	0.266803	9	0.0186973	12	0	0.8	9.64195e-05
2	1	0	1	0	0	171.457	0.364776	0.365044	0.295714	9	0.0187965	12	0	1.1502	0.000107949
2	1	0	1	0	0	171.807	0.368277	0.368537	0.30188	9	0.0189013	12	0	1.5002	0.000111254
2	1	0	1	0	0	172.157	0.371777	0.371949	0.306849	9	0.0190081	12	0	1.8502	0.000114132
2	1	0	1	0	0	172.507	0.375278	0.375375	0.304778	9	0.019115	12	0	2.2002	0.000114406
2	1	0	1	0	0	172.857	0.378778	0.378938	0.302393	9	0.0192216	12	0	2.5504	0.000114588
2	1	0	1	0	0	173.207	0.382279	0.382428	0.30048	9	0.0193269	12	0	2.9004	0.000114912
2	1	0	1	0	0	173.557	0.385779	0.386044	0.294474	9	0.0194313	12	0	3.2504	0.00011368
2	1	0	1	0	0	173.907	0.38928	0.389532	0.294538	9	0.0195342	12	0	3.6004	0.000114732
2	1	0	1	0	0	174.257	0.392779	0.393016	0.286232	9	0.019636	12	0	3.9505	0.000112494
2	1	0	1	0	0	174.607	0.39628	0.396454	0.287415	9	0.0197363	12	0	4.3006	0.000113947
2	1	0	1	0	0	174.957	0.399781	0.400065	0.278482	9	0.0198354	12	0	4.6506	0.000111411
2	1	0	1	0	0	175.307	0.403282	0.403554	0.280241	9	0.0199331	12	0	5.0006	0.000113092
2	1	0	1	0	0	175.658	0.406782	0.406993	0.271567	9	0.0200297	12	0	5.3507	0.000110526
2	1	0	1	0	0	176.008	0.410282	0.410461	0.272954	9	0.0201251	12	0	5.7008	0.000112037
2	1	0	1	0	0	176.358	0.413783	0.413984	0.265676	9	0.0202192	12	0	6.0508	0.000109986
2	1	0	1	0	0	176.708	0.417284	0.417495	0.265555	9	0.0203123	12	0	6.4008	0.000110868
2	1	0	1	0	0	177.058	0.420784	0.421013	0.260506	9	0.0204043	12	0	6.7509	0.000109676
2	1	0	1	0	0	177.408	0.424284	0.424565	0.2585	9	0.0204953	12	0	7.101	0.00010975
2	1	0	1	0	0	177.758	0.427785	0.427948	0.256523	9	0.0205852	12	0	7.451	0.000109779
2	1	0	1	0	0	178.108	0.431285	0.431585	0.252179	9	0.0206744	12	0	7.801	0.000108837
2	1	0	1	0	0	178.458	0.434786	0.435079	0.253501	9	0.0207627	12	0	8.151	0.000110293
2	1	0	1	0	0	178.808	0.438286	0.438569	0.247069	9	0.0208504	12	0	8.5012	0.000108357
2	1	0	1	0	0	179.158	0.441787	0.441999	0.250302	9	0.0209374	12	0	8.8512	0.000110633
2	1	0	1	0	0	179.508	0.445287	0.445569	0.243398	9	0.0210238	12	0	9.2012	0.000108451
2	1	0	1	0	0	179.858	0.448788	0.449092	0.247853	9	0.0211098	12	0	9.5512	0.000111309
2	1	0	1	0	0	180.11	0.448688	0.448889	0.085282	9	0.0211593	12	0	9.8028	3.82821e-05
2	0	0	1	0	0	180.46	0.445187	0.445455	-0.1095	9	0.0211479	12	0	0.2	-4.87773e-05
2	0	0	1	0	0	180.81	0.441687	0.441891	-0.164241	9	0.0210981	12	0	0.55	-7.25764e-05
2	0	0	1	0	0	181.16	0.438186	0.438459	-0.188542	9	0.0210356	12	0	0.9	-8.26678e-05
2	0	0	1	0	0	181.51	0.434686	0.43492	-0.198284	9	0.0209678	12	0	1.2502	-8.6238e-05
2	0	0	1	0	0	181.86	0.431185	0.431443	-0.206081	9	0.0208967	12	0	1.6002	-8.89123e-05
2	0	0	1	0	0	182.21	0.427685	0.427907	-0.21284	9	0.0208236	12	0	1.9502	-9.10757e-05
2	0	0	1	0	0	182.56	0.424184	0.424381	-0.216364	9	0.0207483	12	0	2.3002	-9.18207e-05
2	0	0	1	0	0	182.91	0.420685	0.420888	-0.224034	9	0.0206713	12	0	2.6503	-9.42933e-05
2	0	0	1	0	0	183.26	0.417183	0.417387	-0.225121	9	0.0205926	12	0	3.0004	-9.39625e-05
2	0	0	1	0	0	183.61	0.413683	0.413924	-0.234383	9	0.0205123	12	0	3.3504	-9.70168e-05
2	0	0	1	0	0	183.96	0.410182	0.410401	-0.233935	9	0.0204302	12	0	3.7004	-9.6007e-05
2	0	0	1	0	0	184.31	0.406683	0.406946	-0.244015	9	0.0203465	12	0	4.0505	-9.9301e-05
2	0	0	1	0	0	184.66	0.403182	0.40345	-0.243378	9	0.0202611	12	0	4.4006	-9.81909e-05
2	0	0	1	0	0	185.01	0.399681	0.399916	-0.25323	9	0.0201742	12	0	4.7506	-0.000101271
2	0	0	1	0	0	185.36	0.396181	0.3964	-0.253315	9	0.0200855	12	0	5.1006	-0.000100414
2	0	0	1	0	0	185.71	0.39268	0.392872	-0.262532	9	0.0199951	12	0	5.4507	-0.000103141
2	0	0	1	0	0	186.06	0.38918	0.389342	-0.263948	9	0.019903	12	0	5.8008	-0.000102766
2	0	0	1	0	0	186.41	0.385679	0.385889	-0.272138	9	0.0198091	12	0	6.1508	-0.000105015
2	0	0	1	0	0	186.76	0.382179	0.382438	-0.2755	9	0.0197135	12	0	6.5008	-0.000105362
2	0	0	1	0	0	187.11	0.378678	0.378872	-0.281632	9	0.0196158	12	0	6.8508	-0.000106702
2	0	0	1	0	0	187.461	0.375178	0.375404	-0.287176	9	0.0195165	12	0	7.201	-0.000107807
2	0	0	1	0	0	187.811	0.371677	0.371888	-0.29128	9	0.019415	12	0	7.551	-0.000108324
2	0	0	1	0	0	188.161	0.368177	0.36839	-0.29929	9	0.0193118	12	0	7.901	-0.000110256
2	0	0	1	0	0	188.511	0.364676	0.364863	-0.301839	9	0.0192065	12	0	8.251	-0.00011013
2	0	0	1	0	0	188.861	0.361176	0.361378	-0.311589	9	0.0190992	12	0	8.6012	-0.000112601
2	0	0	1	0	0	189.211	0.357675	0.357892	-0.313144	9	0.0189897	12	0	8.9512	-0.000112072
2	0	0	1	0	0	189.561	0.354175	0.354403	-0.324038	9	0.0188783	12	0	9.3012	-0.00011484
2	0	0	1	0	0	189.911	0.350674	0.350888	-0.325069	9	0.0187646	12	0	9.6512	-0.000114063
2	0	0	1	0	1	190.204	0.352274	0.352478	-0.0630838	10	0.0187024	12	0	9.944	-2.22356e-05
2	1	0	1	0	1	190.554	0.355775	0.356013	0.1517	10	0.0187233	12	0	0.25	5.40073e-05
2	1	0	1	0	1	190.904	0.359275	0.359499	0.238111	10	0.0187939	12	0	0.6	8.56006e-05
2	1	0	1	0	1	191.254	0.362776	0.362954	0.283657	10	0.0188862	12	0	0.95	0.000102954
2	1	0	1	0	1	191.604	0.366276	0.366484	0.294781	10	0.018988	12	0	1.3002	0.000108033
2	1	0	1	0	1	191.954	0.369777	0.369972	0.305962	10	0.0190934	12	0	1.6502	0.000113197
2	1	0	1	0	1	192.304	0.373277	0.373456	0.302064	10	0.0191998	12	0	2.0002	0.000112808
2	1	0	1	0	1	192.654	0.376778	0.377019	0.304684	10	0.0193061	12	0	2.3502	0.000114872
2	1	0	1	0	1	193.004	0.380278	0.380516	0.29795	10	0.0194115	12	0	2.7004	0.000113375
2	1	0	1	0	1	193.354	0.383779	0.384017	0.29775	10	0.0195159	12	0	3.0504	0.000114341
2	1	0	1	0	1	193.704	0.387279	0.387577	0.291827	10	0.019619	12	0	3.4004	0.000113105
2	1	0	1	0	1	194.054	0.39078	0.39099	0.289505	10	0.0197209	12	0	3.7504	0.000113193
2	1	0	1	0	1	194.404	0.39428	0.394486	0.2833	10	0.0198213	12	0	4.1006	0.000111758
2	1	0	1	0	1	194.754	0.397781	0.39796	0.278794	10	0.0199196	12	0	4.4506	0.000110949
2	1	0	1	0	1	195.104	0.401281	0.401503	0.27472	10	0.0200161	12	0	4.8006	0.000110301
2	1	0	1	0	1	195.454	0.404782	0.405018	0.256128	10	0.0201107	12	0	5.1506	0.000103736
2	1	0	1	0	1	195.804	0.408282	0.408509	0.266747	10	0.0202029	12	0	5.5008	0.000108969
2	1	0	1	0	1	196.154	0.411783	0.411994	0.271041	10	0.0202981	12	0	5.8508	0.000111667
2	1	0	1	0	1	196.504	0.415283	0.415541	0.272214	10	0.0203925	12	0	6.2008	0.000113116
2	1	0	1	0	1	196.854	0.418784	0.419005	0.255058	10	0.0204839	12	0	6.5508	0.000106871
2	1	0	1	0	1	197.205	0.422284	0.422542	0.263553	10	0.0205749	12	0	6.901	0.000111362
2	1	0	1	0	1	197.555	0.425785	0.426002	0.254414	10	0.0206655	12	0	7.251	0.000108381
2	1	0	1	0	1	197.905	0.429285	0.429541	0.256653	10	0.020755	12	0	7.601	0.000110243
2	1	0	1	0	1	198.255	0.432786	0.433014	0.249135	10	0.0208434	12	0	7.951	0.000107879
2	1	0	1	0	1	198.605	0.436286	0.436512	0.250595	10	0.020931	12	0	8.3012	0.000109388
2	1	0	1	0	1	198.955	0.439787	0.439955	0.245512	10	0.0210177	12	0	8.6512	0.000108014
2	1	0	1	0	1	199.305	0.443287	0.443569	0.245917	10	0.0211038	12	0	9.0012	0.000109081
2	1	0	1	0	1	199.655	0.446788	0.446978	0.24336	10	0.0211893	12	0	9.3512	0.000108776
2	1	0	0	0	1	199.974	0.450013	0.450191	0.245144	10	0.0212669	12	0	9.6701	0.000110362
2	0	0	1	0	1	200.256	0.447188	0.447401	-0.0227146	10	0.0212915	12	0	0.000000000000000E+000	-1.01625e-05
2	0	0	1	0	1	200.666	0.443087	0.443318	-0.143143	10	0.0212526	12	0	0.41	-6.34578e-05
2	0	0	1	0	1	201.016	0.439587	0.439762	-0.18047	10	0.0211949	12	0	0.76	-7.93639e-05
2	0	0	1	0	1	201.366	0.436086	0.436324	-0.190889	10	0.021129	12	0	1.11	-8.32894e-05
2	0	0	1	0	1	201.717	0.432586	0.432788	-0.199215	10	0.021061	12	0	1.4602	-8.62178e-05
2	0	0	1	0	1	202.067	0.429085	0.429281	-0.209908	10	0.0209872	12	0	1.8102	-9.01095e-05
2	0	0	1	0	1	202.417	0.425585	0.425785	-0.218663	10	0.0209124	12	0	2.1602	-9.31035e-05
2	0	0	1	0	1	202.767	0.422084	0.422276	-0.213644	10	0.0208361	12	0	2.5102	-9.02168e-05
2	0	0	1	0	1	203.117	0.418584	0.418801	-0.226398	10	0.0207586	12	0	2.8604	-9.48158e-05
2	0	0	1	0	1	203.467	0.415083	0.415269	-0.228562	10	0.0206789	12	0	3.2104	-9.49146e-05
2	0	0	1	0	1	203.817	0.411583	0.411786	-0.23428	10	0.0205979	12	0	3.5604	-9.64732e-05
2	0	0	1	0	1	204.167	0.408082	0.408294	-0.232784	10	0.0205162	12	0	3.9104	-9.50445e-05
2	0	0	1	0	1	204.517	0.404582	0.404818	-0.232951	10	0.0204333	12	0	4.2606	-9.43029e-05
2	0	0	1	0	1	204.867	0.401081	0.401265	-0.240933	10	0.0203484	12	0	4.6106	-9.66781e-05
2	0	0	1	0	1	205.217	0.397581	0.397743	-0.252222	10	0.0202605	12	0	4.9606	-0.000100319
2	0	0	1	0	1	205.567	0.39408	0.394258	-0.262447	10	0.0201713	12	0	5.3106	-0.000103472
2	0	0	1	0	1	205.917	0.39058	0.39076	-0.263557	10	0.0200795	12	0	5.6608	-0.000102988
2	0	0	1	0	1	206.267	0.387079	0.387294	-0.271755	10	0.0199873	12	0	6.0108	-0.000105249
2	0	0	1	0	1	206.617	0.383579	0.383791	-0.273735	10	0.0198907	12	0	6.3608	-0.000105057
2	0	0	1	0	1	206.967	0.380078	0.38036	-0.285289	10	0.019793	12	0	6.7108	-0.000108512
2	0	0	1	0	1	207.317	0.376578	0.376776	-0.283202	10	0.0196941	12	0	7.061	-0.000106704
2	0	0	1	0	1	207.667	0.373077	0.373334	-0.289443	10	0.0195942	12	0	7.411	-0.000108059
2	0	0	1	0	1	208.017	0.369577	0.369769	-0.288873	10	0.0194936	12	0	7.761	-0.000106816
2	0	0	1	0	1	208.367	0.366076	0.366258	-0.301934	10	0.0193904	12	0	8.111	-0.000110586
2	0	0	1	0	1	208.718	0.362576	0.362775	-0.302997	10	0.0192844	12	0	8.4612	-0.00010992
2	0	0	1	0	1	209.068	0.359075	0.359279	-0.311864	10	0.0191768	12	0	8.8112	-0.000112046
2	0	0	1	0	1	209.418	0.355575	0.355763	-0.315373	10	0.0190672	12	0	9.1612	-0.000112198
2	0	0	1	0	1	209.768	0.352074	0.352286	-0.327845	10	0.0189544	12	0	9.5112	-0.000115495
2	0	0	1	0	1	209.973	0.349999	0.35025	-0.336067	10	0.018887	12	0	9.7163	-0.000117707