File: ACS_Catal_2026/Figures_Na_K/main_figures/data/EC/20240126_2-102_Add_Na/20240125_2-102_012_add_K_5mL_elctrode4_C02.mpt
EC-Lab ASCII FILE
Nb header lines : 66

Cyclic Voltammetry Advanced

Run on channel : 2 (SN 66414)
User :
CE vs. WE compliance from -10 V to 10 V
Electrode connection : standard
Potential control : Ewe
Ewe ctrl range : min = -1.00 V, max = 1.00 V
Safety Limits :
	Do not start on E overload
Acquisition started on : 01/26/2024 17:47:59.434
Loaded Setting File :  C:\Users\NakamuraT\Documents\EC-Lab\Data\Yatsuzuka\20240126_2-102_Add_Na\20240125_2-102_003_K_elctrode1.mps
Saved on :
	File : 20240125_2-102_012_add_K_5mL_elctrode4_C02.mpr
	Directory : C:\Users\NakamuraT\Documents\EC-Lab\Data\Yatsuzuka\20240126_2-102_Add_Na\
	Host : 192.109.209.100
Device : SP-150e (SN .003411)
Address : 192.109.209.236
EC-Lab for windows v11.50 (software)
Internet server v11.50 (firmware)
Command interpretor v11.50 (firmware)
Electrode material :
Initial state :
Electrolyte :
Comments :
Electrode surface area : 0.001 cm2
Characteristic mass : 0.001 g
Equivalent Weight : 0.000 g/eq.
Density : 0.000 g/cm3
Volume (V) : 0.001 cm3
Cycle Definition : Charge/Discharge alternance
Ei (V)              0.450
vs.                 Ref
ti (h:m:s)          0:00:10.0000
dti (s)             0.0000
dE/dt               5.000
dE/dt unit          mV/s
E1 (V)              0.700
vs.                 Ref
t1 (h:m:s)          0:00:0.0000
dt1 (s)             0.1000
Step percent        50
N                   10
E range min (V)     -1.000
E range max (V)     1.000
I Range             10 mA
I Range min         Unset
I Range max         Unset
I Range init        Unset
Bandwidth           5
E2 (V)              0.450
vs.                 Ref
t2 (h:m:s)          0:00:0.0000
dt2 (s)             0.1000
nc cycles           14
nr                  1
Reverse Scan        0
Ef (V)              0.000
vs.                 Eoc
tf (h:m:s)          0:00:0.0000
dtf (s)             0.1000

mode	ox/red	error	control changes	Ns changes	counter inc.	time/s	control/V	Ewe/V	<I>/mA	cycle number	(Q-Qo)/C	I Range	Ns	step time/s	P/W
2	0	0	0	0	0	0.000000000000000E+000	0.449961	0.450293	-0.0114913	1	0.0000000E+000	11	0	0.000000000000000E+000	-5.17444e-06
2	1	0	1	0	0	2.4552	0.462238	0.462532	0.100487	1	0.000218796	11	0	2.4002	4.64784e-05
2	1	0	1	0	0	4.9556	0.474739	0.475012	0.103654	1	0.000468783	11	0	4.9006	4.92371e-05
2	1	0	0	0	0	7.4558	0.487241	0.487549	0.109119	1	0.000728965	11	0	7.4008	5.32007e-05
2	1	0	0	0	0	9.9562	0.499743	0.500024	0.121058	1	0.00101032	11	0	9.9012	6.0532e-05
2	1	0	0	0	0	12.4566	0.512244	0.512537	0.144042	1	0.0013339	11	0	12.4016	7.38267e-05
2	1	0	1	0	0	14.9568	0.524746	0.525072	0.187106	1	0.00173761	11	0	14.9018	9.82443e-05
2	1	0	1	0	0	17.4572	0.537247	0.537509	0.264036	1	0.00228776	11	0	17.4022	0.000141922
2	1	0	1	0	0	19.9575	0.549749	0.550137	0.393545	1	0.00309206	11	0	19.9025	0.000216504
2	1	0	0	0	0	22.4578	0.562251	0.562589	0.597996	1	0.00431009	11	0	22.4028	0.000336426
2	1	0	0	0	0	24.9582	0.574752	0.575072	0.89627	1	0.00615364	11	0	24.9032	0.00051542
2	1	0	1	0	0	27.4584	0.587254	0.587585	1.29487	1	0.00886843	11	0	27.4034	0.000760844
2	1	0	1	0	0	29.9588	0.599755	0.600075	1.79123	1	0.0127037	11	0	29.9038	0.00107487
2	1	0	1	0	0	32.4592	0.612257	0.612599	2.37471	1	0.0178941	11	0	32.4042	0.00145474
2	1	0	0	0	0	34.9594	0.624759	0.625039	3.02932	1	0.0246332	11	0	34.9044	0.00189344
2	1	0	0	0	0	37.4598	0.63726	0.637587	3.74565	1	0.0330907	11	0	37.4048	0.00238818
2	1	0	1	0	0	39.96	0.649762	0.650034	4.50765	1	0.0434034	11	0	39.905	0.00293013
2	1	0	1	0	0	42.4604	0.662264	0.662585	5.31452	1	0.0556773	11	0	42.4054	0.00352132
2	1	0	1	0	0	44.9608	0.674765	0.675118	6.13964	1	0.07	11	0	44.9058	0.00414498
2	1	0	0	0	0	47.461	0.687267	0.687551	6.96604	1	0.0863799	11	0	47.406	0.00478951
2	1	0	0	0	0	49.9564	0.699743	0.700068	7.8333	1	0.104839	11	0	49.9014	0.00548384
2	1	0	1	0	0	52.268	0.688667	0.688963	7.012	1	0.121999	11	0	52.213	0.00483101
2	1	0	0	0	0	54.7682	0.676165	0.676515	6.13612	1	0.13845	11	0	54.7132	0.00415118
2	1	0	0	0	0	57.2686	0.663664	0.663948	5.29682	1	0.15274	11	0	57.2136	0.00351682
2	1	0	1	0	0	59.7688	0.651162	0.651529	4.48706	1	0.164956	11	0	59.7138	0.00292345
2	1	0	1	0	0	62.2692	0.63866	0.638935	3.69359	1	0.175172	11	0	62.2142	0.00235997
2	1	0	1	0	0	64.7696	0.626159	0.626455	2.96449	1	0.183477	11	0	64.7146	0.00185712
2	1	0	0	0	0	67.2698	0.613657	0.613954	2.30421	1	0.190053	11	0	67.2148	0.00141468
2	1	0	0	0	0	69.7702	0.601156	0.601434	1.72273	1	0.195069	11	0	69.7152	0.00103611
2	1	0	1	0	0	72.2705	0.588654	0.589006	1.21686	1	0.198724	11	0	72.2155	0.000716737
2	1	0	1	0	0	74.7708	0.576152	0.57648	0.806003	1	0.201233	11	0	74.7158	0.000464644
2	1	0	1	0	0	77.2712	0.563651	0.563962	0.489709	1	0.202837	11	0	77.2162	0.000276177
2	1	0	0	0	0	79.7714	0.551149	0.551502	0.265471	1	0.203767	11	0	79.7164	0.000146408
2	1	0	0	0	0	82.2718	0.538647	0.539001	0.119029	1	0.20424	11	0	82.2168	6.41569e-05
2	1	0	0	0	0	84.7722	0.526146	0.526407	0.028113	1	0.204419	11	0	84.7172	1.47989e-05
2	0	0	1	0	0	87.2724	0.513644	0.514002	-0.0261145	1	0.204421	11	0	1.2002	-1.34229e-05
2	0	0	1	0	0	89.7728	0.501143	0.501466	-0.056995	1	0.204319	11	0	3.7006	-2.8581e-05
2	0	0	0	0	0	92.273	0.488641	0.488934	-0.0746947	1	0.204156	11	0	6.2008	-3.65208e-05
2	0	0	0	0	0	94.7734	0.476139	0.476474	-0.0852154	1	0.203958	11	0	8.7012	-4.06029e-05
2	0	0	0	0	0	97.2738	0.463638	0.463874	-0.0921557	1	0.203737	11	0	11.2016	-4.27486e-05
2	0	0	1	0	0	99.774	0.451136	0.451447	-0.0973505	1	0.203501	11	0	13.7018	-4.39486e-05
2	1	0	1	0	1	102.152	0.460787	0.461111	0.0928412	2	0.203634	11	0	1.9002	4.28101e-05
2	1	0	1	0	1	104.652	0.473289	0.473561	0.0974143	2	0.203871	11	0	4.4006	4.61316e-05
2	1	0	0	0	1	107.152	0.485791	0.486147	0.102962	2	0.20412	11	0	6.9008	5.00546e-05
2	1	0	0	0	1	109.653	0.498292	0.49861	0.113489	2	0.204388	11	0	9.4012	5.65868e-05
2	1	0	1	0	1	112.153	0.510794	0.511103	0.134405	2	0.204695	11	0	11.9014	6.86948e-05
2	1	0	1	0	1	114.653	0.523296	0.523632	0.173552	2	0.205074	11	0	14.4018	9.08775e-05
2	1	0	1	0	1	117.154	0.535797	0.536066	0.244396	2	0.205587	11	0	16.9022	0.000131012
2	1	0	0	0	1	119.654	0.548299	0.548632	0.364823	2	0.206332	11	0	19.4024	0.000200154
2	1	0	0	0	1	122.154	0.5608	0.561108	0.556633	2	0.207464	11	0	21.9028	0.000312332
2	1	0	0	0	1	124.655	0.573302	0.573601	0.840061	2	0.209185	11	0	24.4032	0.00048186
2	1	0	1	0	1	127.155	0.585804	0.586101	1.2231	2	0.21174	11	0	26.9034	0.000716862
2	1	0	1	0	1	129.655	0.598305	0.598699	1.70528	2	0.215378	11	0	29.4038	0.00102095
2	1	0	0	0	1	132.156	0.610807	0.611167	2.27503	2	0.220335	11	0	31.904	0.00139043
2	1	0	0	0	1	134.656	0.623308	0.623587	2.92212	2	0.226813	11	0	34.4044	0.0018222
2	1	0	0	0	1	137.156	0.63581	0.636174	3.6271	2	0.234987	11	0	36.9048	0.00230747
2	1	0	1	0	1	139.657	0.648312	0.648554	4.38361	2	0.244988	11	0	39.405	0.00284301
2	1	0	1	0	1	142.157	0.660813	0.661134	5.19158	2	0.256967	11	0	41.9054	0.00343233
2	1	0	0	0	1	144.657	0.673315	0.673598	6.00227	2	0.270951	11	0	44.4056	0.00404312
2	1	0	0	0	1	147.158	0.685817	0.686094	6.87167	2	0.287029	11	0	46.906	0.00471461
2	1	0	0	0	1	149.658	0.698318	0.698559	7.73412	2	0.305277	11	0	49.4064	0.00540274
2	1	0	0	0	1	151.954	0.690167	0.690419	7.10583	2	0.322531	11	0	51.7028	0.004906
2	1	0	0	0	1	154.455	0.677665	0.677978	6.17569	2	0.339127	11	0	54.2032	0.00418698
2	1	0	0	0	1	156.955	0.665164	0.665466	5.34901	2	0.353498	11	0	56.7036	0.00355958
2	1	0	1	0	1	159.455	0.652662	0.652969	4.52597	2	0.365841	11	0	59.2038	0.00295532
2	1	0	1	0	1	161.956	0.640161	0.640481	3.74313	2	0.376176	11	0	61.7042	0.0023974
2	1	0	0	0	1	164.456	0.627659	0.627966	3.02683	2	0.384634	11	0	64.2044	0.00190075
2	1	0	0	0	1	166.956	0.615157	0.615459	2.36259	2	0.391351	11	0	66.7048	0.00145408
2	1	0	0	0	1	169.457	0.602656	0.602936	1.76529	2	0.396494	11	0	69.2052	0.00106436
2	1	0	1	0	1	171.957	0.590154	0.590471	1.24675	2	0.400239	11	0	71.7054	0.000736169
2	1	0	1	0	1	174.457	0.577653	0.577931	0.831884	2	0.402816	11	0	74.2058	0.000480771
2	1	0	1	0	1	176.958	0.565151	0.565453	0.512676	2	0.404477	11	0	76.7062	0.000289894
2	1	0	0	0	1	179.458	0.552649	0.552931	0.285237	2	0.405458	11	0	79.2064	0.000157716
2	1	0	0	0	1	181.958	0.540148	0.540402	0.132366	2	0.405965	11	0	81.7068	7.1531e-05
2	1	0	1	0	1	184.459	0.527646	0.527935	0.0379401	2	0.406166	11	0	84.207	2.00299e-05
2	1	0	1	0	1	186.959	0.515144	0.515494	-0.0182747	2	0.406182	11	0	0.9002	-9.42048e-06
2	0	0	1	0	1	189.459	0.502643	0.503006	-0.0510056	2	0.406087	11	0	3.4006	-2.56561e-05
2	0	0	0	0	1	191.96	0.490141	0.490474	-0.0702695	2	0.405929	11	0	5.9008	-3.44653e-05
2	0	0	0	0	1	194.46	0.47764	0.477975	-0.0826296	2	0.405733	11	0	8.4012	-3.94948e-05
2	0	0	1	0	1	196.96	0.465138	0.46543	-0.0904001	2	0.405514	11	0	10.9015	-4.20749e-05
2	0	0	1	0	1	199.461	0.452636	0.452886	-0.0966772	2	0.405278	11	0	13.4018	-4.37837e-05
2	1	0	1	0	0	201.838	0.459287	0.459677	0.0921352	3	0.405352	11	0	1.6002	4.23524e-05
2	1	0	0	0	0	204.339	0.471789	0.472045	0.0972409	3	0.405586	11	0	4.1004	4.59021e-05
2	1	0	0	0	0	206.839	0.48429	0.484582	0.103031	3	0.405831	11	0	6.6008	4.9927e-05
2	1	0	0	0	0	209.339	0.496792	0.497129	0.112902	3	0.406095	11	0	9.1012	5.61268e-05
2	1	0	1	0	0	211.84	0.509294	0.509601	0.131975	3	0.406394	11	0	11.6014	6.72544e-05
2	1	0	1	0	0	214.34	0.521795	0.522116	0.167836	3	0.406759	11	0	14.1018	8.76299e-05
2	1	0	0	0	0	216.84	0.534297	0.534675	0.232137	3	0.407245	11	0	16.602	0.000124118
2	1	0	0	0	0	219.341	0.546799	0.547131	0.343942	3	0.407948	11	0	19.1024	0.000188181
2	1	0	0	0	0	221.841	0.5593	0.55968	0.523461	3	0.409012	11	0	21.6028	0.000292971
2	1	0	1	0	0	224.341	0.571802	0.572114	0.791976	3	0.410632	11	0	24.103	0.000453101
2	1	0	1	0	0	226.842	0.584303	0.584604	1.1609	3	0.413048	11	0	26.6034	0.000678665
2	1	0	1	0	0	229.342	0.596805	0.597038	1.62886	3	0.416512	11	0	29.1038	0.000972492
2	1	0	0	0	0	231.842	0.609307	0.60956	2.18675	3	0.421264	11	0	31.604	0.00133296
2	1	0	0	0	0	234.343	0.621808	0.622082	2.82268	3	0.42751	11	0	34.1044	0.00175594
2	1	0	1	0	0	236.843	0.63431	0.634613	3.53865	3	0.435441	11	0	36.6046	0.00224567
2	1	0	1	0	0	239.343	0.646811	0.647064	4.28786	3	0.445214	11	0	39.105	0.00277452
2	1	0	1	0	0	241.844	0.659313	0.659676	5.06768	3	0.456905	11	0	41.6054	0.00334303
2	1	0	0	0	0	244.344	0.671815	0.672141	5.88183	3	0.470583	11	0	44.1056	0.00395342
2	1	0	0	0	0	246.844	0.684316	0.684684	6.71002	3	0.486324	11	0	46.606	0.00459425
2	1	0	1	0	0	249.344	0.696818	0.697162	7.59388	3	0.504195	11	0	49.1063	0.00529416
2	1	0	0	0	0	251.641	0.691667	0.692018	7.159	3	0.521512	11	0	51.4028	0.00495416
2	1	0	0	0	0	254.141	0.679166	0.679462	6.2558	3	0.538278	11	0	53.9032	0.00425058
2	1	0	1	0	0	256.642	0.666664	0.666984	5.38576	3	0.552817	11	0	56.4034	0.00359221
2	1	0	1	0	0	259.142	0.654162	0.654424	4.56458	3	0.565249	11	0	58.9038	0.00298717
2	1	0	1	0	0	261.642	0.641661	0.641967	3.79146	3	0.575687	11	0	61.4042	0.00243399
2	1	0	0	0	0	264.143	0.629159	0.629484	3.07453	3	0.58425	11	0	63.9044	0.00193537
2	1	0	0	0	0	266.643	0.616658	0.616999	2.40558	3	0.591085	11	0	66.4048	0.00148424
2	1	0	1	0	0	269.143	0.604156	0.604514	1.80789	3	0.59634	11	0	68.9051	0.00109289
2	1	0	1	0	0	271.644	0.591654	0.591921	1.28866	3	0.60019	11	0	71.4054	0.000762786
2	1	0	1	0	0	274.144	0.579153	0.579462	0.864735	3	0.602862	11	0	73.9058	0.000501081
2	1	0	0	0	0	276.644	0.566651	0.566986	0.534818	3	0.604595	11	0	76.406	0.000303234
2	1	0	0	0	0	279.145	0.55415	0.554476	0.298232	3	0.605622	11	0	78.9064	0.000165362
2	1	0	0	0	0	281.645	0.541648	0.541865	0.140287	3	0.60616	11	0	81.4068	7.60167e-05
2	1	0	1	0	0	284.145	0.529146	0.529423	0.0417143	3	0.606383	11	0	83.907	2.20845e-05
2	0	0	1	0	0	286.646	0.516645	0.516973	-0.017744	3	0.606411	11	0	0.7002	-9.17317e-06
2	0	0	0	0	0	289.146	0.504143	0.504361	-0.0523104	3	0.606325	11	0	3.2004	-2.63834e-05
2	0	0	0	0	0	291.646	0.491641	0.491892	-0.072606	3	0.606172	11	0	5.7008	-3.57143e-05
2	0	0	0	0	0	294.147	0.47914	0.479478	-0.0847721	3	0.60598	11	0	8.2012	-4.06464e-05
2	0	0	1	0	0	296.647	0.466638	0.466892	-0.0926063	3	0.605763	11	0	10.7014	-4.32372e-05
2	0	0	1	0	0	299.147	0.454137	0.454417	-0.0986252	3	0.605529	11	0	13.2018	-4.4817e-05
2	1	0	1	0	1	301.525	0.457787	0.458197	0.0870988	4	0.605547	11	0	1.3002	3.99084e-05
2	1	0	0	0	1	304.025	0.470289	0.470651	0.0926687	4	0.605779	11	0	3.8004	4.36147e-05
2	1	0	0	0	1	306.526	0.48279	0.483147	0.0984973	4	0.606022	11	0	6.3008	4.75887e-05
2	1	0	1	0	1	309.026	0.495292	0.495636	0.108208	4	0.606282	11	0	8.801	5.36318e-05
2	1	0	1	0	1	311.526	0.507794	0.508091	0.12612	4	0.606573	11	0	11.3014	6.40804e-05
2	1	0	1	0	1	314.027	0.520295	0.520624	0.159661	4	0.606924	11	0	13.8018	8.31236e-05
2	1	0	0	0	1	316.527	0.532797	0.53304	0.219151	4	0.607388	11	0	16.302	0.000116816
2	1	0	0	0	1	319.027	0.545298	0.54556	0.323333	4	0.608052	11	0	18.8024	0.000176398
2	1	0	1	0	1	321.527	0.5578	0.558088	0.492076	4	0.609052	11	0	21.3027	0.000274621
2	1	0	1	0	1	324.028	0.570302	0.570641	0.747156	4	0.610578	11	0	23.803	0.000426358
2	1	0	1	0	1	326.528	0.582803	0.58301	1.10108	4	0.612864	11	0	26.3034	0.000641942
2	1	0	0	0	1	329.028	0.595305	0.595645	1.5576	4	0.616163	11	0	28.8036	0.000927777
2	1	0	0	0	1	331.529	0.607807	0.608067	2.10633	4	0.620722	11	0	31.304	0.00128079
2	1	0	0	0	1	334.029	0.620308	0.620685	2.7331	4	0.626757	11	0	33.8044	0.00169639
2	1	0	1	0	1	336.529	0.63281	0.633098	3.42532	4	0.634439	11	0	36.3046	0.00216856
2	1	0	1	0	1	339.03	0.645311	0.645496	4.17315	4	0.643921	11	0	38.805	0.00269375
2	1	0	1	0	1	341.53	0.657813	0.658172	4.94835	4	0.655315	11	0	41.3053	0.00325687
2	1	0	0	0	1	344.03	0.670314	0.670621	5.76955	4	0.668717	11	0	43.8056	0.00386918
2	1	0	0	0	1	346.531	0.682816	0.683084	6.61168	4	0.684188	11	0	46.306	0.00451633
2	1	0	1	0	1	349.031	0.695318	0.695679	7.49463	4	0.701825	11	0	48.8062	0.00521385
2	1	0	0	0	1	351.328	0.693167	0.693493	7.30948	4	0.719266	11	0	51.1028	0.00506907
2	1	0	0	0	1	353.828	0.680666	0.680941	6.4073	4	0.736397	11	0	53.6032	0.004363
2	1	0	1	0	1	356.328	0.668164	0.668398	5.50752	4	0.751277	11	0	56.1034	0.00368122
2	1	0	1	0	1	358.829	0.655663	0.655959	4.70524	4	0.764024	11	0	58.6038	0.00308644
2	1	0	0	0	1	361.329	0.643161	0.643513	3.9015	4	0.774782	11	0	61.104	0.00251067
2	1	0	0	0	1	363.829	0.630659	0.630907	3.14702	4	0.783577	11	0	63.6044	0.00198548
2	1	0	0	0	1	366.33	0.618158	0.618346	2.4755	4	0.790589	11	0	66.1048	0.00153072
2	1	0	1	0	1	368.83	0.605656	0.605886	1.86652	4	0.795996	11	0	68.605	0.0011309
2	1	0	1	0	1	371.33	0.593154	0.593481	1.3529	4	0.8	11	0	71.1054	0.000802922
2	1	0	1	0	1	373.83	0.580653	0.580924	0.919951	4	0.802822	11	0	73.6057	0.000534422
2	1	0	0	0	1	376.331	0.568151	0.56846	0.57564	4	0.804664	11	0	76.106	0.000327229
2	1	0	0	0	1	378.831	0.55565	0.555854	0.325311	4	0.805767	11	0	78.6064	0.000180825
2	1	0	1	0	1	381.331	0.543148	0.543394	0.156247	4	0.806353	11	0	81.1066	8.49039e-05
2	1	0	1	0	1	383.832	0.530646	0.530867	0.050436	4	0.806604	11	0	83.607	2.67748e-05
2	0	0	1	0	1	386.332	0.518145	0.518427	-0.0124268	4	0.806649	11	0	0.4002	-6.44237e-06
2	0	0	0	0	1	388.832	0.505643	0.506075	-0.0488324	4	0.806573	11	0	2.9004	-2.47129e-05
2	0	0	0	0	1	391.333	0.493142	0.493418	-0.0696979	4	0.806426	11	0	5.4008	-3.43902e-05
2	0	0	1	0	1	393.833	0.48064	0.480908	-0.0808846	4	0.806237	11	0	7.9011	-3.8898e-05
2	0	0	1	0	1	396.333	0.468138	0.468321	-0.0879721	4	0.806023	11	0	10.4014	-4.11992e-05
2	0	0	1	0	1	398.834	0.455637	0.455948	-0.0933814	4	0.805791	11	0	12.9018	-4.2577e-05
2	1	0	0	0	0	401.211	0.456287	0.456512	0.0901796	5	0.805754	11	0	1	4.11681e-05
2	1	0	0	0	0	403.712	0.468788	0.46911	0.0961556	5	0.805984	11	0	3.5004	4.51076e-05
2	1	0	0	0	0	406.212	0.48129	0.4816	0.100072	5	0.806226	11	0	6.0008	4.81945e-05
2	1	0	1	0	0	408.712	0.493792	0.494114	0.106896	5	0.806483	11	0	8.501	5.28188e-05
2	1	0	1	0	0	411.213	0.506293	0.506592	0.12138	5	0.806768	11	0	11.0014	6.14903e-05
2	1	0	1	0	0	413.713	0.518795	0.519099	0.150607	5	0.807109	11	0	13.5017	7.81799e-05
2	1	0	0	0	0	416.213	0.531297	0.53155	0.204798	5	0.807553	11	0	16.002	0.00010886
2	1	0	0	0	0	418.714	0.543798	0.544199	0.301271	5	0.808182	11	0	18.5024	0.000163951
2	1	0	1	0	0	421.214	0.5563	0.556574	0.459773	5	0.809124	11	0	21.0026	0.000255897
2	1	0	1	0	0	423.714	0.568801	0.569132	0.702632	5	0.810561	11	0	23.503	0.000399891
2	1	0	1	0	0	426.215	0.581303	0.581557	1.04382	5	0.812724	11	0	26.0034	0.000607043
2	1	0	0	0	0	428.715	0.593805	0.594135	1.48654	5	0.815866	11	0	28.5036	0.000883204
2	1	0	0	0	0	431.215	0.606306	0.606574	2.02114	5	0.820232	11	0	31.004	0.00122597
2	1	0	1	0	0	433.716	0.618808	0.619051	2.63357	5	0.826034	11	0	33.5042	0.00163032
2	1	0	1	0	0	436.216	0.63131	0.631568	3.30852	5	0.833448	11	0	36.0046	0.00208955
2	1	0	1	0	0	438.716	0.643811	0.644222	4.04559	5	0.842629	11	0	38.505	0.00260626
2	1	0	0	0	0	441.217	0.656313	0.656658	4.8128	5	0.853697	11	0	41.0052	0.00316036
2	1	0	0	0	0	443.717	0.668814	0.66912	5.61608	5	0.866734	11	0	43.5056	0.00375783
2	1	0	0	0	0	446.217	0.681316	0.681687	6.46685	5	0.881853	11	0	46.006	0.00440837
2	1	0	1	0	0	448.718	0.693818	0.694179	7.31541	5	0.899098	11	0	48.5062	0.00507821
2	1	0	0	0	0	451.014	0.694668	0.69487	7.31711	5	0.916378	11	0	50.8028	0.00508444
2	1	0	1	0	0	453.514	0.682166	0.682426	6.37741	5	0.933474	11	0	53.303	0.00435211
2	1	0	1	0	0	456.015	0.669664	0.669912	5.51957	5	0.948318	11	0	55.8034	0.00369762
2	1	0	1	0	0	458.515	0.657163	0.657471	4.70855	5	0.961095	11	0	58.3038	0.00309573
2	1	0	0	0	0	461.015	0.644661	0.645021	3.91903	5	0.971874	11	0	60.804	0.00252786
2	1	0	0	0	0	463.516	0.63216	0.632484	3.21618	5	0.980759	11	0	63.3044	0.00203419
2	1	0	1	0	0	466.016	0.619658	0.619982	2.5379	5	0.987945	11	0	65.8047	0.00157345
2	1	0	1	0	0	468.516	0.607156	0.607539	1.92152	5	0.993508	11	0	68.305	0.0011674
2	1	0	1	0	0	471.017	0.594655	0.595063	1.38509	5	0.997626	11	0	70.8054	0.000824214
2	1	0	0	0	0	473.517	0.582153	0.582486	0.941213	5	1.00052	11	0	73.3056	0.000548243
2	1	0	0	0	0	476.017	0.569652	0.570014	0.594757	5	1.00242	11	0	75.806	0.00033902
2	1	0	0	0	0	478.518	0.55715	0.557408	0.341377	5	1.00358	11	0	78.3064	0.000190286
2	1	0	1	0	0	481.018	0.544648	0.544978	0.168727	5	1.0042	11	0	80.8066	9.19527e-05
2	1	0	1	0	0	483.518	0.532147	0.532429	0.0605756	5	1.00447	11	0	83.307	3.22522e-05
2	1	0	0	0	0	486.019	0.519645	0.520006	-0.00419416	5	1.00454	11	0	0.1	-2.18099e-06
2	0	0	0	0	0	488.519	0.507143	0.507438	-0.0421048	5	1.00447	11	0	2.6004	-2.13656e-05
2	0	0	0	0	0	491.019	0.494642	0.49502	-0.0638965	5	1.00433	11	0	5.1008	-3.163e-05
2	0	0	1	0	0	493.52	0.48214	0.482454	-0.0775375	5	1.00415	11	0	7.601	-3.74083e-05
2	0	0	1	0	0	496.02	0.469639	0.469946	-0.0871231	5	1.00394	11	0	10.1014	-4.09432e-05
2	0	0	1	0	0	498.52	0.457137	0.457479	-0.0948001	5	1.00371	11	0	12.6018	-4.33691e-05
2	1	0	0	0	1	500.898	0.454787	0.455096	0.0822356	6	1.00361	11	0	0.7	3.74251e-05
2	1	0	0	0	1	503.398	0.467288	0.467603	0.0905288	6	1.00384	11	0	3.2004	4.23316e-05
2	1	0	1	0	1	505.899	0.47979	0.48013	0.0953535	6	1.00408	11	0	5.7006	4.57821e-05
2	1	0	1	0	1	508.399	0.492292	0.492587	0.104052	6	1.00433	11	0	8.201	5.12545e-05
2	1	0	1	0	1	510.899	0.504793	0.505053	0.119094	6	1.00461	11	0	10.7014	6.01486e-05
2	1	0	0	0	1	513.4	0.517295	0.517593	0.147695	6	1.00494	11	0	13.2016	7.64458e-05
2	1	0	0	0	1	515.9	0.529796	0.530072	0.198946	6	1.00537	11	0	15.702	0.000105456
2	1	0	1	0	1	518.4	0.542298	0.542634	0.288248	6	1.00596	11	0	18.2024	0.000156413
2	1	0	1	0	1	520.901	0.5548	0.555277	0.436343	6	1.00685	11	0	20.7026	0.000242292
2	1	0	1	0	1	523.401	0.567301	0.567687	0.664886	6	1.00821	11	0	23.203	0.000377447
2	1	0	0	0	1	525.901	0.579803	0.58012	0.9903	6	1.01025	11	0	25.7032	0.000574493
2	1	0	0	0	1	528.402	0.592304	0.592657	1.41601	6	1.01324	11	0	28.2036	0.000839209
2	1	0	0	0	1	530.902	0.604806	0.605072	1.94069	6	1.01741	11	0	30.704	0.00117425
2	1	0	1	0	1	533.402	0.617308	0.617559	2.5469	6	1.02301	11	0	33.2042	0.00157286
2	1	0	1	0	1	535.903	0.629809	0.630129	3.21353	6	1.0302	11	0	35.7046	0.00202494
2	1	0	0	0	1	538.403	0.642311	0.64257	3.9329	6	1.03913	11	0	38.2048	0.00252716
2	1	0	0	0	1	540.903	0.654813	0.655111	4.72127	6	1.04994	11	0	40.7052	0.00309296
2	1	0	0	0	1	543.404	0.667314	0.667614	5.51475	6	1.06273	11	0	43.2056	0.00368173
2	1	0	1	0	1	545.904	0.679816	0.680188	6.36094	6	1.07757	11	0	45.7058	0.00432663
2	1	0	1	0	1	548.404	0.692317	0.692671	7.22916	6	1.09458	11	0	48.2062	0.00500743
2	1	0	0	0	1	550.701	0.696168	0.696386	7.48294	6	1.1119	11	0	50.5028	0.00521101
2	1	0	1	0	1	553.201	0.683666	0.683958	6.54996	6	1.12943	11	0	53.003	0.0044799
2	1	0	1	0	1	555.701	0.671165	0.671404	5.66242	6	1.14467	11	0	55.5034	0.00380177
2	1	0	0	0	1	558.202	0.658663	0.658995	4.82872	6	1.15776	11	0	58.0036	0.0031821
2	1	0	0	0	1	560.702	0.646161	0.646405	4.021	6	1.16881	11	0	60.504	0.0025992
2	1	0	0	0	1	563.202	0.63366	0.633999	3.28209	6	1.17791	11	0	63.0044	0.00208084
2	1	0	1	0	1	565.703	0.621158	0.621525	2.60012	6	1.18526	11	0	65.5046	0.00161604
2	1	0	1	0	1	568.203	0.608657	0.608866	1.98094	6	1.19098	11	0	68.005	0.00120613
2	1	0	1	0	1	570.703	0.596154	0.596402	1.44287	6	1.19524	11	0	70.5054	0.000860533
2	1	0	0	0	1	573.204	0.583653	0.583933	0.992459	6	1.19827	11	0	73.0056	0.00057953
2	1	0	0	0	1	575.704	0.571152	0.571422	0.630862	6	1.20029	11	0	75.506	0.000360489
2	1	0	1	0	1	578.204	0.55865	0.559025	0.366301	6	1.20151	11	0	78.0062	0.000204771
2	1	0	1	0	1	580.705	0.546148	0.546497	0.186535	6	1.20218	11	0	80.5066	0.000101941
2	1	0	1	0	1	583.205	0.533647	0.533951	0.0714222	6	1.20249	11	0	83.007	3.8136e-05
2	1	0	0	0	1	585.705	0.521145	0.521508	0.00243781	6	1.20257	11	0	85.5072	1.27134e-06
2	0	0	0	0	1	588.206	0.508644	0.508927	-0.0383179	6	1.20251	11	0	2.4004	-1.9501e-05
2	0	0	1	0	1	590.706	0.496142	0.496459	-0.06222	6	1.20238	11	0	4.9007	-3.08897e-05
2	0	0	1	0	1	593.206	0.48364	0.484006	-0.0764959	6	1.2022	11	0	7.401	-3.70245e-05
2	0	0	1	0	1	595.707	0.471139	0.471358	-0.0859742	6	1.20199	11	0	9.9014	-4.05247e-05
2	0	0	0	0	1	598.207	0.458637	0.458955	-0.0929032	6	1.20176	11	0	12.4016	-4.26384e-05
2	1	0	0	0	0	600.585	0.453286	0.453616	0.0772217	7	1.20162	11	0	0.4	3.5029e-05
2	1	0	0	0	0	603.085	0.465788	0.466097	0.0924238	7	1.20184	11	0	2.9004	4.30785e-05
2	1	0	1	0	0	605.585	0.47829	0.478599	0.0952008	7	1.20208	11	0	5.4006	4.5563e-05
2	1	0	1	0	0	608.086	0.490791	0.491073	0.101794	7	1.20233	11	0	7.901	4.9988e-05
2	1	0	0	0	0	610.586	0.503293	0.503544	0.114174	7	1.20261	11	0	10.4012	5.74916e-05
2	1	0	0	0	0	613.086	0.515795	0.516066	0.139669	7	1.20293	11	0	12.9016	7.20786e-05
2	1	0	0	0	0	615.587	0.528296	0.528547	0.186244	7	1.20333	11	0	15.402	9.84389e-05
2	1	0	1	0	0	618.087	0.540798	0.541053	0.268987	7	1.2039	11	0	17.9022	0.000145536
2	1	0	1	0	0	620.587	0.553299	0.553578	0.408004	7	1.20474	11	0	20.4026	0.000225862
2	1	0	1	0	0	623.088	0.565801	0.566029	0.624525	7	1.20602	11	0	22.903	0.000353499
2	1	0	0	0	0	625.588	0.578303	0.578622	0.936188	7	1.20795	11	0	25.4032	0.000541698
2	1	0	0	0	0	628.088	0.590804	0.591171	1.34959	7	1.21079	11	0	27.9036	0.000797837
2	1	0	1	0	0	630.588	0.603306	0.603712	1.8593	7	1.21479	11	0	30.4038	0.00112248
2	1	0	1	0	0	633.089	0.615807	0.616089	2.45264	7	1.22017	11	0	32.9042	0.00151104
2	1	0	1	0	0	635.589	0.628309	0.628602	3.11585	7	1.22712	11	0	35.4046	0.00195863
2	1	0	0	0	0	638.089	0.640811	0.641174	3.84097	7	1.2358	11	0	37.9048	0.00246273
2	1	0	0	0	0	640.59	0.653312	0.65365	4.60142	7	1.24635	11	0	40.4052	0.00300772
2	1	0	1	0	0	643.09	0.665814	0.666046	5.39824	7	1.25884	11	0	42.9055	0.00359548
2	1	0	1	0	0	645.59	0.678316	0.678645	6.23389	7	1.27338	11	0	45.4058	0.0042306
2	1	0	1	0	0	648.091	0.690817	0.691157	7.0895	7	1.29003	11	0	47.9062	0.00489995
2	1	0	1	0	0	650.387	0.697668	0.697956	7.52018	7	1.30713	11	0	50.2026	0.00524876
2	1	0	1	0	0	652.888	0.685166	0.685369	6.59888	7	1.32476	11	0	52.703	0.00452267
2	1	0	1	0	0	655.388	0.672665	0.672894	5.73925	7	1.34018	11	0	55.2034	0.00386191
2	1	0	0	0	0	657.888	0.660163	0.660452	4.90366	7	1.35348	11	0	57.7036	0.00323863
2	1	0	0	0	0	660.389	0.647662	0.648043	4.08379	7	1.36469	11	0	60.204	0.00264647
2	1	0	1	0	0	662.889	0.63516	0.635417	3.33076	7	1.37395	11	0	62.7042	0.00211642
2	1	0	1	0	0	665.389	0.622658	0.623051	2.65779	7	1.38141	11	0	65.2046	0.00165594
2	1	0	1	0	0	667.89	0.610157	0.610428	2.04276	7	1.38726	11	0	67.705	0.00124696
2	1	0	0	0	0	670.39	0.597655	0.597921	1.49111	7	1.39166	11	0	70.2052	0.000891563
2	1	0	0	0	0	672.89	0.585154	0.585387	1.0233	7	1.39477	11	0	72.7056	0.000599029
2	1	0	0	0	0	675.391	0.572652	0.572952	0.658366	7	1.39685	11	0	75.206	0.000377212
2	1	0	1	0	0	677.891	0.56015	0.560403	0.385971	7	1.39813	11	0	77.7062	0.000216299
2	1	0	1	0	0	680.391	0.547649	0.547952	0.198931	7	1.39885	11	0	80.2066	0.000109005
2	1	0	0	0	0	682.891	0.535147	0.535355	0.0776591	7	1.39919	11	0	82.7068	4.15752e-05
2	1	0	0	0	0	685.392	0.522645	0.523013	0.00389093	7	1.39928	11	0	85.2072	2.03501e-06
2	0	0	0	0	0	687.892	0.510144	0.510415	-0.0396074	7	1.39924	11	0	2.1004	-2.02162e-05
2	0	0	1	0	0	690.392	0.497642	0.497989	-0.0645748	7	1.39911	11	0	4.6006	-3.21575e-05
2	0	0	1	0	0	692.893	0.485141	0.485554	-0.0781949	7	1.39894	11	0	7.101	-3.79679e-05
2	0	0	1	0	0	695.393	0.472639	0.472947	-0.0859966	7	1.39873	11	0	9.6014	-4.06719e-05
2	0	0	0	0	0	697.893	0.460137	0.460435	-0.0918023	7	1.39851	11	0	12.1016	-4.2269e-05
2	1	0	0	0	1	700.271	0.451786	0.45205	0.054054	8	1.39831	11	0	0.1	2.44351e-05
2	1	0	1	0	1	702.771	0.464288	0.464502	0.094451	8	1.39853	11	0	2.6002	4.38727e-05
2	1	0	1	0	1	705.272	0.47679	0.477084	0.0979527	8	1.39877	11	0	5.1006	4.67317e-05
2	1	0	1	0	1	707.772	0.489291	0.489499	0.103248	8	1.39901	11	0	7.601	5.05399e-05
2	1	0	0	0	1	710.272	0.501793	0.502042	0.114073	8	1.39928	11	0	10.1012	5.72693e-05
2	1	0	0	0	1	712.773	0.514294	0.51462	0.135627	8	1.3996	11	0	12.6016	6.97964e-05
2	1	0	1	0	1	715.273	0.526796	0.527075	0.178533	8	1.39999	11	0	15.1019	9.41003e-05
2	1	0	1	0	1	717.773	0.539298	0.539599	0.254664	8	1.40053	11	0	17.6022	0.000137416
2	1	0	1	0	1	720.274	0.551799	0.552112	0.384492	8	1.40132	11	0	20.1026	0.000212282
2	1	0	0	0	1	722.774	0.564301	0.564636	0.589437	8	1.40253	11	0	22.6028	0.000332817
2	1	0	0	0	1	725.274	0.576802	0.577099	0.887825	8	1.40436	11	0	25.1032	0.000512363
2	1	0	0	0	1	727.775	0.589304	0.589686	1.28724	8	1.40706	11	0	27.6036	0.000759068
2	1	0	1	0	1	730.275	0.601806	0.60213	1.78369	8	1.41088	11	0	30.1038	0.00107401
2	1	0	1	0	1	732.775	0.614307	0.614566	2.3724	8	1.41606	11	0	32.6042	0.001458
2	1	0	1	0	1	735.276	0.626809	0.627123	3.02638	8	1.42279	11	0	35.1045	0.00189791
2	1	0	0	0	1	737.776	0.63931	0.639683	3.73498	8	1.43123	11	0	37.6048	0.0023892
2	1	0	0	0	1	740.276	0.651812	0.652075	4.49352	8	1.44151	11	0	40.1052	0.00293011
2	1	0	1	0	1	742.777	0.664314	0.664671	5.29465	8	1.45374	11	0	42.6054	0.0035192
2	1	0	1	0	1	745.277	0.676815	0.677156	6.11988	8	1.468	11	0	45.1058	0.00414411
2	1	0	1	0	1	747.777	0.689317	0.689615	6.97844	8	1.48438	11	0	47.6062	0.00481243
2	1	0	1	0	1	750.074	0.699168	0.699324	7.65154	8	1.50132	11	0	49.9026	0.00535091
2	1	0	1	0	1	752.574	0.686667	0.686985	6.76372	8	1.51929	11	0	52.403	0.00464657
2	1	0	0	0	1	755.074	0.674165	0.674439	5.89205	8	1.53512	11	0	54.9032	0.00397383
2	1	0	0	0	1	757.575	0.661663	0.661897	5.04374	8	1.54878	11	0	57.4036	0.00333843
2	1	0	0	0	1	760.075	0.649162	0.64944	4.21808	8	1.56033	11	0	59.904	0.00273939
2	1	0	1	0	1	762.575	0.63666	0.636984	3.47491	8	1.56993	11	0	62.4042	0.00221346
2	1	0	1	0	1	765.076	0.624159	0.624444	2.76622	8	1.57771	11	0	64.9046	0.00172735
2	1	0	1	0	1	767.576	0.611657	0.611923	2.12286	8	1.58381	11	0	67.4049	0.00129903
2	1	0	0	0	1	770.076	0.599155	0.599513	1.56158	8	1.58838	11	0	69.9052	0.000936185
2	1	0	0	0	1	772.577	0.586654	0.586986	1.08078	8	1.59166	11	0	72.4056	0.000634403
2	1	0	1	0	1	775.077	0.574152	0.574496	0.696905	8	1.59386	11	0	74.9058	0.000400369
2	1	0	1	0	1	777.577	0.56165	0.562032	0.411691	8	1.59523	11	0	77.4062	0.000231384
2	1	0	1	0	1	780.078	0.549149	0.549456	0.215272	8	1.596	11	0	79.9066	0.000118282
2	1	0	0	0	1	782.578	0.536647	0.536874	0.0881496	8	1.59637	11	0	82.4068	4.73252e-05
2	1	0	0	0	1	785.078	0.524146	0.52434	0.00986845	8	1.59649	11	0	84.9072	5.17442e-06
2	0	0	1	0	1	787.579	0.511644	0.511914	-0.0356962	8	1.59645	11	0	1.8003	-1.82734e-05
2	0	0	1	0	1	790.079	0.499142	0.499416	-0.0618201	8	1.59633	11	0	4.3006	-3.0874e-05
2	0	0	1	0	1	792.579	0.486641	0.486969	-0.0773581	8	1.59616	11	0	6.801	-3.7671e-05
2	0	0	0	0	1	795.08	0.474139	0.474421	-0.0864797	8	1.59596	11	0	9.3012	-4.10278e-05
2	0	0	0	0	1	797.58	0.461638	0.461853	-0.0926039	8	1.59574	11	0	11.8016	-4.27694e-05
2	0	0	0	0	0	799.958	0.450286	0.450595	-0.0536026	9	1.59552	11	0	14.1794	-2.4153e-05
2	1	0	1	0	0	802.458	0.462788	0.463017	0.0939997	9	1.59571	11	0	2.3002	4.35234e-05
2	1	0	1	0	0	804.958	0.475289	0.475585	0.0979054	9	1.59594	11	0	4.8006	4.65623e-05
2	1	0	0	0	0	807.459	0.487791	0.488126	0.103272	9	1.59619	11	0	7.3008	5.04096e-05
2	1	0	0	0	0	809.959	0.500293	0.500516	0.113578	9	1.59645	11	0	9.8012	5.68474e-05
2	1	0	0	0	0	812.459	0.512794	0.513106	0.134084	9	1.59676	11	0	12.3016	6.87994e-05
2	1	0	1	0	0	814.96	0.525296	0.525592	0.173385	9	1.59714	11	0	14.8018	9.113e-05
2	1	0	1	0	0	817.46	0.537797	0.538059	0.244175	9	1.59765	11	0	17.3022	0.000131381
2	1	0	1	0	0	819.96	0.550299	0.550658	0.364258	9	1.5984	11	0	19.8026	0.000200582
2	1	0	0	0	0	822.461	0.562801	0.56309	0.557016	9	1.59954	11	0	22.3028	0.00031365
2	1	0	0	0	0	824.961	0.575302	0.575594	0.839661	9	1.60127	11	0	24.8032	0.000483304
2	1	0	1	0	0	827.461	0.587804	0.58803	1.22397	9	1.60384	11	0	27.3034	0.000719731
2	1	0	1	0	0	829.962	0.600306	0.600578	1.70952	9	1.60749	11	0	29.8038	0.0010267
2	1	0	1	0	0	832.462	0.612807	0.613142	2.27929	9	1.61247	11	0	32.3042	0.00139753
2	1	0	0	0	0	834.962	0.625309	0.625619	2.92598	9	1.61897	11	0	34.8044	0.00183055
2	1	0	0	0	0	837.463	0.63781	0.638082	3.63298	9	1.62716	11	0	37.3048	0.00231814
2	1	0	1	0	0	839.963	0.650312	0.650636	4.40198	9	1.6372	11	0	39.8051	0.00286409
2	1	0	1	0	0	842.463	0.662814	0.662996	5.19483	9	1.64919	11	0	42.3054	0.00344415
2	1	0	1	0	0	844.964	0.675315	0.675583	6.02037	9	1.6632	11	0	44.8058	0.00406726
2	1	0	0	0	0	847.464	0.687817	0.688066	6.87858	9	1.67931	11	0	47.306	0.00473292
2	1	0	1	0	0	849.895	0.699994	0.700213	7.73206	9	1.69711	11	0	49.7376	0.00541409
2	1	0	1	0	0	852.261	0.688167	0.688522	6.82649	9	1.71432	11	0	52.103	0.00470019
2	1	0	0	0	0	854.761	0.675665	0.675996	5.93952	9	1.73025	11	0	54.6032	0.00401509
2	1	0	0	0	0	857.261	0.663164	0.663488	5.10284	9	1.74404	11	0	57.1036	0.00338567
2	1	0	1	0	0	859.762	0.650662	0.650942	4.28297	9	1.75576	11	0	59.6039	0.00278797
2	1	0	1	0	0	862.262	0.63816	0.638461	3.5254	9	1.76549	11	0	62.1042	0.00225083
2	1	0	1	0	0	864.762	0.625659	0.625976	2.8149	9	1.7734	11	0	64.6046	0.00176206
2	1	0	0	0	0	867.263	0.613157	0.613413	2.16934	9	1.77961	11	0	67.1048	0.0013307
2	1	0	0	0	0	869.763	0.600656	0.600958	1.59979	9	1.78431	11	0	69.6052	0.000961407
2	1	0	0	0	0	872.263	0.588154	0.588452	1.11758	9	1.78769	11	0	72.1056	0.00065764
2	1	0	1	0	0	874.764	0.575652	0.575948	0.725745	9	1.78998	11	0	74.6058	0.000417991
2	1	0	1	0	0	877.264	0.563151	0.563508	0.434804	9	1.79141	11	0	77.1062	0.000245015
2	1	0	0	0	0	879.764	0.550649	0.55096	0.230736	9	1.79223	11	0	79.6064	0.000127126
2	1	0	0	0	0	882.265	0.538147	0.538364	0.0976086	9	1.79263	11	0	82.1068	5.2549e-05
2	1	0	0	0	0	884.765	0.525646	0.525899	0.0170349	9	1.79277	11	0	84.6072	8.95864e-06
2	0	0	1	0	0	887.265	0.513144	0.513531	-0.0309392	9	1.79275	11	0	1.6002	-1.58882e-05
2	0	0	1	0	0	889.766	0.500643	0.500949	-0.0593346	9	1.79264	11	0	4.1006	-2.97236e-05
2	0	0	1	0	0	892.266	0.488141	0.488497	-0.0749772	9	1.79247	11	0	6.601	-3.66262e-05
2	0	0	0	0	0	894.766	0.475639	0.475933	-0.0847675	9	1.79227	11	0	9.1012	-4.03437e-05
2	0	0	0	0	0	897.267	0.463138	0.463426	-0.0912468	9	1.79205	11	0	11.6016	-4.22861e-05
2	0	0	1	0	0	899.767	0.450636	0.450918	-0.0960988	9	1.79182	11	0	14.1018	-4.33327e-05
2	1	0	1	0	1	902.145	0.461288	0.461578	0.0928306	10	1.79197	11	0	2.0002	4.28486e-05
2	1	0	1	0	1	904.645	0.473789	0.474099	0.0975854	10	1.7922	11	0	4.5006	4.62651e-05
2	1	0	0	0	1	907.145	0.486291	0.486592	0.102727	10	1.79244	11	0	7.0008	4.9986e-05
2	1	0	0	0	1	909.646	0.498792	0.499176	0.112624	10	1.79271	11	0	9.5012	5.62191e-05
2	1	0	1	0	1	912.146	0.511294	0.511562	0.131229	10	1.79301	11	0	12.0015	6.71316e-05
2	1	0	1	0	1	914.646	0.523796	0.524121	0.167514	10	1.79337	11	0	14.5018	8.77976e-05
2	1	0	1	0	1	917.147	0.536297	0.536568	0.232919	10	1.79386	11	0	17.0022	0.000124977
2	1	0	0	0	1	919.647	0.548799	0.549168	0.344364	10	1.79457	11	0	19.5024	0.000189114
2	1	0	0	0	1	922.147	0.5613	0.561543	0.52556	10	1.79564	11	0	22.0028	0.000295125
2	1	0	0	0	1	924.648	0.573802	0.574045	0.795075	10	1.79728	11	0	24.5032	0.000456409
2	1	0	1	0	1	927.148	0.586304	0.586615	1.1658	10	1.79971	11	0	27.0034	0.000683873
2	1	0	1	0	1	929.648	0.598805	0.599084	1.63701	10	1.8032	11	0	29.5038	0.000980704
2	1	0	0	0	1	932.148	0.611307	0.611559	2.20151	10	1.80799	11	0	32.004	0.00134635
2	1	0	0	0	1	934.649	0.623808	0.62408	2.83512	10	1.81428	11	0	34.5044	0.00176934
2	1	0	0	0	1	937.149	0.63631	0.636587	3.5358	10	1.82224	11	0	37.0048	0.00225085
2	1	0	1	0	1	939.649	0.648812	0.649149	4.29664	10	1.83203	11	0	39.505	0.00278916
2	1	0	1	0	1	942.15	0.661313	0.661604	5.08056	10	1.84374	11	0	42.0054	0.00336132
2	1	0	1	0	1	944.65	0.673814	0.674136	5.90029	10	1.85747	11	0	44.5057	0.0039776
2	1	0	0	0	1	947.15	0.686317	0.686631	6.74989	10	1.87328	11	0	47.006	0.00463468
2	1	0	0	0	1	949.651	0.698818	0.699158	7.57851	10	1.89119	11	0	49.5064	0.00529857
2	1	0	0	0	1	951.947	0.689667	0.689976	6.85032	10	1.90792	11	0	51.8028	0.00472656
2	1	0	0	0	1	954.448	0.677165	0.677425	5.96705	10	1.92392	11	0	54.3032	0.00404223
2	1	0	0	0	1	956.948	0.664664	0.66493	5.12851	10	1.93778	11	0	56.8036	0.0034101
2	1	0	1	0	1	959.448	0.652162	0.652484	4.34116	10	1.94961	11	0	59.3038	0.00283254
2	1	0	1	0	1	961.949	0.639661	0.639939	3.59937	10	1.95951	11	0	61.8042	0.00230337
2	1	0	1	0	1	964.449	0.627159	0.627416	2.88355	10	1.96759	11	0	64.3045	0.00180919
2	1	0	0	0	1	966.949	0.614657	0.614964	2.24198	10	1.97399	11	0	66.8048	0.00137874
2	1	0	0	0	1	969.45	0.602156	0.602462	1.65854	10	1.97885	11	0	69.3052	0.000999205
2	1	0	1	0	1	971.95	0.589654	0.590022	1.16314	10	1.98235	11	0	71.8054	0.00068628
2	1	0	1	0	1	974.45	0.577152	0.577505	0.763078	10	1.98473	11	0	74.3058	0.000440681
2	1	0	1	0	1	976.951	0.564651	0.564963	0.463606	10	1.98624	11	0	76.8062	0.00026192
2	1	0	0	0	1	979.451	0.552149	0.552391	0.25036	10	1.98712	11	0	79.3064	0.000138296
2	1	0	0	0	1	981.951	0.539648	0.539931	0.109641	10	1.98756	11	0	81.8068	5.91988e-05
2	1	0	1	0	1	984.451	0.527146	0.527375	0.023184	10	1.98772	11	0	84.307	1.22266e-05
2	0	0	1	0	1	986.952	0.514644	0.514838	-0.0270964	10	1.98771	11	0	1.3002	-1.39502e-05
2	0	0	1	0	1	989.452	0.502143	0.502383	-0.0557493	10	1.98761	11	0	3.8006	-2.80075e-05
2	0	0	0	0	1	991.952	0.489641	0.489925	-0.0716643	10	1.98745	11	0	6.3008	-3.51101e-05
2	0	0	0	0	1	994.453	0.47714	0.477419	-0.0808773	10	1.98725	11	0	8.8012	-3.86123e-05
2	0	0	0	0	1	996.953	0.464638	0.464888	-0.0879465	10	1.98704	11	0	11.3016	-4.08853e-05
2	0	0	1	0	1	999.453	0.452136	0.452457	-0.0937801	10	1.9868	11	0	13.8018	-4.24314e-05
2	1	0	1	0	0	1001.83	0.459787	0.460133	0.0910417	11	1.9869	11	0	1.7002	4.18913e-05
2	1	0	0	0	0	1004.33	0.472289	0.472643	0.0935154	11	1.98713	11	0	4.2004	4.41994e-05
2	1	0	0	0	0	1006.83	0.484791	0.485029	0.0970914	11	1.98737	11	0	6.7008	4.70921e-05
2	1	0	0	0	0	1009.33	0.497292	0.497593	0.107629	11	1.98763	11	0	9.2012	5.35553e-05
2	1	0	1	0	0	1011.83	0.509794	0.510076	0.127	11	1.98792	11	0	11.7014	6.47798e-05
2	1	0	1	0	0	1014.33	0.522295	0.522644	0.161755	11	1.98827	11	0	14.2018	8.45402e-05
2	1	0	1	0	0	1016.83	0.534797	0.535043	0.222614	11	1.98874	11	0	16.7021	0.000119108
2	1	0	0	0	0	1019.33	0.547299	0.547636	0.32672	11	1.98941	11	0	19.2024	0.000178924
2	1	0	0	0	0	1021.83	0.5598	0.560115	0.496323	11	1.99043	11	0	21.7028	0.000277998
2	1	0	1	0	0	1024.33	0.572302	0.57259	0.753103	11	1.99198	11	0	24.203	0.00043122
2	1	0	1	0	0	1026.83	0.584803	0.585186	1.11064	11	1.99429	11	0	26.7034	0.000649933
2	1	0	1	0	0	1029.33	0.597305	0.597666	1.56898	11	1.99763	11	0	29.2038	0.000937728
2	1	0	0	0	0	1031.83	0.609807	0.610125	2.11765	11	2.00222	11	0	31.704	0.00129203
2	1	0	0	0	0	1034.34	0.622308	0.622629	2.747	11	2.00828	11	0	34.2044	0.00171036
2	1	0	1	0	0	1036.84	0.63481	0.635063	3.42949	11	2.01599	11	0	36.7047	0.00217794
2	1	0	1	0	0	1039.34	0.647312	0.647653	4.17021	11	2.02548	11	0	39.205	0.00270085
2	1	0	1	0	0	1041.84	0.659813	0.660114	4.96888	11	2.03691	11	0	41.7054	0.00328003
2	1	0	0	0	0	1044.34	0.672315	0.672721	5.77769	11	2.05035	11	0	44.2056	0.00388677
2	1	0	0	0	0	1046.84	0.684816	0.685066	6.64471	11	2.06588	11	0	46.706	0.00455207
2	1	0	0	0	0	1049.34	0.697318	0.697584	7.49717	11	2.08357	11	0	49.2064	0.00522991
2	1	0	0	0	0	1051.63	0.691167	0.691535	7.02081	11	2.10057	11	0	51.5028	0.00485513
2	1	0	0	0	0	1054.13	0.678666	0.679004	6.07501	11	2.11693	11	0	54.0032	0.00412495
2	1	0	1	0	0	1056.63	0.666164	0.666499	5.22583	11	2.13105	11	0	56.5034	0.00348301
2	1	0	1	0	0	1059.13	0.653662	0.653957	4.40505	11	2.14307	11	0	59.0038	0.00288071
2	1	0	1	0	0	1061.64	0.641161	0.641485	3.66604	11	2.15316	11	0	61.5042	0.00235171
2	1	0	0	0	0	1064.14	0.628659	0.628958	2.95645	11	2.16141	11	0	64.0044	0.00185948
2	1	0	0	0	0	1066.64	0.616158	0.616497	2.30601	11	2.16797	11	0	66.5048	0.00142165
2	1	0	0	0	0	1069.14	0.603656	0.603923	1.71899	11	2.17298	11	0	69.0052	0.00103814
2	1	0	1	0	0	1071.64	0.591154	0.591401	1.20743	11	2.17662	11	0	71.5054	0.000714077
2	1	0	1	0	0	1074.14	0.578653	0.579019	0.798639	11	2.17911	11	0	74.0058	0.000462427
2	1	0	0	0	0	1076.64	0.566151	0.5665	0.489399	11	2.1807	11	0	76.506	0.000277244
2	1	0	0	0	0	1079.14	0.553649	0.554008	0.26943	11	2.18163	11	0	79.0064	0.000149266
2	1	0	0	0	0	1081.64	0.541148	0.541496	0.124943	11	2.18211	11	0	81.5068	6.76562e-05
2	1	0	1	0	0	1084.14	0.528646	0.528912	0.0353143	11	2.1823	11	0	84.007	1.86782e-05
2	0	0	1	0	0	1086.64	0.516145	0.516487	-0.0192727	11	2.18231	11	0	1.0002	-9.9541e-06
2	0	0	1	0	0	1089.14	0.503643	0.503908	-0.0514989	11	2.18221	11	0	3.5005	-2.59507e-05
2	0	0	0	0	0	1091.64	0.491141	0.491443	-0.0715937	11	2.18205	11	0	6.0008	-3.51842e-05
2	0	0	0	0	0	1094.14	0.47864	0.478944	-0.0836799	11	2.18186	11	0	8.5012	-4.0078e-05
2	0	0	1	0	0	1096.64	0.466138	0.466424	-0.0917189	11	2.18165	11	0	11.0014	-4.27799e-05
2	0	0	1	0	0	1099.14	0.453637	0.453995	-0.0976275	11	2.18141	11	0	13.5018	-4.43225e-05
2	1	0	1	0	1	1101.52	0.458287	0.458567	0.0886668	12	2.18145	11	0	1.4002	4.06597e-05
2	1	0	0	0	1	1104.02	0.470789	0.471093	0.0956279	12	2.18168	11	0	3.9004	4.50496e-05
2	1	0	0	0	1	1106.52	0.48329	0.483584	0.100683	12	2.18192	11	0	6.4008	4.86888e-05
2	1	0	1	0	1	1109.02	0.495792	0.496107	0.108608	12	2.18218	11	0	8.9011	5.3881e-05
2	1	0	1	0	1	1111.52	0.508294	0.508628	0.123126	12	2.18246	11	0	11.4014	6.26255e-05
2	1	0	1	0	1	1114.02	0.520795	0.521076	0.1523	12	2.1828	11	0	13.9018	7.93596e-05
2	1	0	0	0	1	1116.52	0.533297	0.53349	0.20815	12	2.18325	11	0	16.402	0.000111046
2	1	0	0	0	1	1119.02	0.545798	0.546109	0.306889	12	2.18389	11	0	18.9024	0.000167595
2	1	0	0	0	1	1121.52	0.5583	0.558594	0.46911	12	2.18485	11	0	21.4028	0.000262042
2	1	0	1	0	1	1124.02	0.570802	0.57114	0.715636	12	2.18631	11	0	23.903	0.000408728
2	1	0	1	0	1	1126.52	0.583303	0.583654	1.05965	12	2.18851	11	0	26.4034	0.000618471
2	1	0	0	0	1	1129.02	0.595805	0.596037	1.50251	12	2.19169	11	0	28.9036	0.000895554
2	1	0	0	0	1	1131.52	0.608307	0.608653	2.03842	12	2.1961	11	0	31.404	0.00124069
2	1	0	0	0	1	1134.02	0.620808	0.621057	2.65445	12	2.20195	11	0	33.9044	0.00164856
2	1	0	1	0	1	1136.52	0.63331	0.633652	3.33165	12	2.20942	11	0	36.4046	0.0021111
2	1	0	1	0	1	1139.02	0.645811	0.646179	4.06539	12	2.21866	11	0	38.905	0.00262697
2	1	0	1	0	1	1141.52	0.658313	0.658614	4.84407	12	2.2298	11	0	41.4054	0.00319037
2	1	0	0	0	1	1144.02	0.670815	0.671073	5.65006	12	2.24293	11	0	43.9056	0.00379161
2	1	0	0	0	1	1146.52	0.683316	0.683607	6.46252	12	2.25808	11	0	46.406	0.00441782
2	1	0	1	0	1	1149.02	0.695818	0.696121	7.30728	12	2.27529	11	0	48.9062	0.00508675
2	1	0	0	0	1	1151.32	0.692667	0.692959	7.0636	12	2.29223	11	0	51.2028	0.00489479
2	1	0	0	0	1	1153.82	0.680166	0.680497	6.15545	12	2.30873	11	0	53.7032	0.00418877
2	1	0	1	0	1	1156.32	0.667664	0.668026	5.30239	12	2.32304	11	0	56.2034	0.00354214
2	1	0	1	0	1	1158.82	0.655163	0.655502	4.50352	12	2.3353	11	0	58.7038	0.00295206
2	1	0	1	0	1	1161.32	0.642661	0.642906	3.72452	12	2.34557	11	0	61.2041	0.00239452
2	1	0	0	0	1	1163.82	0.630159	0.630464	2.99293	12	2.35396	11	0	63.7044	0.00188693
2	1	0	0	0	1	1166.32	0.617658	0.617899	2.33319	12	2.3606	11	0	66.2048	0.00144168
2	1	0	1	0	1	1168.82	0.605156	0.605372	1.75422	12	2.36571	11	0	68.705	0.00106196
2	1	0	1	0	1	1171.32	0.592654	0.593004	1.25022	12	2.36944	11	0	71.2054	0.000741387
2	1	0	1	0	1	1173.82	0.580153	0.580411	0.841369	12	2.37204	11	0	73.7058	0.00048834
2	1	0	0	0	1	1176.32	0.567651	0.567989	0.518175	12	2.37372	11	0	76.206	0.000294317
2	1	0	0	0	1	1178.82	0.55515	0.555478	0.288526	12	2.37471	11	0	78.7064	0.00016027
2	1	0	1	0	1	1181.32	0.542648	0.542915	0.137185	12	2.37522	11	0	81.2067	7.44798e-05
2	1	0	1	0	1	1183.82	0.530146	0.530464	0.0433811	12	2.37543	11	0	83.707	2.30121e-05
2	0	0	1	0	1	1186.32	0.517645	0.517845	-0.0141598	12	2.37545	11	0	0.7002	-7.33259e-06
2	0	0	0	0	1	1188.83	0.505143	0.505436	-0.0474671	12	2.37537	11	0	3.2004	-2.39916e-05
2	0	0	0	0	1	1191.33	0.492642	0.492922	-0.0671027	12	2.37522	11	0	5.7008	-3.30764e-05
2	0	0	0	0	1	1193.83	0.48014	0.480371	-0.079962	12	2.37503	11	0	8.2012	-3.84114e-05
2	0	0	1	0	1	1196.33	0.467638	0.468001	-0.0888783	12	2.37481	11	0	10.7014	-4.15951e-05
2	0	0	1	0	1	1198.83	0.455137	0.455499	-0.0963833	12	2.37458	11	0	13.2018	-4.39025e-05
2	1	0	0	0	0	1201.2	0.456787	0.457139	0.0846163	13	2.37457	11	0	1.1	3.86814e-05
2	1	0	0	0	0	1203.7	0.469289	0.469678	0.0911309	13	2.37479	11	0	3.6004	4.28022e-05
2	1	0	0	0	0	1206.2	0.48179	0.482073	0.0958878	13	2.37503	11	0	6.1008	4.62249e-05
2	1	0	1	0	0	1208.71	0.494292	0.494572	0.10471	13	2.37528	11	0	8.601	5.17867e-05
2	1	0	1	0	0	1211.21	0.506793	0.506973	0.120495	13	2.37556	11	0	11.1014	6.10876e-05
2	1	0	1	0	0	1213.71	0.519295	0.519612	0.149647	13	2.37589	11	0	13.6018	7.77584e-05
2	1	0	0	0	0	1216.21	0.531797	0.532074	0.202732	13	2.37632	11	0	16.102	0.000107868
2	1	0	0	0	0	1218.71	0.544298	0.544609	0.295668	13	2.37693	11	0	18.6024	0.000161024
2	1	0	1	0	0	1221.21	0.5568	0.557084	0.448324	13	2.37784	11	0	21.1026	0.000249755
2	1	0	1	0	0	1223.71	0.569301	0.569624	0.681453	13	2.37923	11	0	23.603	0.000388172
2	1	0	1	0	0	1226.21	0.581803	0.582088	1.01094	13	2.38133	11	0	26.1034	0.000588454
2	1	0	0	0	0	1228.71	0.594305	0.594594	1.44141	13	2.38437	11	0	28.6036	0.000857056
2	1	0	0	0	0	1231.21	0.606806	0.607176	1.96614	13	2.38862	11	0	31.104	0.00119379
2	1	0	1	0	0	1233.71	0.619308	0.619564	2.57076	13	2.39428	11	0	33.6042	0.00159275
2	1	0	1	0	0	1236.21	0.63181	0.632145	3.24165	13	2.40154	11	0	36.1046	0.00204919
2	1	0	1	0	0	1238.71	0.644311	0.644657	3.97764	13	2.41056	11	0	38.605	0.00256421
2	1	0	0	0	0	1241.21	0.656813	0.657171	4.74717	13	2.42147	11	0	41.1052	0.0031197
2	1	0	0	0	0	1243.71	0.669314	0.669664	5.55157	13	2.43435	11	0	43.6056	0.00371768
2	1	0	0	0	0	1246.21	0.681816	0.68218	6.38277	13	2.44926	11	0	46.106	0.0043542
2	1	0	1	0	0	1248.71	0.694318	0.694608	7.22515	13	2.46628	11	0	48.6062	0.00501865
2	1	0	0	0	0	1251.01	0.694168	0.694456	7.14809	13	2.48327	11	0	50.9028	0.00496403
2	1	0	1	0	0	1253.51	0.681666	0.681932	6.20823	13	2.49995	11	0	53.403	0.00423359
2	1	0	1	0	0	1256.01	0.669164	0.669419	5.34215	13	2.51437	11	0	55.9034	0.00357614
2	1	0	1	0	0	1258.51	0.656663	0.656971	4.53383	13	2.52671	11	0	58.4038	0.0029786
2	1	0	0	0	0	1261.01	0.644161	0.644468	3.76594	13	2.53708	11	0	60.904	0.00242703
2	1	0	0	0	0	1263.51	0.63166	0.631899	3.05104	13	2.5456	11	0	63.4044	0.00192795
2	1	0	0	0	0	1266.01	0.619158	0.619526	2.39744	13	2.5524	11	0	65.9048	0.00148528
2	1	0	1	0	0	1268.51	0.606656	0.606997	1.80906	13	2.55764	11	0	68.405	0.00109809
2	1	0	1	0	0	1271.01	0.594155	0.59445	1.30093	13	2.5615	11	0	70.9054	0.00077334
2	1	0	0	0	0	1273.51	0.581653	0.581904	0.877077	13	2.5642	11	0	73.4056	0.000510374
2	1	0	0	0	0	1276.01	0.569151	0.569475	0.549601	13	2.56596	11	0	75.906	0.000312984
2	1	0	0	0	0	1278.51	0.55665	0.556984	0.313614	13	2.56701	11	0	78.4064	0.000174678
2	1	0	1	0	0	1281.01	0.544148	0.544517	0.153274	13	2.56757	11	0	80.9066	8.34606e-05
2	1	0	1	0	0	1283.51	0.531647	0.532011	0.0529618	13	2.56781	11	0	83.407	2.81763e-05
2	0	0	1	0	0	1286.01	0.519145	0.519457	-0.00934649	13	2.56786	11	0	0.4001	-4.8551e-06
2	0	0	0	0	0	1288.51	0.506643	0.506943	-0.046215	13	2.56778	11	0	2.9004	-2.34284e-05
2	0	0	0	0	0	1291.01	0.494142	0.494472	-0.0681058	13	2.56764	11	0	5.4008	-3.36764e-05
2	0	0	1	0	0	1293.51	0.48164	0.481896	-0.0806272	13	2.56745	11	0	7.901	-3.88539e-05
2	0	0	1	0	0	1296.01	0.469139	0.469421	-0.0891089	13	2.56724	11	0	10.4014	-4.18296e-05
2	0	0	1	0	0	1298.51	0.456637	0.456932	-0.0959602	13	2.56701	11	0	12.9018	-4.38473e-05
2	1	0	0	0	1	1300.89	0.455287	0.455536	0.0821824	14	2.56694	11	0	0.8	3.74371e-05
2	1	0	0	0	1	1303.39	0.467788	0.468004	0.0897543	14	2.56716	11	0	3.3004	4.20053e-05
2	1	0	1	0	1	1305.89	0.48029	0.480533	0.094192	14	2.5674	11	0	5.8006	4.52624e-05
2	1	0	1	0	1	1308.39	0.492792	0.493078	0.101342	14	2.56765	11	0	8.301	4.99693e-05
2	1	0	1	0	1	1310.89	0.505293	0.505616	0.116193	14	2.56792	11	0	10.8014	5.8749e-05
2	1	0	0	0	1	1313.39	0.517795	0.518052	0.143326	14	2.56825	11	0	13.3016	7.42503e-05
2	1	0	0	0	1	1315.89	0.530296	0.530653	0.192992	14	2.56867	11	0	15.802	0.000102412
2	1	0	0	0	1	1318.39	0.542798	0.543169	0.280596	14	2.56925	11	0	18.3024	0.000152411
2	1	0	1	0	1	1320.89	0.5553	0.555596	0.42639	14	2.57012	11	0	20.8026	0.000236901
2	1	0	1	0	1	1323.39	0.567801	0.568115	0.652159	14	2.57145	11	0	23.303	0.000370501
2	1	0	0	0	1	1325.89	0.580303	0.580541	0.973286	14	2.57346	11	0	25.8032	0.000565033
2	1	0	0	0	1	1328.39	0.592804	0.593005	1.39555	14	2.5764	11	0	28.3036	0.000827567
2	1	0	0	0	1	1330.89	0.605306	0.605649	1.91074	14	2.58051	11	0	30.804	0.00115724
2	1	0	1	0	1	1333.39	0.617808	0.618164	2.50861	14	2.58602	11	0	33.3042	0.00155073
2	1	0	1	0	1	1335.9	0.630309	0.630586	3.17179	14	2.59311	11	0	35.8046	0.00200009
2	1	0	1	0	1	1338.4	0.642811	0.643156	3.88896	14	2.60193	11	0	38.3049	0.00250121
2	1	0	0	0	1	1340.9	0.655313	0.655655	4.6613	14	2.6126	11	0	40.8052	0.00305621
2	1	0	0	0	1	1343.4	0.667814	0.668181	5.45775	14	2.62526	11	0	43.3056	0.00364676
2	1	0	1	0	1	1345.9	0.680316	0.680589	6.27902	14	2.63993	11	0	45.8058	0.00427343
2	1	0	1	0	1	1348.4	0.692817	0.693066	7.10948	14	2.65668	11	0	48.3062	0.00492734
2	1	0	0	0	1	1350.69	0.695668	0.695966	7.27138	14	2.67364	11	0	50.6028	0.00506063
2	1	0	1	0	1	1353.19	0.683166	0.683473	6.38547	14	2.69067	11	0	53.103	0.0043643
2	1	0	1	0	1	1355.69	0.670665	0.671046	5.53974	14	2.70557	11	0	55.6034	0.00371742
2	1	0	1	0	1	1358.19	0.658163	0.658378	4.69378	14	2.71835	11	0	58.1037	0.00309028
2	1	0	0	0	1	1360.69	0.645661	0.64588	3.91609	14	2.7291	11	0	60.604	0.00252932
2	1	0	0	0	1	1363.2	0.63316	0.633373	3.18961	14	2.73795	11	0	63.1044	0.00202021
2	1	0	1	0	1	1365.7	0.620658	0.62097	2.53007	14	2.74508	11	0	65.6046	0.0015711
2	1	0	1	0	1	1368.2	0.608156	0.60844	1.92548	14	2.75064	11	0	68.105	0.00117154
2	1	0	1	0	1	1370.7	0.595655	0.595918	1.38154	14	2.75475	11	0	70.6054	0.000823286
2	1	0	0	0	1	1373.2	0.583153	0.583491	0.942157	14	2.75764	11	0	73.1056	0.00054974
2	1	0	0	0	1	1375.7	0.570652	0.570905	0.593626	14	2.75954	11	0	75.606	0.000338904
2	1	0	1	0	1	1378.2	0.55815	0.558443	0.339432	14	2.76069	11	0	78.1062	0.000189553
2	1	0	1	0	1	1380.7	0.545648	0.545988	0.168451	14	2.76132	11	0	80.6066	9.19724e-05
2	1	0	1	0	1	1383.2	0.533147	0.533376	0.0607109	14	2.76159	11	0	83.107	3.23817e-05
2	1	0	0	0	1	1385.7	0.520645	0.520946	-0.00422842	14	2.76166	11	0	0.000000000000000E+000	-2.20278e-06
2	0	0	0	0	1	1388.2	0.508144	0.508427	-0.0422409	14	2.76159	11	0	2.5004	-2.14764e-05
2	0	0	0	0	1	1390.7	0.495642	0.495933	-0.0635871	14	2.76145	11	0	5.0008	-3.15349e-05
2	0	0	1	0	1	1393.2	0.48314	0.483432	-0.0766708	14	2.76127	11	0	7.501	-3.70651e-05
2	0	0	1	0	1	1395.7	0.470639	0.470931	-0.0848718	14	2.76106	11	0	10.0014	-3.99688e-05
2	0	0	0	0	1	1398.2	0.458137	0.458449	-0.091137	14	2.76084	11	0	12.5016	-4.17816e-05
2	1	0	0	0	0	1400.58	0.453787	0.454071	0.0794063	15	2.76071	11	0	0.5	3.60561e-05
2	1	0	0	0	0	1403.08	0.466288	0.466621	0.0892528	15	2.76093	11	0	3.0004	4.16472e-05
2	1	0	1	0	0	1405.58	0.47879	0.479042	0.0939746	15	2.76117	11	0	5.5006	4.50178e-05
2	1	0	1	0	0	1408.08	0.491291	0.491605	0.102107	15	2.76141	11	0	8.001	5.01963e-05
2	1	0	1	0	0	1410.58	0.503793	0.504055	0.116805	15	2.76168	11	0	10.5013	5.88764e-05
2	1	0	0	0	0	1413.08	0.516295	0.516546	0.143195	15	2.762	11	0	13.0016	7.39669e-05
2	1	0	0	0	0	1415.58	0.528796	0.529088	0.188585	15	2.76241	11	0	15.502	9.97781e-05
2	1	0	1	0	0	1418.08	0.541298	0.541625	0.268968	15	2.76297	11	0	18.0022	0.00014568
2	1	0	1	0	0	1420.58	0.553799	0.554147	0.404891	15	2.7638	11	0	20.5026	0.000224369
2	1	0	1	0	0	1423.08	0.566301	0.566593	0.618799	15	2.76507	11	0	23.003	0.000350607
2	1	0	0	0	0	1425.58	0.578803	0.579063	0.928306	15	2.76699	11	0	25.5032	0.000537547
2	1	0	0	0	0	1428.08	0.591304	0.591599	1.33959	15	2.76981	11	0	28.0036	0.000792497
2	1	0	1	0	0	1430.58	0.603806	0.604113	1.84638	15	2.77378	11	0	30.5039	0.00111542
2	1	0	1	0	0	1433.08	0.616308	0.616672	2.43846	15	2.77912	11	0	33.0042	0.00150373
2	1	0	1	0	0	1435.58	0.628809	0.629124	3.10116	15	2.78603	11	0	35.5046	0.00195102
2	1	0	0	0	0	1438.08	0.641311	0.641653	3.82436	15	2.79468	11	0	38.0048	0.00245391
2	1	0	0	0	0	1440.58	0.653812	0.654111	4.5841	15	2.80519	11	0	40.5052	0.00299851
2	1	0	0	0	0	1443.08	0.666314	0.666654	5.37899	15	2.81763	11	0	43.0056	0.00358593
2	1	0	1	0	0	1445.58	0.678816	0.679101	6.20862	15	2.83211	11	0	45.5058	0.00421628
2	1	0	1	0	0	1448.08	0.691317	0.691587	7.03915	15	2.84867	11	0	48.0062	0.00486819
2	1	0	1	0	0	1450.38	0.697168	0.697474	7.42228	15	2.86564	11	0	50.3026	0.00517685
2	1	0	1	0	0	1452.88	0.684666	0.684963	6.49969	15	2.88303	11	0	52.803	0.00445205
2	1	0	1	0	0	1455.38	0.672165	0.672422	5.61962	15	2.89816	11	0	55.3034	0.00377876
2	1	0	0	0	0	1457.88	0.659663	0.659961	4.78778	15	2.91115	11	0	57.8036	0.00315975
2	1	0	0	0	0	1460.38	0.647162	0.64742	3.99789	15	2.92211	11	0	60.304	0.00258831
2	1	0	0	0	0	1462.88	0.63466	0.634979	3.2579	15	2.93117	11	0	62.8044	0.0020687
2	1	0	1	0	0	1465.38	0.622158	0.62245	2.59169	15	2.93846	11	0	65.3046	0.0016132
2	1	0	1	0	0	1467.88	0.609657	0.609943	1.98385	15	2.94417	11	0	67.805	0.00121004
2	1	0	0	0	0	1470.38	0.597155	0.597433	1.44177	15	2.94843	11	0	70.3052	0.000861362
2	1	0	0	0	0	1472.88	0.584653	0.584877	0.984228	15	2.95145	11	0	72.8056	0.000575652
2	1	0	0	0	0	1475.38	0.572152	0.572459	0.627561	15	2.95344	11	0	75.306	0.000359253
2	1	0	1	0	0	1477.88	0.55965	0.559909	0.367761	15	2.95467	11	0	77.8062	0.000205913
2	1	0	1	0	0	1480.38	0.547149	0.547507	0.188725	15	2.95535	11	0	80.3066	0.000103328
2	1	0	1	0	0	1482.88	0.534647	0.534901	0.0738857	15	2.95566	11	0	82.8069	3.95215e-05
2	1	0	0	0	0	1485.38	0.522145	0.522435	0.0043505	15	2.95575	11	0	85.3072	2.27285e-06
2	0	0	0	0	0	1487.88	0.509644	0.509807	-0.0370492	15	2.95569	11	0	2.3004	-1.88879e-05
2	0	0	1	0	0	1490.39	0.497142	0.497432	-0.0613904	15	2.95556	11	0	4.8006	-3.05376e-05
2	0	0	1	0	0	1492.89	0.484641	0.484941	-0.0766646	15	2.95539	11	0	7.301	-3.71778e-05
2	0	0	1	0	0	1495.39	0.472139	0.472475	-0.0868697	15	2.95518	11	0	9.8014	-4.10438e-05
2	0	0	0	0	0	1497.89	0.459637	0.459857	-0.0943989	15	2.95496	11	0	12.3016	-4.341e-05
2	0	0	0	0	0	1499.81	0.450011	0.450293	-0.104535	15	2.95478	11	0	14.2242	-4.70715e-05