File: ACS_Catal_2026/Figures_Na_K/main_figures/data/EC/20240126_2-102_Add_Na/20240125_2-102_010_K_elctrode4_C02.mpt
EC-Lab ASCII FILE
Nb header lines : 66

Cyclic Voltammetry Advanced

Run on channel : 2 (SN 66414)
User :
CE vs. WE compliance from -10 V to 10 V
Electrode connection : standard
Potential control : Ewe
Ewe ctrl range : min = -1.00 V, max = 1.00 V
Safety Limits :
	Do not start on E overload
Acquisition started on : 01/26/2024 17:20:27.256
Loaded Setting File :  C:\Users\NakamuraT\Documents\EC-Lab\Data\Yatsuzuka\20240126_2-102_Add_Na\20240125_2-102_003_K_elctrode1.mps
Saved on :
	File : 20240125_2-102_010_K_elctrode4_C02.mpr
	Directory : C:\Users\NakamuraT\Documents\EC-Lab\Data\Yatsuzuka\20240126_2-102_Add_Na\
	Host : 192.109.209.100
Device : SP-150e (SN .003411)
Address : 192.109.209.236
EC-Lab for windows v11.50 (software)
Internet server v11.50 (firmware)
Command interpretor v11.50 (firmware)
Electrode material :
Initial state :
Electrolyte :
Comments :
Electrode surface area : 0.001 cm2
Characteristic mass : 0.001 g
Equivalent Weight : 0.000 g/eq.
Density : 0.000 g/cm3
Volume (V) : 0.001 cm3
Cycle Definition : Charge/Discharge alternance
Ei (V)              0.450
vs.                 Ref
ti (h:m:s)          0:00:10.0000
dti (s)             0.0000
dE/dt               5.000
dE/dt unit          mV/s
E1 (V)              0.700
vs.                 Ref
t1 (h:m:s)          0:00:0.0000
dt1 (s)             0.1000
Step percent        50
N                   10
E range min (V)     -1.000
E range max (V)     1.000
I Range             10 mA
I Range min         Unset
I Range max         Unset
I Range init        Unset
Bandwidth           5
E2 (V)              0.450
vs.                 Ref
t2 (h:m:s)          0:00:0.0000
dt2 (s)             0.1000
nc cycles           14
nr                  1
Reverse Scan        0
Ef (V)              0.000
vs.                 Eoc
tf (h:m:s)          0:00:0.0000
dtf (s)             0.1000

mode	ox/red	error	control changes	Ns changes	counter inc.	time/s	control/V	Ewe/V	<I>/mA	cycle number	(Q-Qo)/C	I Range	Ns	step time/s	P/W
2	1	0	0	0	0	0.000000000000000E+000	0.449961	0.450369	0.00709824	1	0.0000000E+000	11	0	0.000000000000000E+000	3.19683e-06
2	1	0	1	0	0	2.4552	0.462238	0.462512	0.142122	1	0.000307846	11	0	2.4002	6.5733e-05
2	1	0	1	0	0	4.9556	0.474739	0.474989	0.156697	1	0.000680424	11	0	4.9006	7.44295e-05
2	1	0	0	0	0	7.4558	0.487241	0.487584	0.179637	1	0.00110248	11	0	7.4008	8.75882e-05
2	1	0	0	0	0	9.9562	0.499743	0.500075	0.217177	1	0.00160094	11	0	9.9012	0.000108605
2	1	0	0	0	0	12.4566	0.512244	0.512563	0.276357	1	0.00221662	11	0	12.4016	0.00014165
2	1	0	1	0	0	14.9568	0.524746	0.525065	0.367201	1	0.00301263	11	0	14.9018	0.000192804
2	1	0	1	0	0	17.4572	0.537247	0.537567	0.503053	1	0.00408502	11	0	17.4022	0.000270425
2	1	0	1	0	0	19.9575	0.549749	0.550016	0.70202	1	0.00557403	11	0	19.9025	0.000386122
2	1	0	0	0	0	22.4578	0.562251	0.562549	0.98497	1	0.00766828	11	0	22.4028	0.000554094
2	1	0	0	0	0	24.9582	0.574752	0.57517	1.36443	1	0.0105925	11	0	24.9032	0.000784781
2	1	0	1	0	0	27.4584	0.587254	0.587508	1.835	1	0.0145745	11	0	27.4034	0.00107808
2	1	0	1	0	0	29.9588	0.599755	0.600071	2.3944	1	0.0198435	11	0	29.9038	0.00143681
2	1	0	1	0	0	32.4592	0.612257	0.612509	3.01441	1	0.0265965	11	0	32.4042	0.00184635
2	1	0	0	0	0	34.9594	0.624759	0.625171	3.69096	1	0.0349779	11	0	34.9044	0.00230748
2	1	0	0	0	0	37.4598	0.63726	0.637629	4.41668	1	0.0451075	11	0	37.4048	0.0028162
2	1	0	1	0	0	39.96	0.649762	0.650142	5.19265	1	0.0571042	11	0	39.905	0.00337596
2	1	0	1	0	0	42.4604	0.662264	0.662595	5.99439	1	0.0710808	11	0	42.4054	0.00397185
2	1	0	1	0	0	44.9608	0.674765	0.675116	6.82671	1	0.0871233	11	0	44.9058	0.00460882
2	1	0	0	0	0	47.461	0.687267	0.687528	7.65889	1	0.105236	11	0	47.406	0.0052657
2	1	0	0	0	0	49.9564	0.699743	0.699968	8.49964	1	0.125399	11	0	49.9014	0.00594947
2	1	0	1	0	0	52.268	0.688667	0.688979	7.64993	1	0.144058	11	0	52.213	0.00527064
2	1	0	0	0	0	54.7682	0.676165	0.67645	6.71077	1	0.162003	11	0	54.7132	0.0045395
2	1	0	0	0	0	57.2686	0.663664	0.663924	5.88362	1	0.177737	11	0	57.2136	0.00390628
2	1	0	1	0	0	59.7688	0.651162	0.651498	5.02406	1	0.191355	11	0	59.7138	0.00327317
2	1	0	1	0	0	62.2692	0.63866	0.63896	4.21472	1	0.202903	11	0	62.2142	0.00269304
2	1	0	1	0	0	64.7696	0.626159	0.62651	3.45867	1	0.212472	11	0	64.7146	0.00216689
2	1	0	0	0	0	67.2698	0.613657	0.613963	2.75025	1	0.220222	11	0	67.2148	0.00168855
2	1	0	0	0	0	69.7702	0.601156	0.601355	2.12026	1	0.226296	11	0	69.7152	0.00127503
2	1	0	1	0	0	72.2705	0.588654	0.588916	1.56558	1	0.230881	11	0	72.2155	0.000921993
2	1	0	1	0	0	74.7708	0.576152	0.576396	1.08791	1	0.234173	11	0	74.7158	0.000627064
2	1	0	1	0	0	77.2712	0.563651	0.563894	0.702341	1	0.236389	11	0	77.2162	0.000396046
2	1	0	0	0	0	79.7714	0.551149	0.551423	0.418759	1	0.237776	11	0	79.7164	0.000230913
2	1	0	0	0	0	82.2718	0.538647	0.538966	0.221999	1	0.23856	11	0	82.2168	0.00011965
2	1	0	0	0	0	84.7722	0.526146	0.526485	0.0907441	1	0.238933	11	0	84.7172	4.77754e-05
2	1	0	1	0	0	87.2724	0.513644	0.513956	0.00715026	1	0.239045	11	0	87.2174	3.67492e-06
2	0	0	1	0	0	89.7728	0.501143	0.501355	-0.041324	1	0.239001	11	0	2.1003	-2.0718e-05
2	0	0	0	0	0	92.273	0.488641	0.488973	-0.0667723	1	0.238865	11	0	4.6005	-3.26499e-05
2	0	0	0	0	0	94.7734	0.476139	0.476459	-0.0815302	1	0.238674	11	0	7.1009	-3.88458e-05
2	0	0	0	0	0	97.2738	0.463638	0.463934	-0.0932694	1	0.238451	11	0	9.6013	-4.32709e-05
2	0	0	1	0	0	99.774	0.451136	0.451492	-0.103196	1	0.238205	11	0	12.1015	-4.65923e-05
2	1	0	1	0	1	102.152	0.460787	0.461133	0.101591	2	0.238353	11	0	1.9002	4.68471e-05
2	1	0	1	0	1	104.652	0.473289	0.473506	0.109179	2	0.238622	11	0	4.4006	5.16971e-05
2	1	0	0	0	1	107.152	0.485791	0.486095	0.120955	2	0.23891	11	0	6.9008	5.87955e-05
2	1	0	0	0	1	109.653	0.498292	0.498589	0.139872	2	0.239231	11	0	9.4012	6.97387e-05
2	1	0	1	0	1	112.153	0.510794	0.511129	0.171984	2	0.239612	11	0	11.9014	8.79059e-05
2	1	0	1	0	1	114.653	0.523296	0.523564	0.229445	2	0.240104	11	0	14.4018	0.000120129
2	1	0	1	0	1	117.154	0.535797	0.536096	0.328909	2	0.240792	11	0	16.9022	0.000176327
2	1	0	0	0	1	119.654	0.548299	0.548659	0.494386	2	0.241811	11	0	19.4024	0.000271249
2	1	0	0	0	1	122.154	0.5608	0.561164	0.746914	2	0.243349	11	0	21.9028	0.000419141
2	1	0	0	0	1	124.655	0.573302	0.573597	1.09766	2	0.245634	11	0	24.4032	0.000629617
2	1	0	1	0	1	127.155	0.585804	0.586101	1.54636	2	0.248918	11	0	26.9034	0.000906324
2	1	0	1	0	1	129.655	0.598305	0.598551	2.08416	2	0.253438	11	0	29.4038	0.00124748
2	1	0	0	0	1	132.156	0.610807	0.611082	2.69681	2	0.259402	11	0	31.904	0.00164797
2	1	0	0	0	1	134.656	0.623308	0.623606	3.37326	2	0.266978	11	0	34.4044	0.00210359
2	1	0	0	0	1	137.156	0.63581	0.63617	4.12021	2	0.276345	11	0	36.9048	0.00262115
2	1	0	1	0	1	139.657	0.648312	0.64866	4.88597	2	0.287598	11	0	39.405	0.00316933
2	1	0	1	0	1	142.157	0.660813	0.661143	5.68629	2	0.300821	11	0	41.9054	0.00375945
2	1	0	0	0	1	144.657	0.673315	0.673555	6.49579	2	0.316044	11	0	44.4056	0.00437528
2	1	0	0	0	1	147.158	0.685817	0.686215	7.31557	2	0.333312	11	0	46.906	0.00502005
2	1	0	0	0	1	149.658	0.698318	0.698673	8.22134	2	0.352692	11	0	49.4064	0.00574402
2	1	0	0	0	1	151.954	0.690167	0.690479	7.58358	2	0.371079	11	0	51.7028	0.00523631
2	1	0	0	0	1	154.455	0.677665	0.678006	6.68552	2	0.388888	11	0	54.2032	0.00453282
2	1	0	0	0	1	156.955	0.665164	0.6654	5.79293	2	0.404474	11	0	56.7036	0.00385462
2	1	0	1	0	1	159.455	0.652662	0.652865	4.98566	2	0.417926	11	0	59.2038	0.00325496
2	1	0	1	0	1	161.956	0.640161	0.640448	4.20793	2	0.429406	11	0	61.7042	0.00269496
2	1	0	0	0	1	164.456	0.627659	0.628054	3.443	2	0.438954	11	0	64.2044	0.00216239
2	1	0	0	0	1	166.956	0.615157	0.615484	2.76275	2	0.446695	11	0	66.7048	0.00170043
2	1	0	0	0	1	169.457	0.602656	0.602927	2.11429	2	0.452769	11	0	69.2052	0.00127476
2	1	0	1	0	1	171.957	0.590154	0.590454	1.55726	2	0.457342	11	0	71.7054	0.000919493
2	1	0	1	0	1	174.457	0.577653	0.577866	1.0796	2	0.460624	11	0	74.2058	0.000623864
2	1	0	1	0	1	176.958	0.565151	0.565413	0.701686	2	0.462834	11	0	76.7062	0.000396743
2	1	0	0	0	1	179.458	0.552649	0.553055	0.415003	2	0.464207	11	0	79.2064	0.000229519
2	1	0	0	0	1	181.958	0.540148	0.540511	0.215934	2	0.464973	11	0	81.7068	0.000116715
2	1	0	1	0	1	184.459	0.527646	0.527915	0.0876745	2	0.465336	11	0	84.207	4.62847e-05
2	1	0	1	0	1	186.959	0.515144	0.515417	0.00699574	2	0.465441	11	0	86.7074	3.60573e-06
2	0	0	1	0	1	189.459	0.502643	0.502891	-0.0421353	2	0.465392	11	0	2.1004	-2.11895e-05
2	0	0	0	0	1	191.96	0.490141	0.490459	-0.0697433	2	0.465254	11	0	4.6006	-3.42063e-05
2	0	0	0	0	1	194.46	0.47764	0.477947	-0.0842655	2	0.465062	11	0	7.101	-4.02744e-05
2	0	0	1	0	1	196.96	0.465138	0.465423	-0.0928945	2	0.464838	11	0	9.6013	-4.32353e-05
2	0	0	1	0	1	199.461	0.452636	0.45304	-0.0995923	2	0.464592	11	0	12.1016	-4.51192e-05
2	1	0	1	0	0	201.838	0.459287	0.459563	0.101286	3	0.464672	11	0	1.6002	4.65474e-05
2	1	0	0	0	0	204.339	0.471789	0.47204	0.107511	3	0.464929	11	0	4.1004	5.07493e-05
2	1	0	0	0	0	206.839	0.48429	0.484466	0.113137	3	0.465203	11	0	6.6008	5.48112e-05
2	1	0	0	0	0	209.339	0.496792	0.497141	0.126273	3	0.465505	11	0	9.1012	6.27756e-05
2	1	0	1	0	0	211.84	0.509294	0.509712	0.154699	3	0.465858	11	0	11.6014	7.88522e-05
2	1	0	1	0	0	214.34	0.521795	0.522117	0.207938	3	0.466306	11	0	14.1018	0.000108568
2	1	0	0	0	0	216.84	0.534297	0.534587	0.298667	3	0.466925	11	0	16.602	0.000159663
2	1	0	0	0	0	219.341	0.546799	0.547015	0.446841	3	0.467839	11	0	19.1024	0.000244429
2	1	0	0	0	0	221.841	0.5593	0.559636	0.67387	3	0.469223	11	0	21.6028	0.000377122
2	1	0	1	0	0	224.341	0.571802	0.572131	0.998762	3	0.471299	11	0	24.103	0.000571423
2	1	0	1	0	0	226.842	0.584303	0.584675	1.42552	3	0.474317	11	0	26.6034	0.000833466
2	1	0	1	0	0	229.342	0.596805	0.597087	1.94624	3	0.478517	11	0	29.1038	0.00116207
2	1	0	0	0	0	231.842	0.609307	0.609585	2.54897	3	0.484124	11	0	31.604	0.00155382
2	1	0	0	0	0	234.343	0.621808	0.622053	3.21517	3	0.491317	11	0	34.1044	0.00200001
2	1	0	1	0	0	236.843	0.63431	0.634649	3.94304	3	0.50025	11	0	36.6046	0.00250245
2	1	0	1	0	0	239.343	0.646811	0.647244	4.71362	3	0.511077	11	0	39.105	0.00305086
2	1	0	1	0	0	241.844	0.659313	0.659455	5.49025	3	0.523838	11	0	41.6054	0.00362057
2	1	0	0	0	0	244.344	0.671815	0.672129	6.28371	3	0.538555	11	0	44.1056	0.00422347
2	1	0	0	0	0	246.844	0.684316	0.684658	7.16063	3	0.555351	11	0	46.606	0.00490258
2	1	0	1	0	0	249.344	0.696818	0.697095	8.07577	3	0.574404	11	0	49.1063	0.00562958
2	1	0	0	0	0	251.641	0.691667	0.691875	7.64639	3	0.592844	11	0	51.4028	0.00529034
2	1	0	0	0	0	254.141	0.679166	0.679541	6.70658	3	0.610771	11	0	53.9032	0.00455739
2	1	0	1	0	0	256.642	0.666664	0.667069	5.8457	3	0.626455	11	0	56.4034	0.00389949
2	1	0	1	0	0	259.142	0.654162	0.654485	5.02403	3	0.640032	11	0	58.9038	0.00328815
2	1	0	1	0	0	261.642	0.641661	0.641944	4.24312	3	0.651622	11	0	61.4042	0.00272384
2	1	0	0	0	0	264.143	0.629159	0.629438	3.49038	3	0.661284	11	0	63.9044	0.00219698
2	1	0	0	0	0	266.643	0.616658	0.616924	2.78488	3	0.669106	11	0	66.4048	0.00171806
2	1	0	1	0	0	269.143	0.604156	0.604412	2.14613	3	0.675259	11	0	68.9051	0.00129715
2	1	0	1	0	0	271.644	0.591654	0.591865	1.58297	3	0.679903	11	0	71.4054	0.000936904
2	1	0	1	0	0	274.144	0.579153	0.579485	1.0997	3	0.68324	11	0	73.9058	0.000637258
2	1	0	0	0	0	276.644	0.566651	0.567034	0.71197	3	0.685487	11	0	76.406	0.000403711
2	1	0	0	0	0	279.145	0.55415	0.554416	0.422861	3	0.686891	11	0	78.9064	0.000234441
2	1	0	0	0	0	281.645	0.541648	0.54193	0.220014	3	0.687681	11	0	81.4068	0.000119232
2	1	0	1	0	0	284.145	0.529146	0.529397	0.0900444	3	0.688057	11	0	83.907	4.76693e-05
2	1	0	1	0	0	286.646	0.516645	0.516963	0.0109428	3	0.688172	11	0	86.4074	5.65701e-06
2	0	0	0	0	0	289.146	0.504143	0.504467	-0.036187	3	0.68813	11	0	2.0002	-1.82552e-05
2	0	0	0	0	0	291.646	0.491641	0.491947	-0.0641058	3	0.687997	11	0	4.5006	-3.15367e-05
2	0	0	0	0	0	294.147	0.47914	0.479508	-0.0826054	3	0.687809	11	0	7.001	-3.961e-05
2	0	0	1	0	0	296.647	0.466638	0.466923	-0.0907633	3	0.687587	11	0	9.5012	-4.23795e-05
2	0	0	1	0	0	299.147	0.454137	0.454449	-0.0982351	3	0.687343	11	0	12.0016	-4.46428e-05
2	1	0	1	0	1	301.525	0.457787	0.458074	0.0983784	4	0.687363	11	0	1.3002	4.50646e-05
2	1	0	0	0	1	304.025	0.470289	0.470582	0.105429	4	0.687614	11	0	3.8004	4.9613e-05
2	1	0	0	0	1	306.526	0.48279	0.483076	0.112766	4	0.68788	11	0	6.3008	5.44745e-05
2	1	0	1	0	1	309.026	0.495292	0.495613	0.12261	4	0.688171	11	0	8.801	6.0767e-05
2	1	0	1	0	1	311.526	0.507794	0.508044	0.14542	4	0.688506	11	0	11.3014	7.38797e-05
2	1	0	1	0	1	314.027	0.520295	0.520538	0.191943	4	0.688927	11	0	13.8018	9.99136e-05
2	1	0	0	0	1	316.527	0.532797	0.533155	0.273763	4	0.689502	11	0	16.302	0.000145958
2	1	0	0	0	1	319.027	0.545298	0.545527	0.411204	4	0.690346	11	0	18.8024	0.000224323
2	1	0	1	0	1	321.527	0.5578	0.55797	0.625833	4	0.691622	11	0	21.3027	0.000349195
2	1	0	1	0	1	324.028	0.570302	0.570735	0.933749	4	0.693548	11	0	23.803	0.000532923
2	1	0	1	0	1	326.528	0.582803	0.58308	1.34292	4	0.696371	11	0	26.3034	0.000783029
2	1	0	0	0	1	329.028	0.595305	0.595629	1.8458	4	0.700336	11	0	28.8036	0.00109941
2	1	0	0	0	1	331.529	0.607807	0.608089	2.43339	4	0.705668	11	0	31.304	0.00147972
2	1	0	0	0	1	334.029	0.620308	0.620577	3.08309	4	0.712552	11	0	33.8044	0.00191329
2	1	0	1	0	1	336.529	0.63281	0.633123	3.78588	4	0.721128	11	0	36.3046	0.00239693
2	1	0	1	0	1	339.03	0.645311	0.645526	4.54031	4	0.731526	11	0	38.805	0.00293089
2	1	0	1	0	1	341.53	0.657813	0.658147	5.32816	4	0.743861	11	0	41.3053	0.00350671
2	1	0	0	0	1	344.03	0.670314	0.670716	6.14278	4	0.758201	11	0	43.8056	0.00412006
2	1	0	0	0	1	346.531	0.682816	0.683045	6.99822	4	0.774622	11	0	46.306	0.0047801
2	1	0	1	0	1	349.031	0.695318	0.695703	7.88343	4	0.793251	11	0	48.8062	0.00548453
2	1	0	0	0	1	351.328	0.693167	0.693505	7.6466	4	0.811544	11	0	51.1028	0.00530296
2	1	0	0	0	1	353.828	0.680666	0.680946	6.74365	4	0.829501	11	0	53.6032	0.00459206
2	1	0	1	0	1	356.328	0.668164	0.668438	5.9087	4	0.845329	11	0	56.1034	0.0039496
2	1	0	1	0	1	358.829	0.655663	0.655897	5.08315	4	0.859044	11	0	58.6038	0.00333402
2	1	0	0	0	1	361.329	0.643161	0.643503	4.29521	4	0.870751	11	0	61.104	0.00276398
2	1	0	0	0	1	363.829	0.630659	0.630976	3.53204	4	0.880526	11	0	63.6044	0.00222863
2	1	0	0	0	1	366.33	0.618158	0.61849	2.81613	4	0.888443	11	0	66.1048	0.00174175
2	1	0	1	0	1	368.83	0.605656	0.60601	2.16754	4	0.894654	11	0	68.605	0.00131355
2	1	0	1	0	1	371.33	0.593154	0.59348	1.61277	4	0.899367	11	0	71.1054	0.000957145
2	1	0	1	0	1	373.83	0.580653	0.580962	1.12208	4	0.90277	11	0	73.6057	0.000651887
2	1	0	0	0	1	376.331	0.568151	0.568428	0.729222	4	0.905063	11	0	76.106	0.000414511
2	1	0	0	0	1	378.831	0.55565	0.555858	0.438672	4	0.906509	11	0	78.6064	0.000243839
2	1	0	1	0	1	381.331	0.543148	0.543433	0.230152	4	0.907332	11	0	81.1066	0.000125072
2	1	0	1	0	1	383.832	0.530646	0.531003	0.0946452	4	0.90773	11	0	83.607	5.02568e-05
2	1	0	1	0	1	386.332	0.518145	0.518521	0.0118586	4	0.907859	11	0	86.1074	6.14896e-06
2	0	0	0	0	1	388.832	0.505643	0.505951	-0.0361491	4	0.907825	11	0	1.8002	-1.82897e-05
2	0	0	0	0	1	391.333	0.493142	0.493426	-0.0641691	4	0.907696	11	0	4.3006	-3.16627e-05
2	0	0	1	0	1	393.833	0.48064	0.480886	-0.0794831	4	0.907511	11	0	6.8009	-3.82223e-05
2	0	0	1	0	1	396.333	0.468138	0.468396	-0.0897071	4	0.907293	11	0	9.3012	-4.20185e-05
2	0	0	1	0	1	398.834	0.455637	0.455882	-0.096855	4	0.907054	11	0	11.8016	-4.41544e-05
2	1	0	0	0	0	401.211	0.456287	0.456688	0.0957742	5	0.907015	11	0	1	4.3739e-05
2	1	0	0	0	0	403.712	0.468788	0.469023	0.103221	5	0.90726	11	0	3.5004	4.84131e-05
2	1	0	0	0	0	406.212	0.48129	0.481551	0.109794	5	0.907521	11	0	6.0008	5.28716e-05
2	1	0	1	0	0	408.712	0.493792	0.4941	0.121181	5	0.907803	11	0	8.501	5.98755e-05
2	1	0	1	0	0	411.213	0.506293	0.506584	0.143347	5	0.908126	11	0	11.0014	7.26175e-05
2	1	0	1	0	0	413.713	0.518795	0.519001	0.184762	5	0.908525	11	0	13.5017	9.58916e-05
2	1	0	0	0	0	416.213	0.531297	0.531667	0.258145	5	0.909065	11	0	16.002	0.000137247
2	1	0	0	0	0	418.714	0.543798	0.544145	0.383159	5	0.909849	11	0	18.5024	0.000208494
2	1	0	1	0	0	421.214	0.5563	0.556656	0.580557	5	0.911032	11	0	21.0026	0.00032317
2	1	0	1	0	0	423.714	0.568801	0.569112	0.86924	5	0.912823	11	0	23.503	0.000494695
2	1	0	1	0	0	426.215	0.581303	0.581617	1.25931	5	0.915463	11	0	26.0034	0.000732433
2	1	0	0	0	0	428.715	0.593805	0.594047	1.74715	5	0.919205	11	0	28.5036	0.00103789
2	1	0	0	0	0	431.215	0.606306	0.606658	2.31578	5	0.924274	11	0	31.004	0.00140489
2	1	0	1	0	0	433.716	0.618808	0.619099	2.95573	5	0.930859	11	0	33.5042	0.00182989
2	1	0	1	0	0	436.216	0.63131	0.631611	3.6575	5	0.939122	11	0	36.0046	0.00231011
2	1	0	1	0	0	438.716	0.643811	0.644155	4.41961	5	0.949229	11	0	38.505	0.00284691
2	1	0	0	0	0	441.217	0.656313	0.656624	5.21117	5	0.961263	11	0	41.0052	0.00342178
2	1	0	0	0	0	443.717	0.668814	0.669088	6.01921	5	0.975303	11	0	43.5056	0.00402738
2	1	0	0	0	0	446.217	0.681316	0.681663	6.89608	5	0.991417	11	0	46.006	0.00470081
2	1	0	1	0	0	448.718	0.693818	0.694019	7.77914	5	1.00976	11	0	48.5062	0.00539887
2	1	0	0	0	0	451.014	0.694668	0.694872	7.76769	5	1.02811	11	0	50.8028	0.00539755
2	1	0	1	0	0	453.514	0.682166	0.68251	6.79518	5	1.04629	11	0	53.303	0.00463778
2	1	0	1	0	0	456.015	0.669664	0.66988	5.93529	5	1.06217	11	0	55.8034	0.00397594
2	1	0	1	0	0	458.515	0.657163	0.657527	5.12638	5	1.07601	11	0	58.3038	0.00337074
2	1	0	0	0	0	461.015	0.644661	0.645017	4.31517	5	1.0878	11	0	60.804	0.00278336
2	1	0	0	0	0	463.516	0.63216	0.632464	3.57198	5	1.09766	11	0	63.3044	0.00225915
2	1	0	1	0	0	466.016	0.619658	0.619936	2.89046	5	1.10573	11	0	65.8047	0.0017919
2	1	0	1	0	0	468.516	0.607156	0.607502	2.23881	5	1.11212	11	0	68.305	0.00136008
2	1	0	1	0	0	471.017	0.594655	0.594982	1.66216	5	1.11698	11	0	70.8054	0.000988957
2	1	0	0	0	0	473.517	0.582153	0.582405	1.16537	5	1.12051	11	0	73.3056	0.000678719
2	1	0	0	0	0	476.017	0.569652	0.56999	0.764482	5	1.1229	11	0	75.806	0.000435747
2	1	0	0	0	0	478.518	0.55715	0.55742	0.460907	5	1.12441	11	0	78.3064	0.000256919
2	1	0	1	0	0	481.018	0.544648	0.544886	0.247268	5	1.12528	11	0	80.8066	0.000134733
2	1	0	1	0	0	483.518	0.532147	0.532508	0.105924	5	1.12571	11	0	83.307	5.64053e-05
2	1	0	0	0	0	486.019	0.519645	0.519884	0.0201446	5	1.12586	11	0	85.8072	1.04729e-05
2	0	0	0	0	0	488.519	0.507143	0.507478	-0.030923	5	1.12584	11	0	1.6002	-1.56928e-05
2	0	0	0	0	0	491.019	0.494642	0.49494	-0.0596949	5	1.12572	11	0	4.1006	-2.95454e-05
2	0	0	1	0	0	493.52	0.48214	0.482463	-0.0775305	5	1.12554	11	0	6.6008	-3.74056e-05
2	0	0	1	0	0	496.02	0.469639	0.469877	-0.0890408	5	1.12532	11	0	9.1012	-4.18382e-05
2	0	0	1	0	0	498.52	0.457137	0.457427	-0.0966957	5	1.12509	11	0	11.6016	-4.42313e-05
2	1	0	0	0	1	500.898	0.454787	0.455142	0.0889531	6	1.12499	11	0	0.7	4.04863e-05
2	1	0	0	0	1	503.398	0.467288	0.467564	0.0992679	6	1.12523	11	0	3.2004	4.64141e-05
2	1	0	1	0	1	505.899	0.47979	0.480087	0.10534	6	1.12549	11	0	5.7006	5.05725e-05
2	1	0	1	0	1	508.399	0.492292	0.492633	0.115761	6	1.12577	11	0	8.201	5.70278e-05
2	1	0	1	0	1	510.899	0.504793	0.505038	0.135491	6	1.12608	11	0	10.7014	6.84278e-05
2	1	0	0	0	1	513.4	0.517295	0.517605	0.172327	6	1.12646	11	0	13.2016	8.91973e-05
2	1	0	0	0	1	515.9	0.529796	0.530041	0.239268	6	1.12697	11	0	15.702	0.000126822
2	1	0	1	0	1	518.4	0.542298	0.542602	0.35384	6	1.1277	11	0	18.2024	0.000191995
2	1	0	1	0	1	520.901	0.5548	0.554993	0.538642	6	1.1288	11	0	20.7026	0.000298943
2	1	0	1	0	1	523.401	0.567301	0.567612	0.812657	6	1.13048	11	0	23.203	0.000461274
2	1	0	0	0	1	525.901	0.579803	0.58009	1.1861	6	1.13296	11	0	25.7032	0.000688042
2	1	0	0	0	1	528.402	0.592304	0.5926	1.65738	6	1.1365	11	0	28.2036	0.000982164
2	1	0	0	0	1	530.902	0.604806	0.60513	2.2161	6	1.14133	11	0	30.704	0.00134103
2	1	0	1	0	1	533.402	0.617308	0.61757	2.84638	6	1.14765	11	0	33.2042	0.00175784
2	1	0	1	0	1	535.903	0.629809	0.63013	3.5309	6	1.15562	11	0	35.7046	0.00222492
2	1	0	0	0	1	538.403	0.642311	0.642633	4.27413	6	1.16537	11	0	38.2048	0.0027467
2	1	0	0	0	1	540.903	0.654813	0.655107	5.05129	6	1.17702	11	0	40.7052	0.00330914
2	1	0	0	0	1	543.404	0.667314	0.667592	5.85082	6	1.19064	11	0	43.2056	0.00390596
2	1	0	1	0	1	545.904	0.679816	0.680115	6.70289	6	1.20634	11	0	45.7058	0.00455873
2	1	0	1	0	1	548.404	0.692317	0.692679	7.55293	6	1.22414	11	0	48.2062	0.00523175
2	1	0	0	0	1	550.701	0.696168	0.696411	7.77229	6	1.24218	11	0	50.5028	0.00541271
2	1	0	1	0	1	553.201	0.683666	0.683941	6.83852	6	1.26043	11	0	53.003	0.00467715
2	1	0	1	0	1	555.701	0.671165	0.671358	5.96405	6	1.27642	11	0	55.5034	0.00400401
2	1	0	0	0	1	558.202	0.658663	0.658932	5.159	6	1.29031	11	0	58.0036	0.00339943
2	1	0	0	0	1	560.702	0.646161	0.646455	4.37059	6	1.30219	11	0	60.504	0.00282539
2	1	0	0	0	1	563.202	0.63366	0.633898	3.60716	6	1.31216	11	0	63.0044	0.00228657
2	1	0	1	0	1	565.703	0.621158	0.621498	2.89103	6	1.32026	11	0	65.5046	0.00179677
2	1	0	1	0	1	568.203	0.608657	0.608889	2.25147	6	1.32667	11	0	68.005	0.00137089
2	1	0	1	0	1	570.703	0.596154	0.596449	1.67831	6	1.33156	11	0	70.5054	0.00100103
2	1	0	0	0	1	573.204	0.583653	0.583911	1.18626	6	1.33512	11	0	73.0056	0.000692673
2	1	0	0	0	1	575.704	0.571152	0.571417	0.78992	6	1.33756	11	0	75.506	0.000451374
2	1	0	1	0	1	578.204	0.55865	0.558857	0.483095	6	1.33913	11	0	78.0062	0.000269981
2	1	0	1	0	1	580.705	0.546148	0.546568	0.261359	6	1.34004	11	0	80.5066	0.00014285
2	1	0	1	0	1	583.205	0.533647	0.533952	0.115076	6	1.34049	11	0	83.007	6.1445e-05
2	1	0	0	0	1	585.705	0.521145	0.521433	0.023815	6	1.34066	11	0	85.5072	1.24179e-05
2	0	0	0	0	1	588.206	0.508644	0.508894	-0.0307552	6	1.34065	11	0	1.4002	-1.56512e-05
2	0	0	1	0	1	590.706	0.496142	0.496365	-0.0622012	6	1.34053	11	0	3.9005	-3.08745e-05
2	0	0	1	0	1	593.206	0.48364	0.483919	-0.0801491	6	1.34036	11	0	6.4008	-3.87857e-05
2	0	0	1	0	1	595.707	0.471139	0.471469	-0.0913699	6	1.34015	11	0	8.9012	-4.30781e-05
2	0	0	0	0	1	598.207	0.458637	0.458984	-0.0989398	6	1.33991	11	0	11.4014	-4.54118e-05
2	1	0	0	0	0	600.585	0.453286	0.453652	0.0783587	7	1.33976	11	0	0.4	3.55476e-05
2	1	0	0	0	0	603.085	0.465788	0.466102	0.0966539	7	1.34	11	0	2.9004	4.50505e-05
2	1	0	1	0	0	605.585	0.47829	0.478385	0.102384	7	1.34025	11	0	5.4006	4.89791e-05
2	1	0	1	0	0	608.086	0.490791	0.490993	0.112144	7	1.34052	11	0	7.901	5.50622e-05
2	1	0	0	0	0	610.586	0.503293	0.503661	0.129883	7	1.34082	11	0	10.4012	6.54171e-05
2	1	0	0	0	0	613.086	0.515795	0.516122	0.163342	7	1.34119	11	0	12.9016	8.43044e-05
2	1	0	0	0	0	615.587	0.528296	0.52858	0.224821	7	1.34167	11	0	15.402	0.000118836
2	1	0	1	0	0	618.087	0.540798	0.541139	0.330284	7	1.34236	11	0	17.9022	0.000178729
2	1	0	1	0	0	620.587	0.553299	0.55365	0.501518	7	1.34338	11	0	20.4026	0.000277665
2	1	0	1	0	0	623.088	0.565801	0.56611	0.760072	7	1.34494	11	0	22.903	0.000430284
2	1	0	0	0	0	625.588	0.578303	0.57872	1.11743	7	1.34728	11	0	25.4032	0.000646678
2	1	0	0	0	0	628.088	0.590804	0.591027	1.57371	7	1.35063	11	0	27.9036	0.000930102
2	1	0	1	0	0	630.588	0.603306	0.60359	2.1202	7	1.35523	11	0	30.4038	0.00127973
2	1	0	1	0	0	633.089	0.615807	0.616135	2.74824	7	1.36131	11	0	32.9042	0.00169329
2	1	0	1	0	0	635.589	0.628309	0.628587	3.44004	7	1.36903	11	0	35.4046	0.00216236
2	1	0	0	0	0	638.089	0.640811	0.641214	4.18257	7	1.37856	11	0	37.9048	0.00268192
2	1	0	0	0	0	640.59	0.653312	0.653697	4.97628	7	1.39001	11	0	40.4052	0.00325298
2	1	0	1	0	0	643.09	0.665814	0.666122	5.80682	7	1.40349	11	0	42.9055	0.00386805
2	1	0	1	0	0	645.59	0.678316	0.678576	6.62332	7	1.41904	11	0	45.4058	0.00449442
2	1	0	1	0	0	648.091	0.690817	0.691113	7.4692	7	1.43664	11	0	47.9062	0.00516206
2	1	0	1	0	0	650.387	0.697668	0.697974	7.94888	7	1.45465	11	0	50.2026	0.00554811
2	1	0	1	0	0	652.888	0.685166	0.685476	7.04731	7	1.4734	11	0	52.703	0.00483076
2	1	0	1	0	0	655.388	0.672665	0.672909	6.13458	7	1.48987	11	0	55.2034	0.00412801
2	1	0	0	0	0	657.888	0.660163	0.660428	5.27411	7	1.50412	11	0	57.7036	0.00348317
2	1	0	0	0	0	660.389	0.647662	0.647958	4.46222	7	1.51628	11	0	60.204	0.00289133
2	1	0	1	0	0	662.889	0.63516	0.635609	3.6965	7	1.52647	11	0	62.7042	0.00234953
2	1	0	1	0	0	665.389	0.622658	0.622955	2.98425	7	1.53482	11	0	65.2046	0.00185905
2	1	0	1	0	0	667.89	0.610157	0.61047	2.32428	7	1.54144	11	0	67.705	0.0014189
2	1	0	0	0	0	670.39	0.597655	0.597885	1.73503	7	1.54649	11	0	70.2052	0.00103735
2	1	0	0	0	0	672.89	0.585154	0.585448	1.23027	7	1.55018	11	0	72.7056	0.000720259
2	1	0	0	0	0	675.391	0.572652	0.572971	0.816538	7	1.55272	11	0	75.206	0.000467852
2	1	0	1	0	0	677.891	0.56015	0.560353	0.501117	7	1.55434	11	0	77.7062	0.000280802
2	1	0	1	0	0	680.391	0.547649	0.547902	0.276529	7	1.55529	11	0	80.2066	0.000151511
2	1	0	0	0	0	682.891	0.535147	0.535461	0.126911	7	1.55578	11	0	82.7068	6.79559e-05
2	1	0	0	0	0	685.392	0.522645	0.522985	0.0332371	7	1.55597	11	0	85.2072	1.73825e-05
2	0	0	0	0	0	687.892	0.510144	0.510377	-0.0223372	7	1.55597	11	0	1.1002	-1.14004e-05
2	0	0	1	0	0	690.392	0.497642	0.497948	-0.0548673	7	1.55586	11	0	3.6004	-2.73211e-05
2	0	0	1	0	0	692.893	0.485141	0.4855	-0.0743908	7	1.55569	11	0	6.1008	-3.61167e-05
2	0	0	1	0	0	695.393	0.472639	0.472889	-0.0867208	7	1.55548	11	0	8.6012	-4.10093e-05
2	0	0	0	0	0	697.893	0.460137	0.460402	-0.0949788	7	1.55525	11	0	11.1014	-4.37284e-05
2	1	0	0	0	1	700.271	0.451786	0.452016	0.0527896	8	1.55506	11	0	0.1	2.38617e-05
2	1	0	1	0	1	702.771	0.464288	0.464597	0.0966878	8	1.55528	11	0	2.6002	4.49208e-05
2	1	0	1	0	1	705.272	0.47679	0.477082	0.100688	8	1.55553	11	0	5.1006	4.80366e-05
2	1	0	1	0	1	707.772	0.489291	0.489535	0.108663	8	1.5558	11	0	7.601	5.31941e-05
2	1	0	0	0	1	710.272	0.501793	0.502127	0.124854	8	1.55609	11	0	10.1012	6.26925e-05
2	1	0	0	0	1	712.773	0.514294	0.514652	0.155358	8	1.55645	11	0	12.6016	7.99551e-05
2	1	0	1	0	1	715.273	0.526796	0.527151	0.211867	8	1.5569	11	0	15.1019	0.000111686
2	1	0	1	0	1	717.773	0.539298	0.539652	0.309916	8	1.55754	11	0	17.6022	0.000167247
2	1	0	1	0	1	720.274	0.551799	0.552111	0.470334	8	1.55851	11	0	20.1026	0.000259676
2	1	0	0	0	1	722.774	0.564301	0.564552	0.714426	8	1.55997	11	0	22.6028	0.00040333
2	1	0	0	0	1	725.274	0.576802	0.57711	1.05605	8	1.56216	11	0	25.1032	0.000609459
2	1	0	0	0	1	727.775	0.589304	0.589621	1.49576	8	1.56533	11	0	27.6036	0.000881935
2	1	0	1	0	1	730.275	0.601806	0.602091	2.02671	8	1.56971	11	0	30.1038	0.00122027
2	1	0	1	0	1	732.775	0.614307	0.614618	2.63572	8	1.57552	11	0	32.6042	0.00161996
2	1	0	1	0	1	735.276	0.626809	0.627182	3.31497	8	1.58296	11	0	35.1045	0.00207909
2	1	0	0	0	1	737.776	0.63931	0.639675	4.04268	8	1.59216	11	0	37.6048	0.002586
2	1	0	0	0	1	740.276	0.651812	0.652072	4.82866	8	1.60324	11	0	40.1052	0.00314864
2	1	0	1	0	1	742.777	0.664314	0.664599	5.63268	8	1.61633	11	0	42.6054	0.00374347
2	1	0	1	0	1	745.277	0.676815	0.677176	6.47272	8	1.63146	11	0	45.1058	0.00438317
2	1	0	1	0	1	747.777	0.689317	0.689637	7.31013	8	1.6487	11	0	47.6062	0.00504134
2	1	0	1	0	1	750.074	0.699168	0.6995	7.9617	8	1.66637	11	0	49.9026	0.00556921
2	1	0	1	0	1	752.574	0.686667	0.687002	7.00951	8	1.68507	11	0	52.403	0.00481555
2	1	0	0	0	1	755.074	0.674165	0.674482	6.1275	8	1.70147	11	0	54.9032	0.00413289
2	1	0	0	0	1	757.575	0.661663	0.661941	5.31455	8	1.71574	11	0	57.4036	0.00351792
2	1	0	0	0	1	760.075	0.649162	0.649455	4.53374	8	1.72806	11	0	59.904	0.00294446
2	1	0	1	0	1	762.575	0.63666	0.637	3.76466	8	1.73842	11	0	62.4042	0.00239809
2	1	0	1	0	1	765.076	0.624159	0.624462	3.05026	8	1.74692	11	0	64.9046	0.00190477
2	1	0	1	0	1	767.576	0.611657	0.611991	2.38285	8	1.75369	11	0	67.4049	0.00145828
2	1	0	0	0	1	770.076	0.599155	0.599429	1.79126	8	1.75888	11	0	69.9052	0.00107373
2	1	0	0	0	1	772.577	0.586654	0.586993	1.28014	8	1.76269	11	0	72.4056	0.000751436
2	1	0	1	0	1	775.077	0.574152	0.574517	0.858023	8	1.76534	11	0	74.9058	0.000492949
2	1	0	1	0	1	777.577	0.56165	0.561955	0.52661	8	1.76705	11	0	77.4062	0.000295931
2	1	0	1	0	1	780.078	0.549149	0.549453	0.292137	8	1.76805	11	0	79.9066	0.000160515
2	1	0	0	0	1	782.578	0.536647	0.53697	0.134627	8	1.76856	11	0	82.4068	7.22906e-05
2	1	0	0	0	1	785.078	0.524146	0.524356	0.0364622	8	1.76877	11	0	84.9072	1.91191e-05
2	0	0	1	0	1	787.579	0.511644	0.511954	-0.0219636	8	1.76878	11	0	0.9001	-1.12443e-05
2	0	0	1	0	1	790.079	0.499142	0.499463	-0.0556636	8	1.76868	11	0	3.4004	-2.78019e-05
2	0	0	1	0	1	792.579	0.486641	0.486975	-0.0766253	8	1.76852	11	0	5.9008	-3.73147e-05
2	0	0	0	0	1	795.08	0.474139	0.474475	-0.0884382	8	1.76832	11	0	8.401	-4.19617e-05
2	0	0	0	0	1	797.58	0.461638	0.461927	-0.0953655	8	1.76809	11	0	10.9014	-4.40519e-05
2	0	0	0	0	0	799.958	0.450286	0.4506	-0.0573452	9	1.76786	11	0	13.2792	-2.58398e-05
2	1	0	1	0	0	802.458	0.462788	0.46308	0.0971059	9	1.76806	11	0	2.3002	4.49678e-05
2	1	0	1	0	0	804.958	0.475289	0.475637	0.102761	9	1.76831	11	0	4.8006	4.88769e-05
2	1	0	0	0	0	807.459	0.487791	0.488106	0.111294	9	1.76857	11	0	7.3008	5.43234e-05
2	1	0	0	0	0	809.959	0.500293	0.500593	0.12588	9	1.76886	11	0	9.8012	6.30149e-05
2	1	0	0	0	0	812.459	0.512794	0.513133	0.152246	9	1.7692	11	0	12.3016	7.81225e-05
2	1	0	1	0	0	814.96	0.525296	0.525586	0.201012	9	1.76963	11	0	14.8018	0.000105649
2	1	0	1	0	0	817.46	0.537797	0.53811	0.288894	9	1.77024	11	0	17.3022	0.000155457
2	1	0	1	0	0	819.96	0.550299	0.550632	0.437288	9	1.77114	11	0	19.8026	0.000240785
2	1	0	0	0	0	822.461	0.562801	0.563146	0.667044	9	1.77251	11	0	22.3028	0.000375643
2	1	0	0	0	0	824.961	0.575302	0.57564	0.99409	9	1.77456	11	0	24.8032	0.000572239
2	1	0	1	0	0	827.461	0.587804	0.588175	1.41978	9	1.77756	11	0	27.3034	0.000835077
2	1	0	1	0	0	829.962	0.600306	0.600613	1.9393	9	1.78174	11	0	29.8038	0.00116477
2	1	0	1	0	0	832.462	0.612807	0.613149	2.5422	9	1.78732	11	0	32.3042	0.00155875
2	1	0	0	0	0	834.962	0.625309	0.625605	3.20816	9	1.7945	11	0	34.8044	0.00200704
2	1	0	0	0	0	837.463	0.63781	0.638179	3.92984	9	1.80341	11	0	37.3048	0.00250794
2	1	0	1	0	0	839.963	0.650312	0.650644	4.68934	9	1.81419	11	0	39.8051	0.0030511
2	1	0	1	0	0	842.463	0.662814	0.663161	5.4798	9	1.82691	11	0	42.3054	0.00363399
2	1	0	1	0	0	844.964	0.675315	0.675664	6.32352	9	1.84167	11	0	44.8058	0.00427258
2	1	0	0	0	0	847.464	0.687817	0.688132	7.17719	9	1.85856	11	0	47.306	0.00493885
2	1	0	1	0	0	849.895	0.699994	0.700308	8.01422	9	1.87701	11	0	49.7376	0.00561242
2	1	0	1	0	0	852.261	0.688167	0.688468	7.13421	9	1.89488	11	0	52.103	0.00491167
2	1	0	0	0	0	854.761	0.675665	0.67595	6.2579	9	1.91159	11	0	54.6032	0.00423003
2	1	0	0	0	0	857.261	0.663164	0.663447	5.39502	9	1.92616	11	0	57.1036	0.00357931
2	1	0	1	0	0	859.762	0.650662	0.650922	4.61295	9	1.93863	11	0	59.6039	0.00300267
2	1	0	1	0	0	862.262	0.63816	0.638541	3.82584	9	1.94916	11	0	62.1042	0.00244295
2	1	0	1	0	0	864.762	0.625659	0.625991	3.1233	9	1.95786	11	0	64.6046	0.00195516
2	1	0	0	0	0	867.263	0.613157	0.613496	2.43416	9	1.96479	11	0	67.1048	0.00149334
2	1	0	0	0	0	869.763	0.600656	0.60092	1.8154	9	1.97009	11	0	69.6052	0.00109091
2	1	0	0	0	0	872.263	0.588154	0.5885	1.29499	9	1.97396	11	0	72.1056	0.000762102
2	1	0	1	0	0	874.764	0.575652	0.575888	0.873342	9	1.97665	11	0	74.6058	0.000502948
2	1	0	1	0	0	877.264	0.563151	0.563471	0.54637	9	1.9784	11	0	77.1062	0.000307863
2	1	0	0	0	0	879.764	0.550649	0.550927	0.307722	9	1.97945	11	0	79.6064	0.000169532
2	1	0	0	0	0	882.265	0.538147	0.538449	0.145937	9	1.97999	11	0	82.1068	7.85795e-05
2	1	0	0	0	0	884.765	0.525646	0.525943	0.0446906	9	1.98022	11	0	84.6072	2.35047e-05
2	1	0	1	0	0	887.265	0.513144	0.513519	-0.0145917	9	1.98025	11	0	0.7	-7.49314e-06
2	0	0	1	0	0	889.766	0.500643	0.500965	-0.0499137	9	1.98016	11	0	3.2004	-2.5005e-05
2	0	0	1	0	0	892.266	0.488141	0.488422	-0.0712494	9	1.98	11	0	5.7008	-3.47998e-05
2	0	0	0	0	0	894.766	0.475639	0.475913	-0.0844379	9	1.9798	11	0	8.201	-4.01851e-05
2	0	0	0	0	0	897.267	0.463138	0.463419	-0.0933206	9	1.97957	11	0	10.7014	-4.32465e-05
2	0	0	1	0	0	899.767	0.450636	0.45096	-0.100483	9	1.97933	11	0	13.2016	-4.5314e-05
2	1	0	1	0	1	902.145	0.461288	0.461587	0.0933659	10	1.97948	11	0	2.0002	4.30965e-05
2	1	0	1	0	1	904.645	0.473789	0.474065	0.0986077	10	1.97973	11	0	4.5006	4.67464e-05
2	1	0	0	0	1	907.145	0.486291	0.486677	0.105504	10	1.97999	11	0	7.0008	5.13461e-05
2	1	0	0	0	1	909.646	0.498792	0.499094	0.118028	10	1.98027	11	0	9.5012	5.8907e-05
2	1	0	1	0	1	912.146	0.511294	0.511603	0.142547	10	1.9806	11	0	12.0015	7.29277e-05
2	1	0	1	0	1	914.646	0.523796	0.52411	0.188936	10	1.98101	11	0	14.5018	9.90232e-05
2	1	0	1	0	1	917.147	0.536297	0.536594	0.271772	10	1.98158	11	0	17.0022	0.000145831
2	1	0	0	0	1	919.647	0.548799	0.54916	0.410035	10	1.98243	11	0	19.5024	0.000225175
2	1	0	0	0	1	922.147	0.5613	0.561612	0.626272	10	1.9837	11	0	22.0028	0.000351722
2	1	0	0	0	1	924.648	0.573802	0.574073	0.93604	10	1.98564	11	0	24.5032	0.000537356
2	1	0	1	0	1	927.148	0.586304	0.586589	1.34452	10	1.98847	11	0	27.0034	0.000788679
2	1	0	1	0	1	929.648	0.598805	0.59912	1.8527	10	1.99246	11	0	29.5038	0.00110999
2	1	0	0	0	1	932.148	0.611307	0.611636	2.44593	10	1.99782	11	0	32.004	0.00149602
2	1	0	0	0	1	934.649	0.623808	0.624183	3.10073	10	2.00475	11	0	34.5044	0.00193542
2	1	0	0	0	1	937.149	0.63631	0.636631	3.81615	10	2.01339	11	0	37.0048	0.00242948
2	1	0	1	0	1	939.649	0.648812	0.649124	4.57486	10	2.02388	11	0	39.505	0.00296965
2	1	0	1	0	1	942.15	0.661313	0.661578	5.37419	10	2.03632	11	0	42.0054	0.00355545
2	1	0	1	0	1	944.65	0.673814	0.674193	6.21064	10	2.05081	11	0	44.5057	0.00418717
2	1	0	0	0	1	947.15	0.686317	0.686606	7.03985	10	2.06738	11	0	47.006	0.0048336
2	1	0	0	0	1	949.651	0.698818	0.699091	7.89919	10	2.08606	11	0	49.5064	0.00552225
2	1	0	0	0	1	951.947	0.689667	0.689929	7.19364	10	2.10353	11	0	51.8028	0.0049631
2	1	0	0	0	1	954.448	0.677165	0.677493	6.31076	10	2.12041	11	0	54.3032	0.00427549
2	1	0	0	0	1	956.948	0.664664	0.664908	5.50267	10	2.13515	11	0	56.8036	0.00365877
2	1	0	1	0	1	959.448	0.652162	0.652514	4.67559	10	2.14787	11	0	59.3038	0.00305089
2	1	0	1	0	1	961.949	0.639661	0.640027	3.89958	10	2.15856	11	0	61.8042	0.00249583
2	1	0	1	0	1	964.449	0.627159	0.627469	3.1644	10	2.16738	11	0	64.3045	0.00198557
2	1	0	0	0	1	966.949	0.614657	0.614946	2.50466	10	2.17444	11	0	66.8048	0.00154023
2	1	0	0	0	1	969.45	0.602156	0.6025	1.88702	10	2.17992	11	0	69.3052	0.00113693
2	1	0	1	0	1	971.95	0.589654	0.58994	1.35737	10	2.18395	11	0	71.8054	0.000800767
2	1	0	1	0	1	974.45	0.577152	0.577462	0.9139	10	2.18676	11	0	74.3058	0.000527743
2	1	0	1	0	1	976.951	0.564651	0.564825	0.5755	10	2.18861	11	0	76.8062	0.000325057
2	1	0	0	0	1	979.451	0.552149	0.552478	0.327447	10	2.18972	11	0	79.3064	0.000180907
2	1	0	0	0	1	981.951	0.539648	0.540014	0.158566	10	2.1903	11	0	81.8068	8.56278e-05
2	1	0	1	0	1	984.451	0.527146	0.527481	0.0514107	10	2.19055	11	0	84.307	2.71181e-05
2	0	0	1	0	1	986.952	0.514644	0.514977	-0.0133553	10	2.19059	11	0	0.5	-6.87766e-06
2	0	0	1	0	1	989.452	0.502143	0.502454	-0.0511153	10	2.19051	11	0	3.0004	-2.56831e-05
2	0	0	0	0	1	991.952	0.489641	0.489918	-0.0733308	10	2.19036	11	0	5.5006	-3.59261e-05
2	0	0	0	0	1	994.453	0.47714	0.477457	-0.0840452	10	2.19016	11	0	8.001	-4.0128e-05
2	0	0	0	0	1	996.953	0.464638	0.464902	-0.0912332	10	2.18994	11	0	10.5014	-4.24145e-05
2	0	0	1	0	1	999.453	0.452136	0.452412	-0.0977232	10	2.1897	11	0	13.0016	-4.42112e-05
2	1	0	1	0	0	1001.83	0.459787	0.460045	0.0960494	11	2.1898	11	0	1.7002	4.4187e-05
2	1	0	0	0	0	1004.33	0.472289	0.472614	0.101591	11	2.19004	11	0	4.2004	4.80136e-05
2	1	0	0	0	0	1006.83	0.484791	0.485067	0.104996	11	2.1903	11	0	6.7008	5.09301e-05
2	1	0	0	0	0	1009.33	0.497292	0.497644	0.114817	11	2.19057	11	0	9.2012	5.71381e-05
2	1	0	1	0	0	1011.83	0.509794	0.510109	0.13752	11	2.19089	11	0	11.7014	7.01503e-05
2	1	0	1	0	0	1014.33	0.522295	0.522568	0.181217	11	2.19129	11	0	14.2018	9.46981e-05
2	1	0	1	0	0	1016.83	0.534797	0.535078	0.258548	11	2.19183	11	0	16.7021	0.000138343
2	1	0	0	0	0	1019.33	0.547299	0.547618	0.387295	11	2.19262	11	0	19.2024	0.00021209
2	1	0	0	0	0	1021.83	0.5598	0.560114	0.590015	11	2.19382	11	0	21.7028	0.000330476
2	1	0	1	0	0	1024.33	0.572302	0.572608	0.884994	11	2.19564	11	0	24.203	0.000506755
2	1	0	1	0	0	1026.83	0.584803	0.585117	1.2799	11	2.19832	11	0	26.7034	0.000748894
2	1	0	1	0	0	1029.33	0.597305	0.597702	1.77116	11	2.20211	11	0	29.2038	0.00105863
2	1	0	0	0	0	1031.83	0.609807	0.610131	2.34938	11	2.20724	11	0	31.704	0.00143343
2	1	0	0	0	0	1034.34	0.622308	0.622646	2.99696	11	2.21392	11	0	34.2044	0.00186604
2	1	0	1	0	0	1036.84	0.63481	0.635155	3.69889	11	2.22228	11	0	36.7047	0.00234937
2	1	0	1	0	0	1039.34	0.647312	0.647591	4.45823	11	2.23248	11	0	39.205	0.00288711
2	1	0	1	0	0	1041.84	0.659813	0.660095	5.2486	11	2.24462	11	0	41.7054	0.00346457
2	1	0	0	0	0	1044.34	0.672315	0.672655	6.08922	11	2.2588	11	0	44.2056	0.00409594
2	1	0	0	0	0	1046.84	0.684816	0.685118	6.926	11	2.27508	11	0	46.706	0.00474512
2	1	0	0	0	0	1049.34	0.697318	0.69764	7.75936	11	2.29344	11	0	49.2064	0.00541324
2	1	0	0	0	0	1051.63	0.691167	0.691443	7.30918	11	2.31107	11	0	51.5028	0.00505388
2	1	0	0	0	0	1054.13	0.678666	0.679002	6.47421	11	2.32828	11	0	54.0032	0.004396
2	1	0	1	0	0	1056.63	0.666164	0.666425	5.65752	11	2.34348	11	0	56.5034	0.00377031
2	1	0	1	0	0	1059.13	0.653662	0.653947	4.7732	11	2.3565	11	0	59.0038	0.00312142
2	1	0	1	0	0	1061.64	0.641161	0.641477	3.96745	11	2.36739	11	0	61.5042	0.00254503
2	1	0	0	0	0	1064.14	0.628659	0.628995	3.21937	11	2.37636	11	0	64.0044	0.00202497
2	1	0	0	0	0	1066.64	0.616158	0.616441	2.55762	11	2.38356	11	0	66.5048	0.00157662
2	1	0	0	0	0	1069.14	0.603656	0.603986	1.93555	11	2.38916	11	0	69.0052	0.00116904
2	1	0	1	0	0	1071.64	0.591154	0.591388	1.39173	11	2.3933	11	0	71.5054	0.000823053
2	1	0	1	0	0	1074.14	0.578653	0.579011	0.940704	11	2.39619	11	0	74.0058	0.000544678
2	1	0	0	0	0	1076.64	0.566151	0.566407	0.591923	11	2.39809	11	0	76.506	0.000335269
2	1	0	0	0	0	1079.14	0.553649	0.55403	0.338151	11	2.39924	11	0	79.0064	0.000187346
2	1	0	0	0	0	1081.64	0.541148	0.541506	0.165171	11	2.39986	11	0	81.5068	8.94413e-05
2	1	0	1	0	0	1084.14	0.528646	0.528944	0.0555319	11	2.40013	11	0	84.007	2.93733e-05
2	0	0	1	0	0	1086.64	0.516145	0.516453	-0.00993493	11	2.40018	11	0	0.2	-5.13092e-06
2	0	0	1	0	0	1089.14	0.503643	0.503939	-0.0488023	11	2.40011	11	0	2.7003	-2.45934e-05
2	0	0	0	0	0	1091.64	0.491141	0.491418	-0.0710285	11	2.39996	11	0	5.2006	-3.49047e-05
2	0	0	0	0	0	1094.14	0.47864	0.478947	-0.085204	11	2.39977	11	0	7.701	-4.08083e-05
2	0	0	1	0	0	1096.64	0.466138	0.466407	-0.0936738	11	2.39955	11	0	10.2012	-4.36901e-05
2	0	0	1	0	0	1099.14	0.453637	0.453939	-0.0999949	11	2.39931	11	0	12.7016	-4.53916e-05
2	1	0	1	0	1	1101.52	0.458287	0.458589	0.0906331	12	2.39935	11	0	1.4002	4.15633e-05
2	1	0	0	0	1	1104.02	0.470789	0.471129	0.0969157	12	2.39959	11	0	3.9004	4.56598e-05
2	1	0	0	0	1	1106.52	0.48329	0.483592	0.102306	12	2.39984	11	0	6.4008	4.94743e-05
2	1	0	1	0	1	1109.02	0.495792	0.496124	0.112758	12	2.40012	11	0	8.9011	5.59421e-05
2	1	0	1	0	1	1111.52	0.508294	0.508658	0.133679	12	2.40043	11	0	11.4014	6.79969e-05
2	1	0	1	0	1	1114.02	0.520795	0.521155	0.17215	12	2.40081	11	0	13.9018	8.9717e-05
2	1	0	0	0	1	1116.52	0.533297	0.533602	0.241576	12	2.40132	11	0	16.402	0.000128906
2	1	0	0	0	1	1119.02	0.545798	0.54615	0.359901	12	2.40207	11	0	18.9024	0.00019656
2	1	0	0	0	1	1121.52	0.5583	0.558599	0.548669	12	2.40319	11	0	21.4028	0.000306486
2	1	0	1	0	1	1124.02	0.570802	0.571085	0.829315	12	2.4049	11	0	23.903	0.00047361
2	1	0	1	0	1	1126.52	0.583303	0.58361	1.2093	12	2.40743	11	0	26.4034	0.000705758
2	1	0	0	0	1	1129.02	0.595805	0.596171	1.68695	12	2.41104	11	0	28.9036	0.00100571
2	1	0	0	0	1	1131.52	0.608307	0.608637	2.25181	12	2.41595	11	0	31.404	0.00137054
2	1	0	0	0	1	1134.02	0.620808	0.621138	2.89442	12	2.42238	11	0	33.9044	0.00179783
2	1	0	1	0	1	1136.52	0.63331	0.633557	3.58682	12	2.43047	11	0	36.4046	0.00227245
2	1	0	1	0	1	1139.02	0.645811	0.646131	4.33365	12	2.44037	11	0	38.905	0.00280011
2	1	0	1	0	1	1141.52	0.658313	0.658608	5.11852	12	2.45219	11	0	41.4054	0.0033711
2	1	0	0	0	1	1144.02	0.670815	0.671033	5.9379	12	2.46601	11	0	43.9056	0.00398453
2	1	0	0	0	1	1146.52	0.683316	0.683631	6.79198	12	2.48191	11	0	46.406	0.00464321
2	1	0	1	0	1	1149.02	0.695818	0.69611	7.64058	12	2.49996	11	0	48.9062	0.00531868
2	1	0	0	0	1	1151.32	0.692667	0.692978	7.37566	12	2.51765	11	0	51.2028	0.00511117
2	1	0	0	0	1	1153.82	0.680166	0.680519	6.54557	12	2.53506	11	0	53.7032	0.00445438
2	1	0	1	0	1	1156.32	0.667664	0.667915	5.66571	12	2.55029	11	0	56.2034	0.00378421
2	1	0	1	0	1	1158.82	0.655163	0.655486	4.81071	12	2.5634	11	0	58.7038	0.00315335
2	1	0	1	0	1	1161.32	0.642661	0.642944	3.99723	12	2.5744	11	0	61.2041	0.00256999
2	1	0	0	0	1	1163.82	0.630159	0.63044	3.27636	12	2.58349	11	0	63.7044	0.00206555
2	1	0	0	0	1	1166.32	0.617658	0.617975	2.57943	12	2.5908	11	0	66.2048	0.00159402
2	1	0	1	0	1	1168.82	0.605156	0.60551	1.96949	12	2.59646	11	0	68.705	0.00119255
2	1	0	1	0	1	1171.32	0.592654	0.592941	1.43032	12	2.6007	11	0	71.2054	0.000848096
2	1	0	1	0	1	1173.82	0.580153	0.580437	0.977881	12	2.60369	11	0	73.7058	0.000567598
2	1	0	0	0	1	1176.32	0.567651	0.567948	0.619599	12	2.60565	11	0	76.206	0.0003519
2	1	0	0	0	1	1178.82	0.55515	0.55536	0.357427	12	2.60685	11	0	78.7064	0.000198501
2	1	0	1	0	1	1181.32	0.542648	0.542923	0.180974	12	2.6075	11	0	81.2067	9.82548e-05
2	1	0	1	0	1	1183.82	0.530146	0.530493	0.0692304	12	2.60779	11	0	83.707	3.67262e-05
2	1	0	1	0	1	1186.32	0.517645	0.517967	-0.000171252	12	2.60787	11	0	0.000000000000000E+000	-8.87028e-08
2	0	0	0	0	1	1188.83	0.505143	0.505521	-0.041065	12	2.60781	11	0	2.5002	-2.07592e-05
2	0	0	0	0	1	1191.33	0.492642	0.492937	-0.0652069	12	2.60766	11	0	5.0006	-3.21429e-05
2	0	0	0	0	1	1193.83	0.48014	0.480485	-0.0799009	12	2.60748	11	0	7.501	-3.83912e-05
2	0	0	1	0	1	1196.33	0.467638	0.468006	-0.0906249	12	2.60726	11	0	10.0012	-4.2413e-05
2	0	0	1	0	1	1198.83	0.455137	0.455395	-0.0986856	12	2.60703	11	0	12.5016	-4.4941e-05
2	1	0	0	0	0	1201.2	0.456787	0.457088	0.0891867	13	2.60701	11	0	1.1	4.07661e-05
2	1	0	0	0	0	1203.7	0.469289	0.469531	0.0954143	13	2.60724	11	0	3.6004	4.48e-05
2	1	0	0	0	0	1206.2	0.48179	0.482071	0.100316	13	2.60749	11	0	6.1008	4.83593e-05
2	1	0	1	0	0	1208.71	0.494292	0.494586	0.109692	13	2.60776	11	0	8.601	5.42519e-05
2	1	0	1	0	0	1211.21	0.506793	0.507124	0.12879	13	2.60806	11	0	11.1014	6.53126e-05
2	1	0	1	0	0	1213.71	0.519295	0.51954	0.163439	13	2.60843	11	0	13.6018	8.49132e-05
2	1	0	0	0	0	1216.21	0.531797	0.532066	0.226874	13	2.60892	11	0	16.102	0.000120712
2	1	0	0	0	0	1218.71	0.544298	0.544673	0.336565	13	2.60962	11	0	18.6024	0.000183318
2	1	0	1	0	0	1221.21	0.5568	0.557111	0.513442	13	2.61067	11	0	21.1026	0.000286044
2	1	0	1	0	0	1223.71	0.569301	0.569608	0.778891	13	2.61227	11	0	23.603	0.000443663
2	1	0	1	0	0	1226.21	0.581803	0.582098	1.14376	13	2.61465	11	0	26.1034	0.00066578
2	1	0	0	0	0	1228.71	0.594305	0.594584	1.60654	13	2.61807	11	0	28.6036	0.000955223
2	1	0	0	0	0	1231.21	0.606806	0.607072	2.16	13	2.62276	11	0	31.104	0.00131127
2	1	0	1	0	0	1233.71	0.619308	0.619652	2.78922	13	2.62893	11	0	33.6042	0.00172835
2	1	0	1	0	0	1236.21	0.63181	0.632107	3.47804	13	2.63675	11	0	36.1046	0.00219849
2	1	0	1	0	0	1238.71	0.644311	0.644595	4.23268	13	2.64638	11	0	38.605	0.00272837
2	1	0	0	0	0	1241.21	0.656813	0.657123	5.0075	13	2.65792	11	0	41.1052	0.00329055
2	1	0	0	0	0	1243.71	0.669314	0.669677	5.82484	13	2.67145	11	0	43.6056	0.00390076
2	1	0	0	0	0	1246.21	0.681816	0.682155	6.64091	13	2.68703	11	0	46.106	0.00453013
2	1	0	1	0	0	1248.71	0.694318	0.694546	7.49801	13	2.7047	11	0	48.6062	0.00520771
2	1	0	0	0	0	1251.01	0.694168	0.694496	7.41752	13	2.72231	11	0	50.9028	0.00515144
2	1	0	1	0	0	1253.51	0.681666	0.682004	6.5107	13	2.73968	11	0	53.403	0.00444032
2	1	0	1	0	0	1256.01	0.669164	0.669396	5.63737	13	2.75484	11	0	55.9034	0.00377363
2	1	0	1	0	0	1258.51	0.656663	0.656965	4.83796	13	2.76794	11	0	58.4038	0.00317837
2	1	0	0	0	0	1261.01	0.644161	0.644504	4.03202	13	2.77901	11	0	60.904	0.00259865
2	1	0	0	0	0	1263.51	0.63166	0.631977	3.28131	13	2.78814	11	0	63.4044	0.00207371
2	1	0	0	0	0	1266.01	0.619158	0.619473	2.60873	13	2.79549	11	0	65.9048	0.00161603
2	1	0	1	0	0	1268.51	0.606656	0.606942	2.00503	13	2.80124	11	0	68.405	0.00121694
2	1	0	1	0	0	1271.01	0.594155	0.594495	1.4577	13	2.80555	11	0	70.9054	0.000866594
2	1	0	0	0	0	1273.51	0.581653	0.581962	1.00344	13	2.80861	11	0	73.4056	0.000583962
2	1	0	0	0	0	1276.01	0.569151	0.569433	0.641359	13	2.81065	11	0	75.906	0.000365211
2	1	0	0	0	0	1278.51	0.55665	0.556979	0.374165	13	2.8119	11	0	78.4064	0.000208402
2	1	0	1	0	0	1281.01	0.544148	0.54437	0.191038	13	2.8126	11	0	80.9066	0.000103996
2	1	0	1	0	0	1283.51	0.531647	0.531899	0.0719947	13	2.81292	11	0	83.407	3.82939e-05
2	1	0	1	0	0	1286.01	0.519145	0.519464	3.62632e-05	13	2.813	11	0	85.9073	1.88374e-08
2	0	0	0	0	0	1288.51	0.506643	0.506931	-0.0417606	13	2.81295	11	0	2.3002	-2.11698e-05
2	0	0	0	0	0	1291.01	0.494142	0.494488	-0.0662488	13	2.81282	11	0	4.8006	-3.27593e-05
2	0	0	1	0	0	1293.51	0.48164	0.481976	-0.0815693	13	2.81264	11	0	7.3008	-3.93145e-05
2	0	0	1	0	0	1296.01	0.469139	0.469417	-0.0914609	13	2.81242	11	0	9.8012	-4.29333e-05
2	0	0	1	0	0	1298.51	0.456637	0.456992	-0.0985668	13	2.81219	11	0	12.3016	-4.50442e-05
2	1	0	0	0	1	1300.89	0.455287	0.45564	0.0854623	14	2.81212	11	0	0.8	3.894e-05
2	1	0	0	0	1	1303.39	0.467788	0.468186	0.0939977	14	2.81235	11	0	3.3004	4.40084e-05
2	1	0	1	0	1	1305.89	0.48029	0.480599	0.0990727	14	2.8126	11	0	5.8006	4.76142e-05
2	1	0	1	0	1	1308.39	0.492792	0.49308	0.108471	14	2.81286	11	0	8.301	5.3485e-05
2	1	0	1	0	1	1310.89	0.505293	0.505595	0.126388	14	2.81316	11	0	10.8014	6.3901e-05
2	1	0	0	0	1	1313.39	0.517795	0.518049	0.159267	14	2.81351	11	0	13.3016	8.2508e-05
2	1	0	0	0	1	1315.89	0.530296	0.5306	0.218019	14	2.81398	11	0	15.802	0.000115681
2	1	0	0	0	1	1318.39	0.542798	0.543165	0.319999	14	2.81464	11	0	18.3024	0.000173812
2	1	0	1	0	1	1320.89	0.5553	0.555699	0.486241	14	2.81563	11	0	20.8026	0.000270204
2	1	0	1	0	1	1323.39	0.567801	0.568074	0.738191	14	2.81713	11	0	23.303	0.000419346
2	1	0	0	0	1	1325.89	0.580303	0.580723	1.08738	14	2.81939	11	0	25.8032	0.000631466
2	1	0	0	0	1	1328.39	0.592804	0.593111	1.53785	14	2.82265	11	0	28.3036	0.000912115
2	1	0	0	0	1	1330.89	0.605306	0.605589	2.08044	14	2.82716	11	0	30.804	0.00125989
2	1	0	1	0	1	1333.39	0.617808	0.618063	2.69884	14	2.83312	11	0	33.3042	0.00166806
2	1	0	1	0	1	1335.9	0.630309	0.630635	3.37633	14	2.84071	11	0	35.8046	0.00212923
2	1	0	1	0	1	1338.4	0.642811	0.643087	4.10617	14	2.85007	11	0	38.3049	0.00264062
2	1	0	0	0	1	1340.9	0.655313	0.655572	4.88323	14	2.8613	11	0	40.8052	0.0032013
2	1	0	0	0	1	1343.4	0.667814	0.66809	5.69201	14	2.87452	11	0	43.3056	0.00380278
2	1	0	1	0	1	1345.9	0.680316	0.680624	6.57048	14	2.88987	11	0	45.8058	0.00447203
2	1	0	1	0	1	1348.4	0.692817	0.693128	7.45914	14	2.9074	11	0	48.3062	0.00517014
2	1	0	0	0	1	1350.69	0.695668	0.695983	7.58704	14	2.92514	11	0	50.6028	0.00528045
2	1	0	1	0	1	1353.19	0.683166	0.683475	6.63813	14	2.9429	11	0	53.103	0.00453699
2	1	0	1	0	1	1355.69	0.670665	0.670966	5.75473	14	2.95836	11	0	55.6034	0.00386123
2	1	0	1	0	1	1358.19	0.658163	0.658473	4.96675	14	2.97176	11	0	58.1037	0.00327047
2	1	0	0	0	1	1360.69	0.645661	0.645954	4.16708	14	2.98317	11	0	60.604	0.00269174
2	1	0	0	0	1	1363.2	0.63316	0.633383	3.40309	14	2.9926	11	0	63.1044	0.00215546
2	1	0	1	0	1	1365.7	0.620658	0.621007	2.71104	14	3.00023	11	0	65.6046	0.00168357
2	1	0	1	0	1	1368.2	0.608156	0.608412	2.07345	14	3.00618	11	0	68.105	0.00126151
2	1	0	1	0	1	1370.7	0.595655	0.595988	1.51895	14	3.01065	11	0	70.6054	0.000905275
2	1	0	0	0	1	1373.2	0.583153	0.583458	1.04763	14	3.01383	11	0	73.1056	0.000611248
2	1	0	0	0	1	1375.7	0.570652	0.571046	0.676595	14	3.01596	11	0	75.606	0.000386367
2	1	0	1	0	1	1378.2	0.55815	0.558475	0.399796	14	3.01728	11	0	78.1062	0.000223276
2	1	0	1	0	1	1380.7	0.545648	0.545976	0.208693	14	3.01802	11	0	80.6066	0.000113941
2	1	0	1	0	1	1383.2	0.533147	0.533491	0.0845392	14	3.01837	11	0	83.107	4.51009e-05
2	1	0	0	0	1	1385.7	0.520645	0.520931	0.00918798	14	3.01847	11	0	85.6072	4.78631e-06
2	0	0	0	0	1	1388.2	0.508144	0.508446	-0.0357752	14	3.01843	11	0	2.0002	-1.81898e-05
2	0	0	0	0	1	1390.7	0.495642	0.495916	-0.0616056	14	3.0183	11	0	4.5006	-3.05512e-05
2	0	0	1	0	1	1393.2	0.48314	0.483435	-0.0763637	14	3.01812	11	0	7.0008	-3.69168e-05
2	0	0	1	0	1	1395.7	0.470639	0.470871	-0.0860434	14	3.01792	11	0	9.5012	-4.05153e-05
2	0	0	0	0	1	1398.2	0.458137	0.458456	-0.0924286	14	3.01769	11	0	12.0014	-4.23745e-05
2	1	0	0	0	0	1400.58	0.453787	0.454078	0.085148	15	3.01756	11	0	0.5	3.86638e-05
2	1	0	0	0	0	1403.08	0.466288	0.466626	0.098106	15	3.01779	11	0	3.0004	4.57788e-05
2	1	0	1	0	0	1405.58	0.47879	0.479096	0.102904	15	3.01803	11	0	5.5006	4.93009e-05
2	1	0	1	0	0	1408.08	0.491291	0.491558	0.110445	15	3.01829	11	0	8.001	5.42901e-05
2	1	0	1	0	0	1410.58	0.503793	0.504065	0.125402	15	3.01858	11	0	10.5013	6.32108e-05
2	1	0	0	0	0	1413.08	0.516295	0.516593	0.154794	15	3.01892	11	0	13.0016	7.99655e-05
2	1	0	0	0	0	1415.58	0.528796	0.529004	0.208438	15	3.01936	11	0	15.502	0.000110264
2	1	0	1	0	0	1418.08	0.541298	0.541575	0.302072	15	3.01999	11	0	18.0022	0.000163595
2	1	0	1	0	0	1420.58	0.553799	0.554124	0.456863	15	3.02092	11	0	20.5026	0.000253159
2	1	0	1	0	0	1423.08	0.566301	0.566609	0.693842	15	3.02233	11	0	23.003	0.000393137
2	1	0	0	0	0	1425.58	0.578803	0.579087	1.0278	15	3.02446	11	0	25.5032	0.000595186
2	1	0	0	0	0	1428.08	0.591304	0.591602	1.46544	15	3.02755	11	0	28.0036	0.00086696
2	1	0	1	0	0	1430.58	0.603806	0.60411	1.99537	15	3.03186	11	0	30.5039	0.00120542
2	1	0	1	0	0	1433.08	0.616308	0.616654	2.60416	15	3.03759	11	0	33.0042	0.00160586
2	1	0	1	0	0	1435.58	0.628809	0.629148	3.27555	15	3.04492	11	0	35.5046	0.0020608
2	1	0	0	0	0	1438.08	0.641311	0.641625	3.99831	15	3.05401	11	0	38.0048	0.00256541
2	1	0	0	0	0	1440.58	0.653812	0.654122	4.77701	15	3.06496	11	0	40.5052	0.00312475
2	1	0	0	0	0	1443.08	0.666314	0.666513	5.57505	15	3.0779	11	0	43.0056	0.00371584
2	1	0	1	0	0	1445.58	0.678816	0.679067	6.43277	15	3.0929	11	0	45.5058	0.00436828
2	1	0	1	0	0	1448.08	0.691317	0.691638	7.28672	15	3.11006	11	0	48.0062	0.00503977
2	1	0	1	0	0	1450.38	0.697168	0.697503	7.69121	15	3.12766	11	0	50.3026	0.00536464
2	1	0	1	0	0	1452.88	0.684666	0.684977	6.78658	15	3.14574	11	0	52.803	0.00464865
2	1	0	1	0	0	1455.38	0.672165	0.672542	5.86618	15	3.16156	11	0	55.3034	0.00394525
2	1	0	0	0	0	1457.88	0.659663	0.659902	5.00197	15	3.17513	11	0	57.8036	0.00330081
2	1	0	0	0	0	1460.38	0.647162	0.647482	4.19148	15	3.18659	11	0	60.304	0.00271391
2	1	0	0	0	0	1462.88	0.63466	0.634931	3.43537	15	3.19611	11	0	62.8044	0.00218122
2	1	0	1	0	0	1465.38	0.622158	0.622535	2.72343	15	3.20379	11	0	65.3046	0.00169543
2	1	0	1	0	0	1467.88	0.609657	0.60998	2.09677	15	3.20979	11	0	67.805	0.00127899
2	1	0	0	0	0	1470.38	0.597155	0.5975	1.54567	15	3.21432	11	0	70.3052	0.00092354
2	1	0	0	0	0	1472.88	0.584653	0.5849	1.0789	15	3.21758	11	0	72.8056	0.000631048
2	1	0	0	0	0	1475.38	0.572152	0.572431	0.697179	15	3.21977	11	0	75.306	0.000399087
2	1	0	1	0	0	1477.88	0.55965	0.559995	0.417038	15	3.22114	11	0	77.8062	0.000233539
2	1	0	1	0	0	1480.38	0.547149	0.547424	0.219967	15	3.22192	11	0	80.3066	0.000120415
2	1	0	1	0	0	1482.88	0.534647	0.534973	0.0913587	15	3.22229	11	0	82.8069	4.88744e-05
2	1	0	0	0	0	1485.38	0.522145	0.5224	0.0131506	15	3.22241	11	0	85.3072	6.86989e-06
2	0	0	0	0	0	1487.88	0.509644	0.50995	-0.0348268	15	3.22238	11	0	1.7002	-1.77599e-05
2	0	0	1	0	0	1490.39	0.497142	0.497467	-0.0624716	15	3.22226	11	0	4.2004	-3.10776e-05
2	0	0	1	0	0	1492.89	0.484641	0.485011	-0.0790177	15	3.22209	11	0	6.7008	-3.83244e-05
2	0	0	1	0	0	1495.39	0.472139	0.472486	-0.0887752	15	3.22188	11	0	9.2012	-4.1945e-05
2	0	0	0	0	0	1497.89	0.459637	0.459922	-0.0955236	15	3.22165	11	0	11.7014	-4.39334e-05
2	0	0	0	0	0	1499.81	0.450011	0.450274	-0.112295	15	3.22146	11	0	13.624	-5.05634e-05