File: ACS_Catal_2026/Figures_Na_K/main_figures/data/EC/20240126_2-102_Add_Na/20240125_2-102_007_preconditioning_elctrode3_01_CVA_C01.mpt
EC-Lab ASCII FILE
Nb header lines : 66

Cyclic Voltammetry Advanced

Run on channel : 1 (SN 66412)
User :
CE vs. WE compliance from -10 V to 10 V
Electrode connection : standard
Potential control : Ewe
Ewe ctrl range : min = -1.00 V, max = 1.00 V
Safety Limits :
	Do not start on E overload
Acquisition started on : 01/26/2024 17:08:35.119
Loaded Setting File :  C:\Users\NakamuraT\Documents\EC-Lab\Data\Yatsuzuka\20240126_2-102_Add_Na\20240125_2-102_001_preconditioning_elctrode1.mps
Saved on :
	File : 20240125_2-102_007_preconditioning_elctrode3_01_CVA_C01.mpr
	Directory : C:\Users\NakamuraT\Documents\EC-Lab\Data\Yatsuzuka\20240126_2-102_Add_Na\
	Host : 192.109.209.100
Device : SP-150e (SN .003411)
Address : 192.109.209.236
EC-Lab for windows v11.50 (software)
Internet server v11.50 (firmware)
Command interpretor v11.50 (firmware)
Electrode material :
Initial state :
Electrolyte :
Comments :
Electrode surface area : 0.001 cm2
Characteristic mass : 0.001 g
Equivalent Weight : 0.000 g/eq.
Density : 0.000 g/cm3
Volume (V) : 0.001 cm3
Cycle Definition : Charge/Discharge alternance
Ei (V)              0.350
vs.                 Ref
ti (h:m:s)          0:00:10.0000
dti (s)             1.0000
dE/dt               10.000
dE/dt unit          mV/s
E1 (V)              0.450
vs.                 Ref
t1 (h:m:s)          0:00:0.0000
dt1 (s)             0.1000
Step percent        50
N                   10
E range min (V)     -1.000
E range max (V)     1.000
I Range             Auto
I Range min         Unset
I Range max         Unset
I Range init        Unset
Bandwidth           5
E2 (V)              0.350
vs.                 Ref
t2 (h:m:s)          0:00:0.0000
dt2 (s)             0.1000
nc cycles           9
nr                  1
Reverse Scan        0
Ef (V)              0.000
vs.                 Eoc
tf (h:m:s)          0:00:0.0000
dtf (s)             0.1000

mode	ox/red	error	control changes	Ns changes	counter inc.	time/s	control/V	Ewe/V	<I>/mA	cycle number	(Q-Qo)/C	I Range	Ns	step time/s	P/W
2	1	0	1	0	0	0.000000000000000E+000	0.350023	0.350339	9.72919	1	0.0000000E+000	10	0	0.000000000000000E+000	0.00340851
2	1	0	1	0	0	7	0.350023	0.350224	0.126633	1	0.00769594	12	0	6	4.435e-05
2	1	0	1	0	0	10.1825	0.351798	0.352062	0.183728	1	0.00800467	12	0	9.1825	6.46836e-05
2	1	0	1	0	0	10.5325	0.355298	0.355613	0.279977	1	0.00808833	12	0	9.5325	9.95634e-05
2	1	0	1	0	0	10.8825	0.358799	0.359083	0.311343	1	0.008192	12	0	9.8825	0.000111798
2	1	0	1	0	0	11.2327	0.3623	0.362578	0.320125	1	0.00830297	12	0	10.2327	0.00011607
2	1	0	1	0	0	11.5827	0.3658	0.366067	0.323085	1	0.00841631	12	0	10.5827	0.000118271
2	1	0	1	0	0	11.9327	0.369301	0.36955	0.325724	1	0.00853068	12	0	10.9327	0.000120371
2	1	0	1	0	0	12.2829	0.372802	0.373049	0.329377	1	0.00864534	12	0	11.2829	0.000122874
2	1	0	1	0	0	12.6329	0.376302	0.376568	0.330299	1	0.00876002	12	0	11.6329	0.00012438
2	1	0	1	0	0	12.9829	0.379803	0.38008	0.32826	1	0.00887467	12	0	11.9829	0.000124765
2	1	0	1	0	0	13.3329	0.383303	0.383564	0.324984	1	0.00898922	12	0	12.3329	0.000124652
2	1	0	1	0	0	13.6831	0.386804	0.38705	0.323495	1	0.00910363	12	0	12.6831	0.000125209
2	1	0	1	0	0	14.0331	0.390305	0.390588	0.325052	1	0.00921763	12	0	13.0331	0.000126961
2	1	0	1	0	0	14.3831	0.393805	0.394059	0.326721	1	0.00933137	12	0	13.3831	0.000128748
2	1	0	1	0	0	14.7333	0.397306	0.397584	0.325696	1	0.00944468	12	0	13.7333	0.000129492
2	1	0	1	0	0	15.0833	0.400807	0.401084	0.321402	1	0.00955762	12	0	14.0833	0.000128909
2	1	0	1	0	0	15.4333	0.404307	0.404594	0.318314	1	0.00967005	12	0	14.4333	0.000128788
2	1	0	1	0	0	15.7835	0.407808	0.408043	0.316686	1	0.00978207	12	0	14.7835	0.000129221
2	1	0	1	0	0	16.1335	0.411308	0.411608	0.319499	1	0.00989361	12	0	15.1335	0.000131508
2	1	0	1	0	0	16.4835	0.414809	0.415086	0.318681	1	0.0100047	12	0	15.4835	0.00013228
2	1	0	1	0	0	16.8337	0.41831	0.418572	0.316274	1	0.0101151	12	0	15.8337	0.000132383
2	1	0	1	0	0	17.1837	0.42181	0.422073	0.311505	1	0.0102248	12	0	16.1837	0.000131478
2	1	0	1	0	0	17.5337	0.425311	0.425582	0.308678	1	0.0103341	12	0	16.5337	0.000131368
2	1	0	1	0	0	17.8838	0.428811	0.429076	0.308241	1	0.0104428	12	0	16.8838	0.000132259
2	1	0	1	0	0	18.2339	0.432312	0.432549	0.309786	1	0.0105509	12	0	17.2339	0.000133998
2	1	0	1	0	0	18.5839	0.435813	0.436089	0.30928	1	0.0106584	12	0	17.5839	0.000134874
2	1	0	1	0	0	18.9339	0.439313	0.439596	0.305797	1	0.0107654	12	0	17.9339	0.000134427
2	1	0	1	0	0	19.2841	0.442814	0.443103	0.301931	1	0.010872	12	0	18.2841	0.000133787
2	1	0	1	0	0	19.6341	0.446315	0.446548	0.299611	1	0.0109781	12	0	18.6341	0.000133791
2	1	0	1	0	0	19.9791	0.449765	0.450041	0.298924	1	0.0110823	12	0	18.9791	0.000134528
2	1	0	1	0	0	20.2779	0.447215	0.447478	0.0603371	1	0.0111309	12	0	19.2779	2.69995e-05
2	0	0	1	0	0	20.6579	0.443414	0.443667	-0.0339236	1	0.0111322	13	0	0.165	-1.50508e-05
2	0	0	1	0	0	21.008	0.439913	0.440143	-0.0614722	1	0.0111149	13	0	0.5151	-2.70566e-05
2	0	0	1	0	0	21.3581	0.436413	0.436669	-0.0781033	1	0.0110896	13	0	0.8652	-3.41053e-05
2	0	0	1	0	0	21.7081	0.432912	0.433159	-0.0927886	1	0.0110589	13	0	1.2152	-4.01922e-05
2	0	0	1	0	0	22.0881	0.429112	0.429379	-0.104984	1	0.0110208	12	0	1.5952	-4.50777e-05
2	0	0	1	0	0	22.4383	0.425611	0.425882	-0.112792	1	0.0109818	12	0	1.9454	-4.80362e-05
2	0	0	1	0	0	22.7883	0.42211	0.422346	-0.123066	1	0.0109397	12	0	2.2954	-5.19766e-05
2	0	0	1	0	0	23.1383	0.41861	0.418866	-0.133419	1	0.0108948	12	0	2.6454	-5.58847e-05
2	0	0	1	0	0	23.4885	0.415109	0.415385	-0.141818	1	0.0108474	12	0	2.9956	-5.89092e-05
2	0	0	1	0	0	23.8385	0.411608	0.411889	-0.146821	1	0.0107975	12	0	3.3456	-6.04739e-05
2	0	0	1	0	0	24.1885	0.408108	0.408364	-0.151084	1	0.0107451	12	0	3.6956	-6.16971e-05
2	0	0	1	0	0	24.5387	0.404607	0.404811	-0.15567	1	0.0106906	12	0	4.0458	-6.30169e-05
2	0	0	1	0	0	24.8887	0.401107	0.401344	-0.163317	1	0.0106342	12	0	4.3958	-6.55465e-05
2	0	0	1	0	0	25.2387	0.397606	0.397901	-0.171481	1	0.0105759	12	0	4.7458	-6.82326e-05
2	0	0	1	0	0	25.5889	0.394105	0.394397	-0.177296	1	0.0105156	12	0	5.096	-6.9925e-05
2	0	0	1	0	0	25.9389	0.390605	0.390843	-0.180762	1	0.0104534	12	0	5.446	-7.06498e-05
2	0	0	1	0	0	26.2889	0.387104	0.387373	-0.182904	1	0.0103894	12	0	5.796	-7.08521e-05
2	0	0	1	0	0	26.639	0.383604	0.383881	-0.188427	1	0.0103235	12	0	6.1461	-7.23335e-05
2	0	0	1	0	0	26.9891	0.380103	0.380332	-0.19573	1	0.0102559	12	0	6.4962	-7.44424e-05
2	0	0	1	0	0	27.3391	0.376602	0.376852	-0.203496	1	0.0101864	12	0	6.8462	-7.66877e-05
2	0	0	1	0	0	27.6891	0.373102	0.373391	-0.207963	1	0.0101153	12	0	7.1962	-7.76514e-05
2	0	0	1	0	0	28.0393	0.369601	0.369838	-0.210732	1	0.0100422	12	0	7.5464	-7.79368e-05
2	0	0	1	0	0	28.3893	0.3661	0.366364	-0.213472	1	0.00996744	12	0	7.8964	-7.82086e-05
2	0	0	1	0	0	28.7393	0.3626	0.362847	-0.21927	1	0.00989085	12	0	8.2464	-7.95617e-05
2	0	0	1	0	0	29.0895	0.359099	0.359377	-0.226988	1	0.00981258	12	0	8.5966	-8.1574e-05
2	0	0	1	0	0	29.4395	0.355599	0.355903	-0.233424	1	0.00973252	12	0	8.9466	-8.30762e-05
2	0	0	1	0	0	29.7895	0.352098	0.35236	-0.237833	1	0.00965083	12	0	9.2966	-8.3803e-05
2	0	0	1	0	1	30.0747	0.350798	0.351079	-0.130889	2	0.00958783	12	0	9.5818	-4.59523e-05
2	1	0	1	0	1	30.4247	0.354298	0.354575	0.119766	2	0.00959362	12	0	0.15	4.24659e-05
2	1	0	1	0	1	30.7747	0.357799	0.358056	0.200605	2	0.00965173	12	0	0.5	7.18278e-05
2	1	0	1	0	1	31.1248	0.361299	0.361565	0.227852	2	0.00972799	12	0	0.8501	8.23833e-05
2	1	0	1	0	1	31.4749	0.3648	0.365044	0.237792	2	0.00981066	12	0	1.2002	8.68045e-05
2	1	0	1	0	1	31.8249	0.368301	0.368587	0.244014	2	0.0098956	12	0	1.5502	8.99404e-05
2	1	0	1	0	1	32.1749	0.371801	0.372071	0.247175	2	0.00998117	12	0	1.9002	9.19666e-05
2	1	0	1	0	1	32.5251	0.375302	0.375542	0.246545	2	0.0100668	12	0	2.2504	9.25882e-05
2	1	0	1	0	1	32.8751	0.378803	0.379094	0.243642	2	0.0101522	12	0	2.6004	9.23631e-05
2	1	0	1	0	1	33.2251	0.382303	0.382574	0.239661	2	0.0102373	12	0	2.9504	9.1688e-05
2	1	0	1	0	1	33.5753	0.385804	0.386077	0.238768	2	0.0103219	12	0	3.3006	9.21827e-05
2	1	0	1	0	1	33.9253	0.389305	0.389565	0.23984	2	0.0104059	12	0	3.6506	9.34333e-05
2	1	0	1	0	1	34.2753	0.392805	0.393115	0.240206	2	0.0104893	12	0	4.0006	9.44285e-05
2	1	0	1	0	1	34.6255	0.396306	0.396529	0.23757	2	0.0105721	12	0	4.3508	9.42037e-05
2	1	0	1	0	1	34.9755	0.399806	0.400086	0.233541	2	0.0106544	12	0	4.7008	9.34364e-05
2	1	0	1	0	1	35.3255	0.403307	0.403575	0.230081	2	0.0107361	12	0	5.0508	9.2855e-05
2	1	0	1	0	1	35.6757	0.406808	0.407108	0.229622	2	0.0108174	12	0	5.401	9.34811e-05
2	1	0	1	0	1	36.0257	0.410308	0.410588	0.23239	2	0.0108981	12	0	5.751	9.54166e-05
2	1	0	1	0	1	36.3757	0.413809	0.414043	0.231534	2	0.0109786	12	0	6.101	9.58649e-05
2	1	0	1	0	1	36.7258	0.417309	0.417625	0.229025	2	0.0110586	12	0	6.4511	9.56465e-05
2	1	0	1	0	1	37.0759	0.42081	0.421051	0.225497	2	0.0111382	12	0	6.8012	9.49456e-05
2	1	0	1	0	1	37.4259	0.424311	0.424582	0.223411	2	0.0112174	12	0	7.1512	9.48561e-05
2	1	0	1	0	1	37.7759	0.427811	0.428048	0.224123	2	0.0112963	12	0	7.5012	9.59356e-05
2	1	0	1	0	1	38.1261	0.431312	0.431563	0.226388	2	0.0113751	12	0	7.8514	9.77009e-05
2	1	0	1	0	1	38.4761	0.434813	0.435088	0.227186	2	0.0114537	12	0	8.2014	9.88458e-05
2	1	0	1	0	1	38.8261	0.438313	0.438544	0.225633	2	0.0115324	12	0	8.5514	9.89501e-05
2	1	0	1	0	1	39.1763	0.441814	0.442092	0.223122	2	0.0116111	12	0	8.9016	9.86406e-05
2	1	0	1	0	1	39.5263	0.445314	0.445549	0.223626	2	0.0116901	12	0	9.2516	9.96365e-05
2	1	0	1	0	1	39.8763	0.448815	0.449074	0.226365	2	0.0117692	12	0	9.6016	0.000101655
2	1	0	1	0	1	40.1701	0.448215	0.448471	0.0462043	2	0.0118166	12	0	9.8954	2.07213e-05
2	0	0	1	0	1	40.5501	0.444414	0.444664	-0.0774124	2	0.0118046	13	0	0.23	-3.44225e-05
2	0	0	1	0	1	40.9001	0.440914	0.441132	-0.102923	2	0.0117723	13	0	0.58	-4.54027e-05
2	0	0	1	0	1	41.2803	0.437113	0.43735	-0.120532	2	0.0117299	12	0	0.9602	-5.27148e-05
2	0	0	1	0	1	41.6303	0.433612	0.433851	-0.129017	2	0.0116869	12	0	1.3102	-5.59742e-05
2	0	0	1	0	1	41.9803	0.430112	0.430302	-0.133634	2	0.0116411	12	0	1.6602	-5.75029e-05
2	0	0	1	0	1	42.3305	0.426611	0.426848	-0.138347	2	0.0115929	12	0	2.0104	-5.9053e-05
2	0	0	1	0	1	42.6805	0.42311	0.423352	-0.145195	2	0.0115425	12	0	2.3604	-6.14687e-05
2	0	0	1	0	1	43.0305	0.41961	0.419853	-0.152954	2	0.0114902	12	0	2.7104	-6.4218e-05
2	0	0	1	0	1	43.3807	0.416109	0.416399	-0.159714	2	0.0114362	12	0	3.0606	-6.65049e-05
2	0	0	1	0	1	43.7307	0.412609	0.412855	-0.162437	2	0.0113805	12	0	3.4106	-6.70631e-05
2	0	0	1	0	1	44.0807	0.409108	0.409343	-0.166697	2	0.0113229	12	0	3.7606	-6.82365e-05
2	0	0	1	0	1	44.4309	0.405607	0.405809	-0.168134	2	0.0112636	12	0	4.1108	-6.82305e-05
2	0	0	1	0	1	44.7809	0.402107	0.402289	-0.175037	2	0.0112029	12	0	4.4608	-7.04155e-05
2	0	0	1	0	1	45.1309	0.398606	0.398834	-0.18151	2	0.0111407	12	0	4.8108	-7.23923e-05
2	0	0	1	0	1	45.481	0.395105	0.39534	-0.187029	2	0.011077	12	0	5.1609	-7.394e-05
2	0	0	1	0	1	45.8311	0.391605	0.391824	-0.189341	2	0.0110118	12	0	5.511	-7.41883e-05
2	0	0	1	0	1	46.1811	0.388104	0.388359	-0.190916	2	0.010945	12	0	5.861	-7.41442e-05
2	0	0	1	0	1	46.5311	0.384604	0.384845	-0.194503	2	0.0108767	12	0	6.211	-7.48536e-05
2	0	0	1	0	1	46.8813	0.381103	0.381356	-0.200605	2	0.0108069	12	0	6.5612	-7.6502e-05
2	0	0	1	0	1	47.2313	0.377602	0.377845	-0.208731	2	0.0107356	12	0	6.9112	-7.8868e-05
2	0	0	1	0	1	47.5813	0.374102	0.374383	-0.212788	2	0.0106627	12	0	7.2612	-7.96641e-05
2	0	0	1	0	1	47.9315	0.370601	0.370873	-0.215649	2	0.0105882	12	0	7.6114	-7.99785e-05
2	0	0	1	0	1	48.2815	0.367101	0.367332	-0.217139	2	0.010512	12	0	7.9614	-7.9762e-05
2	0	0	1	0	1	48.6315	0.3636	0.363856	-0.221815	2	0.0104343	12	0	8.3114	-8.07086e-05
2	0	0	1	0	1	48.9817	0.360099	0.360349	-0.228744	2	0.010355	12	0	8.6616	-8.24279e-05
2	0	0	1	0	1	49.3317	0.356599	0.356898	-0.236	2	0.0102741	12	0	9.0116	-8.42279e-05
2	0	0	1	0	1	49.6817	0.353098	0.35334	-0.240113	2	0.0101917	12	0	9.3616	-8.48416e-05
2	0	0	1	0	0	49.9896	0.350023	0.350262	-0.238425	2	0.0101177	12	0	9.6695	-8.35113e-05
2	1	0	1	0	0	50.3169	0.353298	0.353591	0.0688062	3	0.0100989	12	0	0.05	2.43292e-05
2	1	0	1	0	0	50.6669	0.356799	0.35705	0.177412	3	0.0101449	12	0	0.4	6.33448e-05
2	1	0	1	0	0	51.0169	0.360299	0.360559	0.212528	3	0.0102144	12	0	0.75	7.66286e-05
2	1	0	1	0	0	51.3671	0.3638	0.364067	0.22426	3	0.0102921	12	0	1.1002	8.16456e-05
2	1	0	1	0	0	51.7171	0.367301	0.367606	0.230586	3	0.0103725	12	0	1.4502	8.47649e-05
2	1	0	1	0	0	52.0671	0.370801	0.371084	0.234392	3	0.0104538	12	0	1.8002	8.6979e-05
2	1	0	1	0	0	52.4173	0.374302	0.37457	0.234937	3	0.0105352	12	0	2.1504	8.80003e-05
2	1	0	1	0	0	52.7673	0.377803	0.378081	0.232062	3	0.0106163	12	0	2.5004	8.77382e-05
2	1	0	1	0	0	53.1173	0.381303	0.38157	0.227771	3	0.0106971	12	0	2.8504	8.69106e-05
2	1	0	1	0	0	53.4675	0.384804	0.385054	0.225743	3	0.0107774	12	0	3.2006	8.69232e-05
2	1	0	1	0	0	53.8175	0.388304	0.388567	0.225554	3	0.0108569	12	0	3.5506	8.76428e-05
2	1	0	1	0	0	54.1675	0.391805	0.392026	0.226964	3	0.0109357	12	0	3.9006	8.89759e-05
2	1	0	1	0	0	54.5177	0.395306	0.395533	0.224775	3	0.011014	12	0	4.2508	8.89059e-05
2	1	0	1	0	0	54.8677	0.398806	0.39906	0.220764	3	0.0110915	12	0	4.6008	8.8098e-05
2	1	0	1	0	0	55.2177	0.402307	0.402561	0.216157	3	0.0111685	12	0	4.9508	8.70162e-05
2	1	0	1	0	0	55.5677	0.405807	0.406048	0.214757	3	0.0112448	12	0	5.3008	8.72015e-05
2	1	0	1	0	0	55.9179	0.409308	0.409573	0.21568	3	0.0113204	12	0	5.651	8.83366e-05
2	1	0	1	0	0	56.2679	0.412809	0.413068	0.216934	3	0.0113958	12	0	6.001	8.96084e-05
2	1	0	1	0	0	56.6179	0.416309	0.416562	0.214227	3	0.0114703	12	0	6.351	8.92385e-05
2	1	0	1	0	0	56.9681	0.41981	0.420107	0.210168	3	0.0115444	12	0	6.7012	8.82932e-05
2	1	0	1	0	0	57.3181	0.423311	0.423614	0.207172	3	0.011618	12	0	7.0512	8.77611e-05
2	1	0	1	0	0	57.6681	0.426811	0.427113	0.206496	3	0.0116913	12	0	7.4012	8.8197e-05
2	1	0	1	0	0	58.0183	0.430312	0.430597	0.208798	3	0.0117641	12	0	7.7514	8.99078e-05
2	1	0	1	0	0	58.3683	0.433812	0.434076	0.209648	3	0.0118366	12	0	8.1014	9.10032e-05
2	1	0	1	0	0	58.7183	0.437313	0.437567	0.20832	3	0.011909	12	0	8.4514	9.11539e-05
2	1	0	1	0	0	59.0685	0.440814	0.441114	0.204942	3	0.0119813	12	0	8.8016	9.04028e-05
2	1	0	1	0	0	59.4185	0.444314	0.44456	0.203837	3	0.0120535	12	0	9.1516	9.06176e-05
2	1	0	1	0	0	59.7685	0.447815	0.448071	0.2051	3	0.0121258	12	0	9.5016	9.18992e-05
2	1	0	1	0	0	60.0623	0.449215	0.449437	0.11034	3	0.012182	12	0	9.7954	4.95911e-05
2	0	0	1	0	0	60.4123	0.445715	0.44596	-0.0689101	3	0.01218	12	0	0.15	-3.07312e-05
2	0	0	1	0	0	60.7623	0.442214	0.442444	-0.111457	3	0.0121471	12	0	0.5	-4.93135e-05
2	0	0	1	0	0	61.1125	0.438713	0.438957	-0.126995	3	0.0121057	12	0	0.8502	-5.57455e-05
2	0	0	1	0	0	61.4625	0.435213	0.435484	-0.13437	3	0.0120605	12	0	1.2002	-5.85158e-05
2	0	0	1	0	0	61.8125	0.431712	0.431996	-0.137858	3	0.0120126	12	0	1.5502	-5.95541e-05
2	0	0	1	0	0	62.1627	0.428211	0.428459	-0.14307	3	0.0119626	12	0	1.9004	-6.12996e-05
2	0	0	1	0	0	62.5127	0.424711	0.424959	-0.149849	3	0.0119107	12	0	2.2504	-6.36799e-05
2	0	0	1	0	0	62.8627	0.42121	0.421507	-0.157511	3	0.0118571	12	0	2.6004	-6.6392e-05
2	0	0	1	0	0	63.2127	0.41771	0.418001	-0.162359	3	0.0118019	12	0	2.9504	-6.78662e-05
2	0	0	1	0	0	63.5629	0.414209	0.414485	-0.16499	3	0.0117451	12	0	3.3006	-6.83858e-05
2	0	0	1	0	0	63.9129	0.410708	0.410993	-0.166401	3	0.0116869	12	0	3.6506	-6.83897e-05
2	0	0	1	0	0	64.2629	0.407208	0.407476	-0.170239	3	0.0116268	12	0	4.0006	-6.93684e-05
2	0	0	1	0	0	64.6131	0.403707	0.403958	-0.176666	3	0.0115656	12	0	4.3508	-7.13656e-05
2	0	0	1	0	0	64.9631	0.400207	0.400439	-0.182398	3	0.011503	12	0	4.7008	-7.30391e-05
2	0	0	1	0	0	65.3131	0.396706	0.39693	-0.187318	3	0.0114392	12	0	5.0508	-7.43523e-05
2	0	0	1	0	0	65.6633	0.393205	0.39348	-0.188274	3	0.0113738	12	0	5.401	-7.40822e-05
2	0	0	1	0	0	66.0133	0.389705	0.389918	-0.190303	3	0.0113071	12	0	5.751	-7.42026e-05
2	0	0	1	0	0	66.3633	0.386204	0.38649	-0.194125	3	0.011239	12	0	6.101	-7.50273e-05
2	0	0	1	0	0	66.7135	0.382703	0.382976	-0.200833	3	0.0111694	12	0	6.4512	-7.69141e-05
2	0	0	1	0	0	67.0635	0.379203	0.379449	-0.207205	3	0.0110984	12	0	6.8012	-7.86239e-05
2	0	0	1	0	0	67.4135	0.375702	0.37591	-0.211534	3	0.011026	12	0	7.1512	-7.95178e-05
2	0	0	1	0	0	67.7637	0.372201	0.372457	-0.212872	3	0.010952	12	0	7.5014	-7.92855e-05
2	0	0	1	0	0	68.1137	0.368701	0.368954	-0.214943	3	0.0108765	12	0	7.8514	-7.93041e-05
2	0	0	1	0	0	68.4637	0.3652	0.36548	-0.220481	3	0.0107995	12	0	8.2014	-8.05813e-05
2	0	0	1	0	0	68.8137	0.3617	0.361978	-0.227074	3	0.010721	12	0	8.5514	-8.21957e-05
2	0	0	1	0	0	69.1639	0.358199	0.358452	-0.234392	3	0.0106409	12	0	8.9016	-8.40184e-05
2	0	0	1	0	0	69.5139	0.354698	0.354934	-0.236792	3	0.0105591	12	0	9.2516	-8.40455e-05
2	0	0	1	0	0	69.8639	0.351198	0.351445	-0.238811	3	0.0104759	12	0	9.6016	-8.39291e-05
2	0	0	1	0	1	70.1591	0.351798	0.352079	-0.0336479	4	0.0104256	12	0	9.8968	-1.18467e-05
2	1	0	1	0	1	70.5091	0.355298	0.355579	0.139319	4	0.0104503	12	0	0.25	4.9539e-05
2	1	0	1	0	1	70.8591	0.358799	0.359053	0.196155	4	0.0105117	12	0	0.6	7.043e-05
2	1	0	1	0	1	71.2093	0.3623	0.362569	0.217832	4	0.0105855	12	0	0.9502	7.89793e-05
2	1	0	1	0	1	71.5593	0.3658	0.366032	0.227557	4	0.0106633	12	0	1.3002	8.32931e-05
2	1	0	1	0	1	71.9093	0.369301	0.36958	0.229108	4	0.0107425	12	0	1.6502	8.46739e-05
2	1	0	1	0	1	72.2595	0.372802	0.373066	0.227229	4	0.010822	12	0	2.0004	8.47714e-05
2	1	0	1	0	1	72.6095	0.376302	0.37656	0.223336	4	0.0109012	12	0	2.3504	8.40995e-05
2	1	0	1	0	1	72.9595	0.379803	0.380099	0.222199	4	0.0109801	12	0	2.7004	8.44577e-05
2	1	0	1	0	1	73.3095	0.383303	0.383545	0.222407	4	0.0110583	12	0	3.0504	8.53032e-05
2	1	0	1	0	1	73.6597	0.386804	0.387036	0.223055	4	0.0111358	12	0	3.4006	8.63304e-05
2	1	0	1	0	1	74.0097	0.390305	0.390618	0.220523	4	0.0112126	12	0	3.7506	8.61402e-05
2	1	0	1	0	1	74.3597	0.393805	0.394108	0.216153	4	0.0112887	12	0	4.1006	8.51877e-05
2	1	0	1	0	1	74.7099	0.397306	0.397523	0.2118	4	0.0113642	12	0	4.4508	8.41954e-05
2	1	0	1	0	1	75.0599	0.400807	0.401084	0.210371	4	0.011439	12	0	4.8008	8.43764e-05
2	1	0	1	0	1	75.4099	0.404307	0.404554	0.211228	4	0.0115129	12	0	5.1508	8.5453e-05
2	1	0	1	0	1	75.7601	0.407808	0.408035	0.210826	4	0.0115862	12	0	5.501	8.60245e-05
2	1	0	1	0	1	76.1101	0.411308	0.41161	0.209711	4	0.011659	12	0	5.851	8.6319e-05
2	1	0	1	0	1	76.4601	0.414809	0.415083	0.204013	4	0.0117312	12	0	6.201	8.46823e-05
2	1	0	1	0	1	76.8103	0.41831	0.418574	0.200711	4	0.0118028	12	0	6.5512	8.40125e-05
2	1	0	1	0	1	77.1603	0.42181	0.42206	0.200284	4	0.0118737	12	0	6.9012	8.45318e-05
2	1	0	1	0	1	77.5103	0.425311	0.425575	0.201954	4	0.0119442	12	0	7.2512	8.59465e-05
2	1	0	1	0	1	77.8604	0.428811	0.429037	0.202058	4	0.0120141	12	0	7.6013	8.66904e-05
2	1	0	1	0	1	78.2105	0.432312	0.432516	0.199846	4	0.0120838	12	0	7.9514	8.64367e-05
2	1	0	1	0	1	78.5605	0.435813	0.436093	0.196258	4	0.0121531	12	0	8.3014	8.55868e-05
2	1	0	1	0	1	78.9105	0.439313	0.439574	0.194222	4	0.0122222	12	0	8.6514	8.53749e-05
2	1	0	1	0	1	79.2607	0.442814	0.443052	0.196156	4	0.0122912	12	0	9.0016	8.69072e-05
2	1	0	1	0	1	79.6107	0.446315	0.446572	0.198369	4	0.01236	12	0	9.3516	8.85858e-05
2	1	0	1	0	1	79.9557	0.449765	0.450034	0.20082	4	0.0124279	12	0	9.6966	9.03758e-05
2	0	0	1	0	1	80.2545	0.447215	0.447475	-0.0374258	4	0.0124466	12	0	0.05	-1.67471e-05
2	0	0	1	0	1	80.6045	0.443714	0.443942	-0.108176	4	0.012419	12	0	0.4	-4.8024e-05
2	0	0	1	0	1	80.9545	0.440214	0.440478	-0.125369	4	0.012378	12	0	0.75	-5.52222e-05
2	0	0	1	0	1	81.3047	0.436713	0.436984	-0.132275	4	0.0123325	12	0	1.1002	-5.78021e-05
2	0	0	1	0	1	81.6547	0.433212	0.433456	-0.138482	4	0.0122842	12	0	1.4502	-6.0026e-05
2	0	0	1	0	1	82.0047	0.429712	0.429963	-0.146339	4	0.0122338	12	0	1.8002	-6.29203e-05
2	0	0	1	0	1	82.3549	0.426211	0.426485	-0.153468	4	0.0121815	12	0	2.1504	-6.54517e-05
2	0	0	1	0	1	82.7049	0.42271	0.422967	-0.158627	4	0.0121278	12	0	2.5004	-6.70942e-05
2	0	0	1	0	1	83.0549	0.41921	0.419476	-0.159871	4	0.0120724	12	0	2.8504	-6.70619e-05
2	0	0	1	0	1	83.4051	0.415709	0.415993	-0.162054	4	0.0120156	12	0	3.2006	-6.74135e-05
2	0	0	1	0	1	83.7551	0.412209	0.412472	-0.165721	4	0.0119574	12	0	3.5506	-6.83554e-05
2	0	0	1	0	1	84.1051	0.408708	0.408966	-0.173218	4	0.0118976	12	0	3.9006	-7.08403e-05
2	0	0	1	0	1	84.4553	0.405207	0.405468	-0.178162	4	0.0118366	12	0	4.2508	-7.2239e-05
2	0	0	1	0	1	84.8053	0.401707	0.40192	-0.181963	4	0.0117744	12	0	4.6008	-7.31348e-05
2	0	0	1	0	1	85.1553	0.398206	0.398439	-0.182928	4	0.0117109	12	0	4.9508	-7.28857e-05
2	0	0	1	0	1	85.5055	0.394705	0.394961	-0.184963	4	0.0116459	12	0	5.301	-7.30533e-05
2	0	0	1	0	1	85.8555	0.391205	0.391468	-0.188957	4	0.0115797	12	0	5.651	-7.39707e-05
2	0	0	1	0	1	86.2055	0.387704	0.38794	-0.195516	4	0.011512	12	0	6.001	-7.58487e-05
2	0	0	1	0	1	86.5555	0.384204	0.384442	-0.201523	4	0.0114431	12	0	6.351	-7.74741e-05
2	0	0	1	0	1	86.9057	0.380703	0.380977	-0.204671	4	0.0113729	12	0	6.7012	-7.79748e-05
2	0	0	1	0	1	87.2557	0.377202	0.377444	-0.206364	4	0.0113011	12	0	7.0512	-7.78907e-05
2	0	0	1	0	1	87.6057	0.373702	0.373928	-0.20837	4	0.0112279	12	0	7.4012	-7.79154e-05
2	0	0	1	0	1	87.9559	0.370201	0.370453	-0.213456	4	0.0111533	12	0	7.7514	-7.90754e-05
2	0	0	1	0	1	88.3059	0.3667	0.36696	-0.220707	4	0.0110772	12	0	8.1014	-8.09906e-05
2	0	0	1	0	1	88.6559	0.3632	0.36346	-0.226614	4	0.0109996	12	0	8.4514	-8.23654e-05
2	0	0	1	0	1	89.0061	0.359699	0.359984	-0.229731	4	0.0109204	12	0	8.8016	-8.26997e-05
2	0	0	1	0	1	89.3561	0.356199	0.356457	-0.231391	4	0.0108397	12	0	9.1516	-8.24807e-05
2	0	0	1	0	1	89.7061	0.352698	0.352922	-0.234411	4	0.0107575	12	0	9.5016	-8.2729e-05
2	0	0	1	0	0	90.0013	0.350298	0.350612	-0.201448	5	0.0106879	12	0	9.7968	-7.06303e-05
2	1	0	1	0	0	90.3513	0.353798	0.354076	0.0862561	5	0.0106788	12	0	0.1	3.05412e-05
2	1	0	1	0	0	90.7013	0.357299	0.35757	0.178294	5	0.0107289	12	0	0.45	6.37527e-05
2	1	0	1	0	0	91.0513	0.360799	0.361064	0.212159	5	0.0107981	12	0	0.8	7.66027e-05
2	1	0	1	0	0	91.4015	0.3643	0.364564	0.222372	5	0.0108736	12	0	1.1502	8.10688e-05
2	1	0	1	0	0	91.7515	0.367801	0.368099	0.223656	5	0.0109513	12	0	1.5002	8.23278e-05
2	1	0	1	0	0	92.1015	0.371301	0.371552	0.221165	5	0.0110294	12	0	1.8502	8.21741e-05
2	1	0	1	0	0	92.4517	0.374802	0.375049	0.21967	5	0.0111075	12	0	2.2004	8.23869e-05
2	1	0	1	0	0	92.8017	0.378303	0.378558	0.220461	5	0.0111851	12	0	2.5504	8.34573e-05
2	1	0	1	0	0	93.1517	0.381803	0.382038	0.221108	5	0.0112621	12	0	2.9004	8.44717e-05
2	1	0	1	0	0	93.5019	0.385304	0.385551	0.21938	5	0.0113384	12	0	3.2506	8.4582e-05
2	1	0	1	0	0	93.8519	0.388804	0.389018	0.215313	5	0.0114139	12	0	3.6006	8.37607e-05
2	1	0	1	0	0	94.2019	0.392305	0.392574	0.21069	5	0.0114889	12	0	3.9506	8.27115e-05
2	1	0	1	0	0	94.5521	0.395806	0.396074	0.208103	5	0.011563	12	0	4.3008	8.2424e-05
2	1	0	1	0	0	94.9021	0.399306	0.39956	0.208726	5	0.0116365	12	0	4.6508	8.33984e-05
2	1	0	1	0	0	95.2521	0.402807	0.403049	0.208818	5	0.0117091	12	0	5.0008	8.41642e-05
2	1	0	1	0	0	95.6022	0.406307	0.406579	0.206713	5	0.011781	12	0	5.3509	8.40451e-05
2	1	0	1	0	0	95.9523	0.409808	0.410075	0.202264	5	0.0118522	12	0	5.701	8.29433e-05
2	1	0	1	0	0	96.3023	0.413309	0.413558	0.198291	5	0.0119231	12	0	6.051	8.20049e-05
2	1	0	1	0	0	96.6523	0.416809	0.41705	0.197151	5	0.0119931	12	0	6.401	8.22218e-05
2	1	0	1	0	0	97.0025	0.42031	0.420553	0.197713	5	0.0120625	12	0	6.7512	8.31487e-05
2	1	0	1	0	0	97.3525	0.423811	0.424103	0.198594	5	0.0121313	12	0	7.1012	8.42244e-05
2	1	0	1	0	0	97.7025	0.427311	0.427578	0.196165	5	0.0121996	12	0	7.4512	8.3876e-05
2	1	0	1	0	0	98.0527	0.430812	0.43106	0.192832	5	0.0122675	12	0	7.8014	8.31222e-05
2	1	0	1	0	0	98.4027	0.434312	0.434572	0.189376	5	0.012335	12	0	8.1514	8.22978e-05
2	1	0	1	0	0	98.7527	0.437813	0.438068	0.189735	5	0.0124022	12	0	8.5014	8.3117e-05
2	1	0	1	0	0	99.1029	0.441314	0.441577	0.191777	5	0.0124691	12	0	8.8516	8.46843e-05
2	1	0	1	0	0	99.4529	0.444814	0.445054	0.193337	5	0.0125358	12	0	9.2016	8.60455e-05
2	1	0	1	0	0	99.8029	0.448315	0.44855	0.191859	5	0.0126024	12	0	9.5516	8.60582e-05
2	1	0	1	0	0	100.097	0.448715	0.44891	0.0421198	5	0.0126476	12	0	9.8454	1.8908e-05
2	0	0	1	0	0	100.447	0.445214	0.445446	-0.0925955	5	0.0126329	12	0	0.25	-4.12463e-05
2	0	0	1	0	0	100.797	0.441714	0.441958	-0.121051	5	0.0125944	12	0	0.6	-5.34995e-05
2	0	0	1	0	0	101.147	0.438213	0.438413	-0.130856	5	0.0125493	12	0	0.9502	-5.73692e-05
2	0	0	1	0	0	101.497	0.434713	0.434954	-0.139736	5	0.0125012	12	0	1.3002	-6.07786e-05
2	0	0	1	0	0	101.847	0.431212	0.431438	-0.147605	5	0.012451	12	0	1.6502	-6.36825e-05
2	0	0	1	0	0	102.197	0.427711	0.427952	-0.153756	5	0.0123989	12	0	2.0004	-6.58002e-05
2	0	0	1	0	0	102.547	0.424211	0.424479	-0.156154	5	0.0123454	12	0	2.3504	-6.6284e-05
2	0	0	1	0	0	102.897	0.42071	0.420965	-0.157856	5	0.0122902	12	0	2.7004	-6.64519e-05
2	0	0	1	0	0	103.247	0.41721	0.417452	-0.160506	5	0.0122336	12	0	3.0505	-6.70038e-05
2	0	0	1	0	0	103.597	0.413709	0.413989	-0.166307	5	0.0121758	12	0	3.4006	-6.88491e-05
2	0	0	1	0	0	103.947	0.410208	0.410465	-0.17339	5	0.0121167	12	0	3.7506	-7.11706e-05
2	0	0	1	0	0	104.297	0.406708	0.406953	-0.177122	5	0.012056	12	0	4.1006	-7.20804e-05
2	0	0	1	0	0	104.647	0.403207	0.403463	-0.178808	5	0.0119943	12	0	4.4508	-7.21426e-05
2	0	0	1	0	0	104.997	0.399706	0.399979	-0.179791	5	0.0119313	12	0	4.8008	-7.19127e-05
2	0	0	1	0	0	105.347	0.396206	0.39646	-0.183045	5	0.011867	12	0	5.1508	-7.25702e-05
2	0	0	1	0	0	105.698	0.392705	0.392976	-0.188304	5	0.0118014	12	0	5.501	-7.3999e-05
2	0	0	1	0	0	106.048	0.389205	0.389424	-0.194931	5	0.0117346	12	0	5.851	-7.59108e-05
2	0	0	1	0	0	106.398	0.385704	0.385939	-0.199207	5	0.0116664	12	0	6.201	-7.68817e-05
2	0	0	1	0	0	106.748	0.382203	0.382456	-0.200991	5	0.0115969	12	0	6.5512	-7.68703e-05
2	0	0	1	0	0	107.098	0.378703	0.378946	-0.202477	5	0.011526	12	0	6.9012	-7.6728e-05
2	0	0	1	0	0	107.448	0.375202	0.375463	-0.205958	5	0.0114537	12	0	7.2512	-7.73295e-05
2	0	0	1	0	0	107.798	0.371701	0.371954	-0.212253	5	0.01138	12	0	7.6014	-7.89484e-05
2	0	0	1	0	0	108.148	0.368201	0.368443	-0.218419	5	0.0113049	12	0	7.9514	-8.04748e-05
2	0	0	1	0	0	108.498	0.3647	0.364959	-0.223588	5	0.0112283	12	0	8.3014	-8.16004e-05
2	0	0	1	0	0	108.848	0.3612	0.36147	-0.225577	5	0.0111503	12	0	8.6515	-8.15394e-05
2	0	0	1	0	0	109.198	0.357699	0.357932	-0.227852	5	0.0110706	12	0	9.0016	-8.15557e-05
2	0	0	1	0	0	109.548	0.354198	0.354446	-0.231264	5	0.0109895	12	0	9.3516	-8.19706e-05
2	0	0	1	0	0	109.898	0.350698	0.350961	-0.237889	5	0.0109067	12	0	9.7016	-8.34896e-05
2	0	0	1	0	1	110.193	0.352298	0.352539	0.00141498	6	0.0108682	12	0	9.9968	4.98838e-07
2	1	0	1	0	1	110.543	0.355799	0.356045	0.150622	6	0.0109004	12	0	0.3	5.36283e-05
2	1	0	1	0	1	110.893	0.359299	0.35958	0.201514	6	0.0109631	12	0	0.65	7.24606e-05
2	1	0	1	0	1	111.244	0.3628	0.363087	0.216885	6	0.0110361	12	0	1.0002	7.87482e-05
2	1	0	1	0	1	111.594	0.3663	0.36661	0.220292	6	0.0111123	12	0	1.3502	8.0761e-05
2	1	0	1	0	1	111.944	0.369801	0.370064	0.218471	6	0.0111895	12	0	1.7002	8.08485e-05
2	1	0	1	0	1	112.294	0.373302	0.373526	0.217655	6	0.0112668	12	0	2.0504	8.12997e-05
2	1	0	1	0	1	112.644	0.376802	0.377047	0.218306	6	0.0113436	12	0	2.4004	8.23115e-05
2	1	0	1	0	1	112.994	0.380303	0.380534	0.219253	6	0.0114198	12	0	2.7504	8.34335e-05
2	1	0	1	0	1	113.344	0.383803	0.384048	0.217072	6	0.0114954	12	0	3.1005	8.33661e-05
2	1	0	1	0	1	113.694	0.387304	0.387565	0.213014	6	0.0115702	12	0	3.4506	8.25568e-05
2	1	0	1	0	1	114.044	0.390805	0.391057	0.208065	6	0.0116442	12	0	3.8006	8.13652e-05
2	1	0	1	0	1	114.394	0.394305	0.394587	0.205848	6	0.0117176	12	0	4.1506	8.12249e-05
2	1	0	1	0	1	114.744	0.397806	0.39806	0.20625	6	0.0117902	12	0	4.5008	8.20999e-05
2	1	0	1	0	1	115.094	0.401307	0.401511	0.205969	6	0.0118619	12	0	4.8508	8.2699e-05
2	1	0	1	0	1	115.444	0.404807	0.40506	0.204387	6	0.0119329	12	0	5.2008	8.2789e-05
2	1	0	1	0	1	115.794	0.408308	0.408587	0.199765	6	0.0120032	12	0	5.551	8.16213e-05
2	1	0	1	0	1	116.144	0.411809	0.412062	0.196547	6	0.0120731	12	0	5.901	8.09894e-05
2	1	0	1	0	1	116.494	0.415309	0.415601	0.193781	6	0.0121422	12	0	6.251	8.05355e-05
2	1	0	1	0	1	116.845	0.41881	0.419101	0.194179	6	0.0122106	12	0	6.6012	8.13804e-05
2	1	0	1	0	1	117.195	0.42231	0.422623	0.195005	6	0.0122783	12	0	6.9512	8.24137e-05
2	1	0	1	0	1	117.545	0.425811	0.426114	0.1937	6	0.0123455	12	0	7.3012	8.25384e-05
2	1	0	1	0	1	117.895	0.429312	0.429606	0.189969	6	0.0124121	12	0	7.6514	8.16116e-05
2	1	0	1	0	1	118.245	0.432812	0.433068	0.186113	6	0.0124785	12	0	8.0014	8.05997e-05
2	1	0	1	0	1	118.595	0.436313	0.436551	0.185292	6	0.0125443	12	0	8.3514	8.08894e-05
2	1	0	1	0	1	118.945	0.439813	0.440063	0.186492	6	0.0126099	12	0	8.7015	8.20682e-05
2	1	0	1	0	1	119.295	0.443314	0.443547	0.188576	6	0.0126752	12	0	9.0516	8.36423e-05
2	1	0	1	0	1	119.645	0.446815	0.447054	0.188042	6	0.0127402	12	0	9.4016	8.4065e-05
2	1	0	1	0	1	119.961	0.44999	0.450128	0.185067	6	0.012799	12	0	9.7179	8.33039e-05
2	0	0	1	0	1	120.289	0.446715	0.446979	-0.0626956	6	0.0128084	12	0	0.1	-2.80236e-05
2	0	0	1	0	1	120.639	0.443214	0.443481	-0.115496	6	0.0127754	12	0	0.45	-5.12202e-05
2	0	0	1	0	1	120.989	0.439714	0.439966	-0.129271	6	0.0127316	12	0	0.8001	-5.68747e-05
2	0	0	1	0	1	121.339	0.436213	0.43646	-0.136921	6	0.0126841	12	0	1.1502	-5.97606e-05
2	0	0	1	0	1	121.689	0.432712	0.432949	-0.144656	6	0.0126342	12	0	1.5002	-6.26289e-05
2	0	0	1	0	1	122.039	0.429212	0.429496	-0.152155	6	0.0125827	12	0	1.8502	-6.53502e-05
2	0	0	1	0	1	122.389	0.425711	0.425978	-0.15645	6	0.0125295	12	0	2.2004	-6.66444e-05
2	0	0	1	0	1	122.739	0.42221	0.42245	-0.158458	6	0.0124748	12	0	2.5504	-6.69407e-05
2	0	0	1	0	1	123.089	0.41871	0.418972	-0.159496	6	0.0124188	12	0	2.9004	-6.68243e-05
2	0	0	1	0	1	123.439	0.415209	0.415498	-0.163234	6	0.0123614	12	0	3.2506	-6.78236e-05
2	0	0	1	0	1	123.789	0.411708	0.411928	-0.168749	6	0.0123028	12	0	3.6006	-6.95124e-05
2	0	0	1	0	1	124.139	0.408208	0.408444	-0.17569	6	0.0122426	12	0	3.9506	-7.17593e-05
2	0	0	1	0	1	124.49	0.404707	0.404914	-0.178529	6	0.0121815	12	0	4.3008	-7.2289e-05
2	0	0	1	0	1	124.84	0.401207	0.401436	-0.180524	6	0.0121192	12	0	4.6508	-7.24686e-05
2	0	0	1	0	1	125.19	0.397706	0.397948	-0.181301	6	0.0120556	12	0	5.0008	-7.21485e-05
2	0	0	1	0	1	125.54	0.394205	0.394423	-0.1844	6	0.0119906	12	0	5.351	-7.27316e-05
2	0	0	1	0	1	125.89	0.390705	0.39098	-0.190142	6	0.0119246	12	0	5.701	-7.43416e-05
2	0	0	1	0	1	126.24	0.387204	0.387445	-0.196019	6	0.0118571	12	0	6.051	-7.59467e-05
2	0	0	1	0	1	126.59	0.383703	0.383999	-0.200702	6	0.0117884	12	0	6.4011	-7.70694e-05
2	0	0	1	0	1	126.94	0.380203	0.380491	-0.202736	6	0.0117184	12	0	6.7512	-7.71391e-05
2	0	0	1	0	1	127.29	0.376702	0.376931	-0.204327	6	0.011647	12	0	7.1012	-7.70174e-05
2	0	0	1	0	1	127.64	0.373202	0.373444	-0.207298	6	0.0115742	12	0	7.4512	-7.7414e-05
2	0	0	1	0	1	127.99	0.369701	0.369933	-0.212851	6	0.0114999	12	0	7.8014	-7.87407e-05
2	0	0	1	0	1	128.34	0.3662	0.366483	-0.219641	6	0.0114243	12	0	8.1514	-8.04948e-05
2	0	0	1	0	1	128.69	0.3627	0.362952	-0.225311	6	0.0113472	12	0	8.5014	-8.1777e-05
2	0	0	1	0	1	129.04	0.359199	0.359469	-0.227788	6	0.0112687	12	0	8.8516	-8.18828e-05
2	0	0	1	0	1	129.39	0.355699	0.355929	-0.229665	6	0.0111885	12	0	9.2016	-8.17446e-05
2	0	0	1	0	1	129.74	0.352198	0.352443	-0.233041	6	0.0111068	12	0	9.5516	-8.21336e-05
2	0	0	1	0	0	130.036	0.350798	0.351036	-0.135849	7	0.0110415	12	0	9.8468	-4.76877e-05
2	1	0	1	0	0	130.386	0.354298	0.354556	0.103178	7	0.011045	12	0	0.15	3.65823e-05
2	1	0	1	0	0	130.736	0.357799	0.358044	0.181045	7	0.0110981	12	0	0.5	6.4822e-05
2	1	0	1	0	0	131.086	0.361299	0.361571	0.209714	7	0.0111675	12	0	0.8501	7.58267e-05
2	1	0	1	0	0	131.436	0.3648	0.365003	0.219227	7	0.0112421	12	0	1.2002	8.00184e-05
2	1	0	1	0	0	131.786	0.368301	0.36857	0.220705	7	0.0113184	12	0	1.5502	8.13453e-05
2	1	0	1	0	0	132.136	0.371801	0.372053	0.217742	7	0.011395	12	0	1.9002	8.10115e-05
2	1	0	1	0	0	132.486	0.375302	0.37553	0.214537	7	0.0114714	12	0	2.2504	8.0565e-05
2	1	0	1	0	0	132.836	0.378803	0.379033	0.213753	7	0.0115472	12	0	2.6004	8.10196e-05
2	1	0	1	0	0	133.186	0.382303	0.382596	0.214051	7	0.0116223	12	0	2.9504	8.18951e-05
2	1	0	1	0	0	133.536	0.385804	0.38608	0.213776	7	0.0116966	12	0	3.3006	8.25348e-05
2	1	0	1	0	0	133.886	0.389305	0.389581	0.21099	7	0.0117701	12	0	3.6506	8.21977e-05
2	1	0	1	0	0	134.236	0.392805	0.393096	0.206656	7	0.0118429	12	0	4.0006	8.12358e-05
2	1	0	1	0	0	134.586	0.396306	0.396513	0.201938	7	0.011915	12	0	4.3508	8.00712e-05
2	1	0	1	0	0	134.936	0.399806	0.400079	0.200312	7	0.0119863	12	0	4.7008	8.01406e-05
2	1	0	1	0	0	135.286	0.403307	0.403551	0.200244	7	0.0120567	12	0	5.0508	8.08088e-05
2	1	0	1	0	0	135.637	0.406808	0.407073	0.200303	7	0.0121265	12	0	5.401	8.15379e-05
2	1	0	1	0	0	135.987	0.410308	0.410562	0.19964	7	0.0121954	12	0	5.751	8.19646e-05
2	1	0	1	0	0	136.337	0.413809	0.414106	0.194537	7	0.012264	12	0	6.101	8.05592e-05
2	1	0	1	0	0	136.687	0.417309	0.417591	0.190405	7	0.0123317	12	0	6.4511	7.95115e-05
2	1	0	1	0	0	137.037	0.42081	0.421053	0.188006	7	0.0123988	12	0	6.8012	7.91603e-05
2	1	0	1	0	0	137.387	0.424311	0.424578	0.188706	7	0.0124652	12	0	7.1512	8.01204e-05
2	1	0	1	0	0	137.737	0.427811	0.428092	0.189397	7	0.0125311	12	0	7.5012	8.10793e-05
2	1	0	1	0	0	138.087	0.431312	0.43158	0.1888	7	0.0125965	12	0	7.8514	8.14824e-05
2	1	0	1	0	0	138.437	0.434813	0.435083	0.185603	7	0.0126614	12	0	8.2014	8.07527e-05
2	1	0	1	0	0	138.787	0.438313	0.438587	0.182311	7	0.0127261	12	0	8.5514	7.99591e-05
2	1	0	1	0	0	139.137	0.441814	0.442073	0.180488	7	0.0127903	12	0	8.9016	7.97888e-05
2	1	0	1	0	0	139.487	0.445314	0.445577	0.181722	7	0.0128544	12	0	9.2516	8.09714e-05
2	1	0	1	0	0	139.837	0.448815	0.449076	0.184261	7	0.0129183	12	0	9.6016	8.27472e-05
2	1	0	1	0	0	140.131	0.448215	0.4485	0.00486188	7	0.0129531	12	0	9.8954	2.18055e-06
2	0	0	1	0	0	140.481	0.444714	0.444979	-0.103731	7	0.0129309	12	0	0.3	-4.61581e-05
2	0	0	1	0	0	140.831	0.441214	0.441439	-0.130694	7	0.0128897	12	0	0.65	-5.76935e-05
2	0	0	1	0	0	141.181	0.437713	0.437981	-0.138636	7	0.0128431	12	0	1.0002	-6.07198e-05
2	0	0	1	0	0	141.531	0.434212	0.434494	-0.142634	7	0.0127938	12	0	1.3502	-6.19736e-05
2	0	0	1	0	0	141.881	0.430712	0.430955	-0.145707	7	0.0127426	12	0	1.7002	-6.27932e-05
2	0	0	1	0	0	142.231	0.427211	0.427467	-0.151389	7	0.0126897	12	0	2.0504	-6.47137e-05
2	0	0	1	0	0	142.581	0.423711	0.423964	-0.157743	7	0.0126356	12	0	2.4004	-6.68774e-05
2	0	0	1	0	0	142.931	0.42021	0.420452	-0.163403	7	0.01258	12	0	2.7504	-6.87033e-05
2	0	0	1	0	0	143.282	0.416709	0.416948	-0.165538	7	0.0125233	12	0	3.1006	-6.90207e-05
2	0	0	1	0	0	143.632	0.413209	0.413485	-0.166244	7	0.0124652	12	0	3.4506	-6.87395e-05
2	0	0	1	0	0	143.982	0.409708	0.409926	-0.169877	7	0.0124058	12	0	3.8006	-6.9637e-05
2	0	0	1	0	0	144.332	0.406207	0.406439	-0.172813	7	0.012345	12	0	4.1507	-7.02379e-05
2	0	0	1	0	0	144.682	0.402707	0.402927	-0.179227	7	0.0122833	12	0	4.5008	-7.22153e-05
2	0	0	1	0	0	145.032	0.399206	0.399443	-0.184039	7	0.0122204	12	0	4.8508	-7.35132e-05
2	0	0	1	0	0	145.382	0.395706	0.395945	-0.187063	7	0.0121562	12	0	5.2008	-7.40665e-05
2	0	0	1	0	0	145.732	0.392205	0.392462	-0.187628	7	0.0120908	12	0	5.551	-7.36371e-05
2	0	0	1	0	0	146.082	0.388704	0.388959	-0.18965	7	0.0120241	12	0	5.901	-7.37661e-05
2	0	0	1	0	0	146.432	0.385204	0.385442	-0.194042	7	0.0119562	12	0	6.251	-7.47918e-05
2	0	0	1	0	0	146.782	0.381703	0.381966	-0.199751	7	0.0118869	12	0	6.6012	-7.6298e-05
2	0	0	1	0	0	147.132	0.378203	0.378425	-0.206399	7	0.0118165	12	0	6.9512	-7.81067e-05
2	0	0	1	0	0	147.482	0.374702	0.374951	-0.209493	7	0.0117445	12	0	7.3012	-7.85497e-05
2	0	0	1	0	0	147.832	0.371201	0.371457	-0.211318	7	0.0116712	12	0	7.6514	-7.84955e-05
2	0	0	1	0	0	148.182	0.367701	0.367972	-0.212779	7	0.0115964	12	0	8.0014	-7.82967e-05
2	0	0	1	0	0	148.532	0.3642	0.364479	-0.217624	7	0.0115202	12	0	8.3514	-7.93195e-05
2	0	0	1	0	0	148.883	0.360699	0.360985	-0.223345	7	0.0114426	12	0	8.7016	-8.06242e-05
2	0	0	1	0	0	149.233	0.357199	0.357437	-0.230494	7	0.0113634	12	0	9.0516	-8.23869e-05
2	0	0	1	0	0	149.583	0.353698	0.35395	-0.234889	7	0.0112828	12	0	9.4016	-8.31392e-05
2	0	0	1	0	0	149.928	0.350248	0.350501	-0.23942	7	0.0112018	12	0	9.7466	-8.39169e-05
2	1	0	1	0	1	150.228	0.352798	0.353091	0.0380359	8	0.0111752	12	0	0.000000000000000E+000	1.34301e-05
2	1	0	1	0	1	150.578	0.356299	0.356566	0.159219	8	0.0112135	12	0	0.35	5.67722e-05
2	1	0	1	0	1	150.928	0.359799	0.360065	0.197989	8	0.0112776	12	0	0.7	7.12891e-05
2	1	0	1	0	1	151.278	0.3633	0.363571	0.21042	8	0.0113504	12	0	1.0502	7.65024e-05
2	1	0	1	0	1	151.628	0.366801	0.367056	0.216245	8	0.0114258	12	0	1.4002	7.93741e-05
2	1	0	1	0	1	151.978	0.370301	0.370529	0.219079	8	0.0115018	12	0	1.7502	8.11752e-05
2	1	0	1	0	1	152.328	0.373802	0.374061	0.218928	8	0.0115778	12	0	2.1004	8.18924e-05
2	1	0	1	0	1	152.678	0.377302	0.37756	0.21551	8	0.0116532	12	0	2.4504	8.1368e-05
2	1	0	1	0	1	153.028	0.380803	0.381088	0.211213	8	0.011728	12	0	2.8004	8.04908e-05
2	1	0	1	0	1	153.378	0.384304	0.384568	0.207824	8	0.0118021	12	0	3.1506	7.99224e-05
2	1	0	1	0	1	153.728	0.387804	0.388077	0.206765	8	0.0118754	12	0	3.5006	8.02406e-05
2	1	0	1	0	1	154.078	0.391305	0.391567	0.207601	8	0.0119478	12	0	3.8506	8.12897e-05
2	1	0	1	0	1	154.429	0.394806	0.395085	0.205963	8	0.0120196	12	0	4.2007	8.13728e-05
2	1	0	1	0	1	154.779	0.398306	0.39855	0.203284	8	0.0120904	12	0	4.5508	8.10188e-05
2	1	0	1	0	1	155.129	0.401807	0.402042	0.197975	8	0.0121605	12	0	4.9008	7.95942e-05
2	1	0	1	0	1	155.479	0.405307	0.405549	0.19451	8	0.0122299	12	0	5.2508	7.88833e-05
2	1	0	1	0	1	155.829	0.408808	0.409067	0.192778	8	0.0122985	12	0	5.601	7.88591e-05
2	1	0	1	0	1	156.179	0.412309	0.412631	0.194449	8	0.0123666	12	0	5.951	8.02358e-05
2	1	0	1	0	1	156.529	0.415809	0.416139	0.193411	8	0.0124338	12	0	6.301	8.04861e-05
2	1	0	1	0	1	156.879	0.41931	0.41965	0.191171	8	0.0125004	12	0	6.6512	8.02249e-05
2	1	0	1	0	1	157.229	0.42281	0.423041	0.186866	8	0.0125662	12	0	7.0012	7.90522e-05
2	1	0	1	0	1	157.579	0.426311	0.426536	0.18331	8	0.0126316	12	0	7.3512	7.81884e-05
2	1	0	1	0	1	157.929	0.429812	0.43007	0.182424	8	0.0126965	12	0	7.7014	7.84552e-05
2	1	0	1	0	1	158.279	0.433312	0.433547	0.183478	8	0.0127608	12	0	8.0514	7.95462e-05
2	1	0	1	0	1	158.629	0.436813	0.437047	0.18451	8	0.0128247	12	0	8.4014	8.06395e-05
2	1	0	1	0	1	158.979	0.440314	0.440588	0.183111	8	0.0128883	12	0	8.7516	8.06767e-05
2	1	0	1	0	1	159.329	0.443814	0.444083	0.180415	8	0.0129515	12	0	9.1016	8.01192e-05
2	1	0	1	0	1	159.679	0.447315	0.447571	0.177639	8	0.0130146	12	0	9.4516	7.9506e-05
2	1	0	1	0	1	159.973	0.449715	0.449969	0.141613	8	0.0130665	12	0	9.7454	6.37216e-05
2	0	0	1	0	1	160.323	0.446215	0.446463	-0.0754996	8	0.0130667	12	0	0.15	-3.37078e-05
2	0	0	1	0	1	160.673	0.442714	0.443018	-0.119104	8	0.01303	12	0	0.5	-5.27651e-05
2	0	0	1	0	1	161.023	0.439213	0.439519	-0.134611	8	0.0129847	12	0	0.8502	-5.9164e-05
2	0	0	1	0	1	161.373	0.435713	0.435972	-0.144057	8	0.0129361	12	0	1.2002	-6.28046e-05
2	0	0	1	0	1	161.723	0.432212	0.432514	-0.14929	8	0.0128856	12	0	1.5502	-6.457e-05
2	0	0	1	0	1	162.074	0.428711	0.429013	-0.152135	8	0.0128333	12	0	1.9003	-6.52678e-05
2	0	0	1	0	1	162.424	0.425211	0.4255	-0.153402	8	0.0127796	12	0	2.2504	-6.52726e-05
2	0	0	1	0	1	162.774	0.42171	0.422	-0.156533	8	0.0127246	12	0	2.6004	-6.60569e-05
2	0	0	1	0	1	163.124	0.41821	0.418473	-0.161522	8	0.0126682	12	0	2.9504	-6.75926e-05
2	0	0	1	0	1	163.474	0.414709	0.415037	-0.167751	8	0.0126107	12	0	3.3006	-6.96229e-05
2	0	0	1	0	1	163.824	0.411208	0.411441	-0.17203	8	0.012552	12	0	3.6506	-7.07803e-05
2	0	0	1	0	1	164.174	0.407708	0.40799	-0.174838	8	0.0124918	12	0	4.0006	-7.1332e-05
2	0	0	1	0	1	164.524	0.404207	0.404468	-0.174956	8	0.0124306	12	0	4.3508	-7.07639e-05
2	0	0	1	0	1	164.874	0.400707	0.400942	-0.176958	8	0.0123683	12	0	4.7008	-7.095e-05
2	0	0	1	0	1	165.224	0.397206	0.397483	-0.181953	8	0.0123047	12	0	5.0508	-7.23234e-05
2	0	0	1	0	1	165.574	0.393705	0.393941	-0.187407	8	0.01224	12	0	5.401	-7.38273e-05
2	0	0	1	0	1	165.924	0.390205	0.390449	-0.193107	8	0.0121741	12	0	5.751	-7.53982e-05
2	0	0	1	0	1	166.274	0.386704	0.386976	-0.195409	8	0.0121069	12	0	6.101	-7.56185e-05
2	0	0	1	0	1	166.624	0.383203	0.383449	-0.196683	8	0.0120384	12	0	6.4512	-7.5418e-05
2	0	0	1	0	1	166.974	0.379703	0.379988	-0.19856	8	0.0119686	12	0	6.8012	-7.54503e-05
2	0	0	1	0	1	167.324	0.376202	0.376456	-0.20322	8	0.0118974	12	0	7.1512	-7.65035e-05
2	0	0	1	0	1	167.675	0.372701	0.372952	-0.209395	8	0.0118249	12	0	7.5013	-7.80942e-05
2	0	0	1	0	1	168.025	0.369201	0.369488	-0.215729	8	0.011751	12	0	7.8514	-7.97094e-05
2	0	0	1	0	1	168.375	0.3657	0.365981	-0.219052	8	0.0116758	12	0	8.2014	-8.01689e-05
2	0	0	1	0	1	168.725	0.3622	0.362451	-0.22108	8	0.011599	12	0	8.5514	-8.01306e-05
2	0	0	1	0	1	169.075	0.358699	0.358953	-0.223645	8	0.0115208	12	0	8.9016	-8.02779e-05
2	0	0	1	0	1	169.425	0.355198	0.355456	-0.227545	8	0.0114409	12	0	9.2516	-8.08824e-05
2	0	0	1	0	1	169.775	0.351698	0.351976	-0.234478	8	0.0113597	12	0	9.6016	-8.25305e-05
2	0	0	1	0	0	170.07	0.351298	0.351575	-0.0815111	9	0.0113015	12	0	9.8968	-2.86573e-05
2	1	0	1	0	0	170.42	0.354798	0.355089	0.122566	9	0.0113161	12	0	0.2	4.35217e-05
2	1	0	1	0	0	170.77	0.358299	0.358556	0.189047	9	0.0113723	12	0	0.55	6.7784e-05
2	1	0	1	0	0	171.12	0.3618	0.362107	0.210467	9	0.0114422	12	0	0.9002	7.62113e-05
2	1	0	1	0	0	171.47	0.3653	0.365605	0.214796	9	0.0115163	12	0	1.2502	7.85304e-05
2	1	0	1	0	0	171.82	0.368801	0.369056	0.213837	9	0.0115919	12	0	1.6002	7.89179e-05
2	1	0	1	0	0	172.17	0.372302	0.372572	0.213138	9	0.0116675	12	0	1.9503	7.94095e-05
2	1	0	1	0	0	172.52	0.375802	0.376083	0.213395	9	0.0117427	12	0	2.3004	8.02544e-05
2	1	0	1	0	0	172.87	0.379303	0.379577	0.214248	9	0.0118173	12	0	2.6504	8.13235e-05
2	1	0	1	0	0	173.22	0.382803	0.383047	0.212569	9	0.0118912	12	0	3.0004	8.14238e-05
2	1	0	1	0	0	173.571	0.386304	0.386588	0.208445	9	0.0119643	12	0	3.3506	8.05821e-05
2	1	0	1	0	0	173.921	0.389805	0.390083	0.203547	9	0.0120366	12	0	3.7006	7.94003e-05
2	1	0	1	0	0	174.271	0.393305	0.39358	0.200537	9	0.0121081	12	0	4.0506	7.89272e-05
2	1	0	1	0	0	174.621	0.396806	0.397072	0.19987	9	0.0121788	12	0	4.4008	7.93627e-05
2	1	0	1	0	0	174.971	0.400306	0.400573	0.200101	9	0.0122487	12	0	4.7508	8.01551e-05
2	1	0	1	0	0	175.321	0.403807	0.40409	0.199048	9	0.0123178	12	0	5.1008	8.04335e-05
2	1	0	1	0	0	175.671	0.407308	0.407574	0.194956	9	0.0123861	12	0	5.451	7.94588e-05
2	1	0	1	0	0	176.021	0.410808	0.411079	0.192036	9	0.0124537	12	0	5.801	7.89418e-05
2	1	0	1	0	0	176.371	0.414309	0.414559	0.187606	9	0.0125209	12	0	6.151	7.77738e-05
2	1	0	1	0	0	176.721	0.41781	0.418096	0.186956	9	0.0125872	12	0	6.5012	7.81654e-05
2	1	0	1	0	0	177.071	0.42131	0.421591	0.187441	9	0.0126527	12	0	6.8512	7.90232e-05
2	1	0	1	0	0	177.421	0.424811	0.425088	0.187525	9	0.0127177	12	0	7.2012	7.97146e-05
2	1	0	1	0	0	177.771	0.428311	0.428568	0.184622	9	0.012782	12	0	7.5512	7.9123e-05
2	1	0	1	0	0	178.121	0.431812	0.432083	0.180965	9	0.0128459	12	0	7.9014	7.8192e-05
2	1	0	1	0	0	178.471	0.435313	0.435583	0.178121	9	0.0129094	12	0	8.2514	7.75864e-05
2	1	0	1	0	0	178.821	0.438813	0.439092	0.177785	9	0.0129725	12	0	8.6014	7.80641e-05
2	1	0	1	0	0	179.172	0.442314	0.44255	0.17954	9	0.0130352	12	0	8.9516	7.94557e-05
2	1	0	1	0	0	179.522	0.445815	0.446059	0.18038	9	0.0130976	12	0	9.3016	8.04603e-05
2	1	0	1	0	0	179.872	0.449315	0.449599	0.17959	9	0.0131598	12	0	9.6516	8.07436e-05
2	0	0	1	0	0	180.165	0.447715	0.447954	-0.0302063	9	0.0131836	12	0	0.000000000000000E+000	-1.3531e-05
2	0	0	1	0	0	180.515	0.444214	0.444488	-0.112742	9	0.0131557	12	0	0.35	-5.01126e-05
2	0	0	1	0	0	180.865	0.440714	0.44095	-0.131157	9	0.0131126	12	0	0.7	-5.78336e-05
2	0	0	1	0	0	181.216	0.437213	0.437491	-0.137278	9	0.013065	12	0	1.0502	-6.00579e-05
2	0	0	1	0	0	181.566	0.433712	0.433946	-0.143128	9	0.013015	12	0	1.4002	-6.21099e-05
2	0	0	1	0	0	181.916	0.430212	0.430472	-0.149735	9	0.0129633	12	0	1.7502	-6.44568e-05
2	0	0	1	0	0	182.266	0.426711	0.426928	-0.156287	9	0.0129101	12	0	2.1004	-6.67231e-05
2	0	0	1	0	0	182.616	0.423211	0.423472	-0.159645	9	0.0128557	12	0	2.4504	-6.76051e-05
2	0	0	1	0	0	182.966	0.41971	0.419981	-0.161228	9	0.0127999	12	0	2.8004	-6.77128e-05
2	0	0	1	0	0	183.316	0.416209	0.416467	-0.162408	9	0.0127429	12	0	3.1506	-6.76378e-05
2	0	0	1	0	0	183.666	0.412709	0.412961	-0.165195	9	0.0126847	12	0	3.5006	-6.82191e-05
2	0	0	1	0	0	184.016	0.409208	0.409462	-0.171922	9	0.0126251	12	0	3.8506	-7.03954e-05
2	0	0	1	0	0	184.366	0.405707	0.405968	-0.176388	9	0.0125644	12	0	4.2008	-7.16077e-05
2	0	0	1	0	0	184.716	0.402207	0.402442	-0.180582	9	0.0125027	12	0	4.5508	-7.26738e-05
2	0	0	1	0	0	185.066	0.398706	0.398971	-0.182054	9	0.0124399	12	0	4.9008	-7.26343e-05
2	0	0	1	0	0	185.416	0.395205	0.395429	-0.182964	9	0.0123757	12	0	5.2509	-7.23495e-05
2	0	0	1	0	0	185.766	0.391705	0.391919	-0.185764	9	0.0123105	12	0	5.601	-7.28044e-05
2	0	0	1	0	0	186.116	0.388204	0.388417	-0.190809	9	0.0122439	12	0	5.951	-7.41134e-05
2	0	0	1	0	0	186.466	0.384704	0.384947	-0.196863	9	0.0121761	12	0	6.301	-7.57819e-05
2	0	0	1	0	0	186.817	0.381203	0.381453	-0.201468	9	0.0121071	12	0	6.6512	-7.68507e-05
2	0	0	1	0	0	187.167	0.377702	0.377916	-0.204584	9	0.0120368	12	0	7.0012	-7.73157e-05
2	0	0	1	0	0	187.517	0.374202	0.374451	-0.205372	9	0.011965	12	0	7.3512	-7.69016e-05
2	0	0	1	0	0	187.867	0.370701	0.370948	-0.208272	9	0.0118919	12	0	7.7014	-7.72581e-05
2	0	0	1	0	0	188.217	0.367201	0.367447	-0.213019	9	0.0118174	12	0	8.0514	-7.8273e-05
2	0	0	1	0	0	188.567	0.3637	0.363973	-0.219923	9	0.0117414	12	0	8.4014	-8.00459e-05
2	0	0	1	0	0	188.917	0.360199	0.360445	-0.225443	9	0.0116641	12	0	8.7516	-8.12596e-05
2	0	0	1	0	0	189.267	0.356699	0.356893	-0.229425	9	0.0115852	12	0	9.1016	-8.18803e-05
2	0	0	1	0	0	189.617	0.353198	0.353452	-0.23111	9	0.0115049	12	0	9.4516	-8.16863e-05
2	0	0	1	0	1	189.935	0.350023	0.350282	-0.240974	9	0.0114305	12	0	9.7695	-8.44088e-05
2	1	0	1	0	1	190.262	0.353298	0.353549	0.062421	10	0.0114121	12	0	0.05	2.20689e-05
2	1	0	1	0	1	190.612	0.356799	0.357034	0.164493	10	0.011456	12	0	0.4	5.87297e-05
2	1	0	1	0	1	190.962	0.360299	0.360556	0.199276	10	0.0115216	12	0	0.75	7.18502e-05
2	1	0	1	0	1	191.312	0.3638	0.364013	0.212376	10	0.0115943	12	0	1.1002	7.73077e-05
2	1	0	1	0	1	191.662	0.367301	0.367552	0.217478	10	0.0116691	12	0	1.4502	7.99345e-05
2	1	0	1	0	1	192.012	0.370801	0.371064	0.217152	10	0.0117443	12	0	1.8002	8.05773e-05
2	1	0	1	0	1	192.363	0.374302	0.37456	0.213674	10	0.0118194	12	0	2.1504	8.00337e-05
2	1	0	1	0	1	192.713	0.377803	0.378063	0.209653	10	0.0118939	12	0	2.5004	7.92622e-05
2	1	0	1	0	1	193.063	0.381303	0.381571	0.207472	10	0.0119678	12	0	2.8504	7.91654e-05
2	1	0	1	0	1	193.413	0.384804	0.385052	0.207336	10	0.0120409	12	0	3.2006	7.98352e-05
2	1	0	1	0	1	193.763	0.388304	0.388597	0.207022	10	0.0121131	12	0	3.5506	8.04482e-05
2	1	0	1	0	1	194.113	0.391805	0.39206	0.205486	10	0.0121844	12	0	3.9006	8.05628e-05
2	1	0	1	0	1	194.463	0.395306	0.395585	0.200791	10	0.012255	12	0	4.2508	7.94299e-05
2	1	0	1	0	1	194.813	0.398806	0.39908	0.196365	10	0.0123248	12	0	4.6008	7.83653e-05
2	1	0	1	0	1	195.163	0.402307	0.402534	0.193281	10	0.0123938	12	0	4.9508	7.78022e-05
2	1	0	1	0	1	195.513	0.405807	0.406061	0.193021	10	0.0124621	12	0	5.3008	7.83783e-05
2	1	0	1	0	1	195.863	0.409308	0.409571	0.193203	10	0.0125295	12	0	5.651	7.91304e-05
2	1	0	1	0	1	196.213	0.412809	0.413048	0.192923	10	0.0125964	12	0	6.001	7.96864e-05
2	1	0	1	0	1	196.563	0.416309	0.416574	0.188663	10	0.0126625	12	0	6.351	7.85921e-05
2	1	0	1	0	1	196.913	0.41981	0.420068	0.183788	10	0.0127279	12	0	6.7012	7.72034e-05
2	1	0	1	0	1	197.263	0.423311	0.423591	0.181679	10	0.0127926	12	0	7.0512	7.69573e-05
2	1	0	1	0	1	197.613	0.426811	0.427073	0.18095	10	0.0128568	12	0	7.4012	7.7279e-05
2	1	0	1	0	1	197.964	0.430312	0.430606	0.182643	10	0.0129204	12	0	7.7514	7.86471e-05
2	1	0	1	0	1	198.314	0.433812	0.434085	0.182224	10	0.0129835	12	0	8.1014	7.9101e-05
2	1	0	1	0	1	198.664	0.437313	0.437582	0.17982	10	0.0130461	12	0	8.4514	7.8686e-05
2	1	0	1	0	1	199.014	0.440814	0.441055	0.175649	10	0.0131084	12	0	8.8016	7.7471e-05
2	1	0	1	0	1	199.364	0.444314	0.444582	0.173833	10	0.0131704	12	0	9.1516	7.72831e-05
2	1	0	1	0	1	199.714	0.447815	0.448068	0.174373	10	0.0132321	12	0	9.5016	7.81308e-05
2	1	0	1	0	1	200.008	0.449215	0.449507	0.0814231	10	0.0132793	12	0	9.7954	3.66003e-05
2	0	0	1	0	1	200.358	0.445715	0.445937	-0.0891368	10	0.0132688	12	0	0.2	-3.97494e-05
2	0	0	1	0	1	200.708	0.442214	0.442443	-0.126892	10	0.0132296	12	0	0.55	-5.61424e-05
2	0	0	1	0	1	201.058	0.438713	0.438943	-0.139614	10	0.0131832	12	0	0.9002	-6.12828e-05
2	0	0	1	0	1	201.408	0.435213	0.435472	-0.144875	10	0.0131341	12	0	1.2502	-6.30891e-05
2	0	0	1	0	1	201.758	0.431712	0.431976	-0.147124	10	0.0130831	12	0	1.6002	-6.35539e-05
2	0	0	1	0	1	202.108	0.428211	0.428453	-0.149589	10	0.0130304	12	0	1.9504	-6.4092e-05
2	0	0	1	0	1	202.458	0.424711	0.425009	-0.154341	10	0.0129765	12	0	2.3004	-6.55966e-05
2	0	0	1	0	1	202.808	0.42121	0.421443	-0.160496	10	0.0129212	12	0	2.6504	-6.76401e-05
2	0	0	1	0	1	203.158	0.41771	0.417999	-0.165291	10	0.0128648	12	0	3.0004	-6.90914e-05
2	0	0	1	0	1	203.508	0.414209	0.414497	-0.168086	10	0.0128072	12	0	3.3506	-6.96712e-05
2	0	0	1	0	1	203.858	0.410708	0.410965	-0.168717	10	0.0127485	12	0	3.7006	-6.93365e-05
2	0	0	1	0	1	204.208	0.407208	0.407463	-0.170766	10	0.0126882	12	0	4.0506	-6.95808e-05
2	0	0	1	0	1	204.558	0.403707	0.403962	-0.174386	10	0.012627	12	0	4.4008	-7.04452e-05
2	0	0	1	0	1	204.908	0.400207	0.400426	-0.179955	10	0.0125647	12	0	4.7508	-7.20588e-05
2	0	0	1	0	1	205.258	0.396706	0.396976	-0.185471	10	0.0125014	12	0	5.1008	-7.36274e-05
2	0	0	1	0	1	205.609	0.393205	0.393459	-0.188142	10	0.0124368	12	0	5.451	-7.40259e-05
2	0	0	1	0	1	205.959	0.389705	0.38997	-0.189341	10	0.012371	12	0	5.801	-7.38374e-05
2	0	0	1	0	1	206.309	0.386204	0.386449	-0.190834	10	0.0123039	12	0	6.151	-7.37474e-05
2	0	0	1	0	1	206.659	0.382703	0.382942	-0.194678	10	0.0122356	12	0	6.5012	-7.45503e-05
2	0	0	1	0	1	207.009	0.379203	0.379439	-0.200841	10	0.012166	12	0	6.8512	-7.62069e-05
2	0	0	1	0	1	207.359	0.375702	0.375934	-0.20689	10	0.0120951	12	0	7.2012	-7.77769e-05
2	0	0	1	0	1	207.709	0.372201	0.372489	-0.210414	10	0.0120229	12	0	7.5514	-7.83769e-05
2	0	0	1	0	1	208.059	0.368701	0.368977	-0.211956	10	0.0119493	12	0	7.9014	-7.82067e-05
2	0	0	1	0	1	208.409	0.3652	0.365469	-0.214363	10	0.0118743	12	0	8.2514	-7.83431e-05
2	0	0	1	0	1	208.759	0.3617	0.361973	-0.217884	10	0.0117978	12	0	8.6014	-7.88681e-05
2	0	0	1	0	1	209.109	0.358199	0.358462	-0.224925	10	0.0117198	12	0	8.9516	-8.06271e-05
2	0	0	1	0	1	209.459	0.354698	0.354934	-0.230908	10	0.0116404	12	0	9.3016	-8.19569e-05
2	0	0	1	0	1	209.809	0.351198	0.351504	-0.236105	10	0.0115595	12	0	9.6516	-8.29917e-05
2	0	0	0	0	1	209.927	0.350023	0.350167	-0.237611	10	0.0115321	12	0	9.7691	-8.32034e-05