File: ACS_Catal_2026/Figures_Na_K/main_figures/data/EC/20240126_2-102_Add_Na/20240125_2-102_002_preconditioning_elctrode2_01_CVA_C02.mpt
EC-Lab ASCII FILE
Nb header lines : 66

Cyclic Voltammetry Advanced

Run on channel : 2 (SN 66414)
User :
CE vs. WE compliance from -10 V to 10 V
Electrode connection : standard
Potential control : Ewe
Ewe ctrl range : min = -1.00 V, max = 1.00 V
Safety Limits :
	Do not start on E overload
Acquisition started on : 01/26/2024 15:49:20.433
Loaded Setting File :  C:\Users\NakamuraT\Documents\EC-Lab\Data\Yatsuzuka\20240126_2-102_Add_Na\20240125_2-102_001_preconditioning_elctrode1.mps
Saved on :
	File : 20240125_2-102_002_preconditioning_elctrode2_01_CVA_C02.mpr
	Directory : C:\Users\NakamuraT\Documents\EC-Lab\Data\Yatsuzuka\20240126_2-102_Add_Na\
	Host : 192.109.209.100
Device : SP-150e (SN .003411)
Address : 192.109.209.236
EC-Lab for windows v11.50 (software)
Internet server v11.50 (firmware)
Command interpretor v11.50 (firmware)
Electrode material :
Initial state :
Electrolyte :
Comments :
Electrode surface area : 0.001 cm2
Characteristic mass : 0.001 g
Equivalent Weight : 0.000 g/eq.
Density : 0.000 g/cm3
Volume (V) : 0.001 cm3
Cycle Definition : Charge/Discharge alternance
Ei (V)              0.350
vs.                 Ref
ti (h:m:s)          0:00:10.0000
dti (s)             1.0000
dE/dt               10.000
dE/dt unit          mV/s
E1 (V)              0.450
vs.                 Ref
t1 (h:m:s)          0:00:0.0000
dt1 (s)             0.1000
Step percent        50
N                   10
E range min (V)     -1.000
E range max (V)     1.000
I Range             Auto
I Range min         Unset
I Range max         Unset
I Range init        Unset
Bandwidth           5
E2 (V)              0.350
vs.                 Ref
t2 (h:m:s)          0:00:0.0000
dt2 (s)             0.1000
nc cycles           9
nr                  1
Reverse Scan        0
Ef (V)              0.000
vs.                 Eoc
tf (h:m:s)          0:00:0.0000
dtf (s)             0.1000

mode	ox/red	error	control changes	Ns changes	counter inc.	time/s	control/V	Ewe/V	<I>/mA	cycle number	(Q-Qo)/C	I Range	Ns	step time/s	P/W
2	1	0	1	0	0	0.000000000000000E+000	0.349998	0.350103	8.0369	1	0.0000000E+000	10	0	0.000000000000000E+000	0.00281374
2	1	0	1	0	0	7	0.349998	0.350275	0.113221	1	0.00561207	12	0	6	3.96583e-05
2	1	0	1	0	0	10.1775	0.351723	0.352046	0.166702	1	0.00589246	12	0	9.1775	5.86868e-05
2	1	0	1	0	0	10.5275	0.355224	0.355556	0.243771	1	0.00596688	12	0	9.5275	8.66742e-05
2	1	0	1	0	0	10.8775	0.358724	0.359052	0.254694	1	0.00605463	12	0	9.8775	9.14485e-05
2	1	0	1	0	0	11.2275	0.362225	0.362587	0.263746	1	0.00614618	12	0	10.2275	9.56309e-05
2	1	0	1	0	0	11.5777	0.365725	0.366101	0.267323	1	0.00623866	12	0	10.5777	9.78673e-05
2	1	0	1	0	0	11.9277	0.369226	0.369594	0.262451	1	0.00633179	12	0	10.9277	9.70005e-05
2	1	0	1	0	0	12.2777	0.372726	0.373077	0.269242	1	0.00642504	12	0	11.2777	0.000100448
2	1	0	1	0	0	12.6277	0.376227	0.376564	0.267436	1	0.00651842	12	0	11.6277	0.000100707
2	1	0	1	0	0	12.9777	0.379727	0.380028	0.26406	1	0.00661202	12	0	11.9777	0.00010035
2	1	0	1	0	0	13.3279	0.383227	0.383636	0.271313	1	0.00670556	12	0	12.3279	0.000104085
2	1	0	1	0	0	13.6779	0.386728	0.387095	0.264524	1	0.00679903	12	0	12.6779	0.000102396
2	1	0	1	0	0	14.0279	0.390228	0.39067	0.266883	1	0.00689267	12	0	13.0279	0.000104263
2	1	0	1	0	0	14.3779	0.393729	0.394097	0.269633	1	0.006986	12	0	13.3779	0.000106261
2	1	0	1	0	0	14.7281	0.397229	0.397609	0.262906	1	0.0070795	12	0	13.7281	0.000104534
2	1	0	1	0	0	15.0781	0.40073	0.401046	0.268415	1	0.0071728	12	0	14.0781	0.000107647
2	1	0	1	0	0	15.4281	0.40423	0.404563	0.267281	1	0.00726594	12	0	14.4281	0.000108132
2	1	0	1	0	0	15.7781	0.407731	0.40808	0.262154	1	0.00735911	12	0	14.7781	0.00010698
2	1	0	1	0	0	16.1282	0.411231	0.411633	0.269657	1	0.00745217	12	0	15.1282	0.000111
2	1	0	1	0	0	16.4783	0.414731	0.415093	0.262988	1	0.00754496	12	0	15.4783	0.000109165
2	1	0	1	0	0	16.8283	0.418232	0.418622	0.264404	1	0.00763786	12	0	15.8283	0.000110685
2	1	0	1	0	0	17.1783	0.421732	0.422106	0.267723	1	0.00773042	12	0	16.1783	0.000113007
2	1	0	1	0	0	17.5283	0.425233	0.425571	0.261124	1	0.00782311	12	0	16.5283	0.000111127
2	1	0	1	0	0	17.8785	0.428733	0.429108	0.266101	1	0.00791574	12	0	16.8785	0.000114186
2	1	0	1	0	0	18.2285	0.432234	0.432608	0.265832	1	0.00800824	12	0	17.2285	0.000115001
2	1	0	1	0	0	18.5785	0.435734	0.436042	0.260898	1	0.00810089	12	0	17.5785	0.000113763
2	1	0	1	0	0	18.9285	0.439235	0.439555	0.268918	1	0.00819355	12	0	17.9285	0.000118204
2	1	0	1	0	0	19.2787	0.442735	0.443183	0.263056	1	0.00828629	12	0	18.2787	0.000116582
2	1	0	1	0	0	19.6287	0.446236	0.44658	0.265129	1	0.00837938	12	0	18.6287	0.000118401
2	1	0	1	0	0	19.9787	0.449736	0.450112	0.269916	1	0.00847243	12	0	18.9787	0.000121492
2	1	0	1	0	0	20.2351	0.447686	0.448088	0.0722105	1	0.00851224	12	0	19.2351	3.23567e-05
2	0	0	1	0	0	20.6151	0.443885	0.444235	-0.00676803	1	0.0085209	13	0	0.000000000000000E+000	-3.00659e-06
2	0	0	1	0	0	20.9653	0.440385	0.440746	-0.0308494	1	0.0085132	13	0	0.3502	-1.35968e-05
2	0	0	1	0	0	21.3153	0.436884	0.437214	-0.0522712	1	0.00849896	13	0	0.7002	-2.28537e-05
2	0	0	1	0	0	21.6653	0.433384	0.433653	-0.0567977	1	0.0084798	13	0	1.0502	-2.46305e-05
2	0	0	1	0	0	22.0153	0.429883	0.430135	-0.0723856	1	0.00845671	13	0	1.4002	-3.11356e-05
2	0	0	1	0	0	22.3655	0.426383	0.426681	-0.0805615	1	0.00843052	13	0	1.7504	-3.43741e-05
2	0	0	1	0	0	22.7155	0.422883	0.423225	-0.0833119	1	0.00840134	13	0	2.1004	-3.52597e-05
2	0	0	1	0	0	23.0655	0.419382	0.419625	-0.0967669	1	0.00836979	13	0	2.4504	-4.06058e-05
2	0	0	1	0	0	23.4455	0.415582	0.415935	-0.100539	1	0.0083325	12	0	2.8304	-4.18178e-05
2	0	0	1	0	0	23.7955	0.412081	0.412301	-0.108143	1	0.00829657	12	0	3.1804	-4.45874e-05
2	0	0	1	0	0	24.1457	0.408581	0.408915	-0.106768	1	0.00825853	12	0	3.5306	-4.36589e-05
2	0	0	1	0	0	24.4957	0.40508	0.405366	-0.119911	1	0.00821878	12	0	3.8806	-4.86079e-05
2	0	0	1	0	0	24.8457	0.40158	0.401918	-0.118881	1	0.00817748	12	0	4.2306	-4.77803e-05
2	0	0	1	0	0	25.1957	0.398079	0.398429	-0.123536	1	0.00813443	12	0	4.5806	-4.92205e-05
2	0	0	1	0	0	25.5459	0.394579	0.394938	-0.132313	1	0.00809008	12	0	4.9308	-5.22553e-05
2	0	0	1	0	0	25.8959	0.391078	0.39139	-0.130086	1	0.0080442	12	0	5.2808	-5.09145e-05
2	0	0	1	0	0	26.2459	0.387578	0.387885	-0.138167	1	0.00799686	12	0	5.6308	-5.35928e-05
2	0	0	1	0	0	26.5959	0.384078	0.384391	-0.143036	1	0.00794827	12	0	5.9808	-5.49817e-05
2	0	0	1	0	0	26.946	0.380578	0.380833	-0.140816	1	0.0078981	12	0	6.3309	-5.36273e-05
2	0	0	1	0	0	27.2961	0.377077	0.377357	-0.152937	1	0.00784671	12	0	6.681	-5.77119e-05
2	0	0	1	0	0	27.6461	0.373576	0.373804	-0.15081	1	0.00779399	12	0	7.031	-5.63735e-05
2	0	0	1	0	0	27.9961	0.370076	0.370338	-0.155459	1	0.00773975	12	0	7.381	-5.75725e-05
2	0	0	1	0	0	28.3461	0.366575	0.366905	-0.163635	1	0.00768437	12	0	7.731	-6.00384e-05
2	0	0	1	0	0	28.6963	0.363075	0.363352	-0.161045	1	0.00762749	12	0	8.0812	-5.8516e-05
2	0	0	1	0	0	29.0463	0.359574	0.359873	-0.169636	1	0.00756926	12	0	8.4312	-6.10475e-05
2	0	0	1	0	0	29.3963	0.356074	0.356352	-0.173673	1	0.00750986	12	0	8.7812	-6.18885e-05
2	0	0	1	0	0	29.7463	0.352573	0.352852	-0.171965	1	0.00744889	12	0	9.1312	-6.06781e-05
2	0	0	1	0	1	30.0291	0.350273	0.350586	-0.14114	2	0.00739974	12	0	9.414	-4.94816e-05
2	1	0	1	0	1	30.3791	0.353774	0.354031	0.114014	2	0.00740678	12	0	0.15	4.03645e-05
2	1	0	1	0	1	30.7291	0.357274	0.357563	0.174054	2	0.00745896	12	0	0.5	6.22354e-05
2	1	0	1	0	1	31.0791	0.360775	0.361078	0.183603	2	0.00752255	12	0	0.85	6.62951e-05
2	1	0	1	0	1	31.4291	0.364275	0.364519	0.196569	2	0.00758925	12	0	1.2	7.16529e-05
2	1	0	1	0	1	31.7793	0.367775	0.368078	0.19173	2	0.00765679	12	0	1.5502	7.05718e-05
2	1	0	1	0	1	32.1293	0.371276	0.371597	0.192488	2	0.00772472	12	0	1.9002	7.15278e-05
2	1	0	1	0	1	32.4793	0.374776	0.375113	0.196436	2	0.00779228	12	0	2.2502	7.36856e-05
2	1	0	1	0	1	32.8293	0.378277	0.378557	0.189002	2	0.00785975	12	0	2.6002	7.15479e-05
2	1	0	1	0	1	33.1795	0.381777	0.382055	0.19204	2	0.0079269	12	0	2.9504	7.33697e-05
2	1	0	1	0	1	33.5295	0.385278	0.385604	0.192287	2	0.00799355	12	0	3.3004	7.41467e-05
2	1	0	1	0	1	33.8795	0.388778	0.389113	0.184839	2	0.00806002	12	0	3.6504	7.19233e-05
2	1	0	1	0	1	34.2295	0.392279	0.392582	0.192272	2	0.00812604	12	0	4.0004	7.54826e-05
2	1	0	1	0	1	34.5796	0.39578	0.396198	0.185067	2	0.00819168	12	0	4.3505	7.33231e-05
2	1	0	1	0	1	34.9297	0.39928	0.39958	0.185325	2	0.00825718	12	0	4.7006	7.40523e-05
2	1	0	1	0	1	35.2797	0.40278	0.403172	0.188702	2	0.00832216	12	0	5.0506	7.60795e-05
2	1	0	1	0	1	35.6297	0.40628	0.406626	0.181639	2	0.00838707	12	0	5.4006	7.38591e-05
2	1	0	1	0	1	35.9797	0.409781	0.410103	0.186073	2	0.00845182	12	0	5.7506	7.63091e-05
2	1	0	1	0	1	36.3299	0.413281	0.413645	0.185634	2	0.00851632	12	0	6.1008	7.67864e-05
2	1	0	1	0	1	36.6799	0.416782	0.417171	0.17994	2	0.00858084	12	0	6.4508	7.50656e-05
2	1	0	1	0	1	37.0299	0.420282	0.420645	0.18847	2	0.00864527	12	0	6.8008	7.92787e-05
2	1	0	1	0	1	37.3799	0.423783	0.424176	0.181547	2	0.00870969	12	0	7.1508	7.70079e-05
2	1	0	1	0	1	37.7301	0.427283	0.427633	0.184469	2	0.00877448	12	0	7.501	7.88849e-05
2	1	0	1	0	1	38.0801	0.430784	0.431089	0.188184	2	0.00883917	12	0	7.851	8.11241e-05
2	1	0	1	0	1	38.4301	0.434284	0.434642	0.183068	2	0.0089044	12	0	8.201	7.95692e-05
2	1	0	1	0	1	38.7801	0.437785	0.438169	0.190162	2	0.00896995	12	0	8.551	8.33232e-05
2	1	0	1	0	1	39.1301	0.441285	0.441671	0.190051	2	0.00903596	12	0	8.901	8.394e-05
2	1	0	1	0	1	39.4803	0.444785	0.445094	0.188102	2	0.00910274	12	0	9.2512	8.37231e-05
2	1	0	1	0	1	39.8303	0.448286	0.448709	0.198011	2	0.0091701	12	0	9.6012	8.88491e-05
2	1	0	1	0	1	40.0817	0.449186	0.449467	0.0969837	2	0.00921408	12	0	9.8526	4.3591e-05
2	0	0	1	0	1	40.4467	0.445535	0.445894	-0.044224	2	0.00921481	12	0	0.165	-1.97192e-05
2	0	0	1	0	1	40.8119	0.441885	0.442293	-0.0687499	2	0.0091924	13	0	0.5302	-3.04076e-05
2	0	0	1	0	1	41.1619	0.438385	0.438756	-0.0880939	2	0.00916482	13	0	0.8802	-3.86517e-05
2	0	0	1	0	1	41.5119	0.434884	0.435219	-0.0894311	2	0.00913402	13	0	1.2302	-3.89221e-05
2	0	0	1	0	1	41.8919	0.431084	0.431423	-0.0992735	2	0.0090973	12	0	1.6102	-4.28288e-05
2	0	0	1	0	1	42.2419	0.427583	0.427908	-0.101425	2	0.00906154	12	0	1.9602	-4.34008e-05
2	0	0	1	0	1	42.5921	0.424083	0.424432	-0.112667	2	0.00902417	12	0	2.3104	-4.78196e-05
2	0	0	1	0	1	42.9421	0.420582	0.420871	-0.111594	2	0.00898512	12	0	2.6604	-4.69665e-05
2	0	0	1	0	1	43.2921	0.417082	0.417434	-0.117121	2	0.00894451	12	0	3.0104	-4.88902e-05
2	0	0	1	0	1	43.6421	0.413581	0.413864	-0.124772	2	0.00890266	12	0	3.3604	-5.16388e-05
2	0	0	1	0	1	43.9923	0.410081	0.410413	-0.120628	2	0.0088594	12	0	3.7106	-4.95075e-05
2	0	0	1	0	1	44.3423	0.40658	0.406891	-0.13219	2	0.00881485	12	0	4.0606	-5.37872e-05
2	0	0	1	0	1	44.6923	0.40308	0.403407	-0.130958	2	0.00876928	12	0	4.4106	-5.28294e-05
2	0	0	1	0	1	45.0423	0.39958	0.399892	-0.133383	2	0.00872233	12	0	4.7606	-5.33388e-05
2	0	0	1	0	1	45.3924	0.39608	0.396416	-0.141692	2	0.00867449	12	0	5.1107	-5.61688e-05
2	0	0	1	0	1	45.7425	0.392579	0.392863	-0.138128	2	0.0086254	12	0	5.4608	-5.42655e-05
2	0	0	1	0	1	46.0925	0.389078	0.389336	-0.145868	2	0.00857516	12	0	5.8108	-5.67916e-05
2	0	0	1	0	1	46.4425	0.385578	0.385825	-0.150108	2	0.00852394	12	0	6.1608	-5.79156e-05
2	0	0	1	0	1	46.7925	0.382077	0.382336	-0.147137	2	0.00847143	12	0	6.5108	-5.62558e-05
2	0	0	1	0	1	47.1427	0.378577	0.378866	-0.158627	2	0.00841789	12	0	6.861	-6.00985e-05
2	0	0	1	0	1	47.4927	0.375076	0.375326	-0.155182	2	0.00836329	12	0	7.211	-5.82439e-05
2	0	0	1	0	1	47.8427	0.371576	0.371821	-0.160735	2	0.00830734	12	0	7.561	-5.97645e-05
2	0	0	1	0	1	48.1927	0.368075	0.36829	-0.166864	2	0.00825055	12	0	7.911	-6.14544e-05
2	0	0	1	0	1	48.5429	0.364575	0.36484	-0.163857	2	0.00819228	12	0	8.2612	-5.97816e-05
2	0	0	1	0	1	48.8929	0.361075	0.3613	-0.173833	2	0.00813296	12	0	8.6112	-6.28059e-05
2	0	0	1	0	1	49.2429	0.357574	0.357852	-0.175439	2	0.00807233	12	0	8.9612	-6.27811e-05
2	0	0	1	0	1	49.5929	0.354074	0.35431	-0.174971	2	0.00801054	12	0	9.3112	-6.19939e-05
2	0	0	1	0	1	49.9429	0.350573	0.350812	-0.18621	2	0.00794757	12	0	9.6612	-6.53247e-05
2	1	0	1	0	0	50.2257	0.352273	0.352563	0.0464541	3	0.00792682	12	0	0.000000000000000E+000	1.6378e-05
2	1	0	1	0	0	50.5757	0.355774	0.356	0.146844	3	0.00796458	12	0	0.35	5.22765e-05
2	1	0	1	0	0	50.9257	0.359274	0.35947	0.170886	3	0.00802182	12	0	0.7	6.14284e-05
2	1	0	1	0	0	51.2757	0.362775	0.36308	0.184247	3	0.00808394	12	0	1.05	6.68963e-05
2	1	0	1	0	0	51.6259	0.366275	0.366495	0.178486	3	0.0081475	12	0	1.4002	6.54143e-05
2	1	0	1	0	0	51.9759	0.369776	0.370026	0.183546	3	0.00821141	12	0	1.7502	6.7917e-05
2	1	0	1	0	0	52.3259	0.373276	0.373499	0.183106	3	0.00827498	12	0	2.1002	6.839e-05
2	1	0	1	0	0	52.6759	0.376777	0.377089	0.177025	3	0.00833858	12	0	2.4502	6.67543e-05
2	1	0	1	0	0	53.0259	0.380277	0.380472	0.183678	3	0.00840163	12	0	2.8002	6.98843e-05
2	1	0	1	0	0	53.3761	0.383778	0.384113	0.176696	3	0.00846437	12	0	3.1504	6.78712e-05
2	1	0	1	0	0	53.7261	0.387278	0.387592	0.17625	3	0.00852674	12	0	3.5004	6.8313e-05
2	1	0	1	0	0	54.0761	0.390778	0.391091	0.178582	3	0.00858834	12	0	3.8504	6.98419e-05
2	1	0	1	0	0	54.4261	0.394279	0.394597	0.17081	3	0.00864975	12	0	4.2004	6.7401e-05
2	1	0	1	0	0	54.7763	0.397779	0.398107	0.176333	3	0.00871073	12	0	4.5506	7.01993e-05
2	1	0	1	0	0	55.1263	0.40128	0.401514	0.172104	3	0.0087712	12	0	4.9006	6.91021e-05
2	1	0	1	0	0	55.4763	0.40478	0.405049	0.168921	3	0.00883155	12	0	5.2506	6.84211e-05
2	1	0	1	0	0	55.8263	0.408281	0.408616	0.17501	3	0.00889136	12	0	5.6006	7.15117e-05
2	1	0	1	0	0	56.1765	0.411781	0.412096	0.16642	3	0.00895112	12	0	5.9508	6.85811e-05
2	1	0	1	0	0	56.5265	0.415282	0.415598	0.170837	3	0.00901056	12	0	6.3008	7.09993e-05
2	1	0	1	0	0	56.8765	0.418782	0.419069	0.170266	3	0.00906968	12	0	6.6508	7.1353e-05
2	1	0	1	0	0	57.2265	0.422282	0.422654	0.165465	3	0.00912888	12	0	7.0008	6.99344e-05
2	1	0	1	0	0	57.5765	0.425783	0.426067	0.172403	3	0.00918793	12	0	7.3508	7.34551e-05
2	1	0	1	0	0	57.9267	0.429283	0.429581	0.166742	3	0.00924698	12	0	7.701	7.16292e-05
2	1	0	1	0	0	58.2767	0.432784	0.433145	0.168703	3	0.00930627	12	0	8.051	7.30727e-05
2	1	0	1	0	0	58.6267	0.436284	0.436608	0.17307	3	0.0093655	12	0	8.401	7.55636e-05
2	1	0	1	0	0	58.9767	0.439785	0.440135	0.166818	3	0.00942522	12	0	8.751	7.34225e-05
2	1	0	1	0	0	59.3269	0.443285	0.443639	0.175401	3	0.00948523	12	0	9.1012	7.78149e-05
2	1	0	1	0	0	59.6769	0.446786	0.447122	0.172941	3	0.00954562	12	0	9.4512	7.73256e-05
2	1	0	1	0	0	59.9958	0.450011	0.450503	0.174757	3	0.00960139	12	0	9.7701	7.87287e-05
2	0	0	1	0	0	60.2783	0.447186	0.44746	-0.0351429	3	0.00961303	12	0	0.05	-1.5725e-05
2	0	0	1	0	0	60.6583	0.443385	0.443703	-0.08109	3	0.00958988	13	0	0.43	-3.59798e-05
2	0	0	1	0	0	61.0085	0.439885	0.440219	-0.0926809	3	0.00955978	13	0	0.7802	-4.07999e-05
2	0	0	1	0	0	61.3885	0.436084	0.436466	-0.102719	3	0.00952293	12	0	1.1602	-4.48335e-05
2	0	0	1	0	0	61.7385	0.432584	0.432945	-0.102235	3	0.00948692	12	0	1.5102	-4.42623e-05
2	0	0	1	0	0	62.0885	0.429083	0.429407	-0.112117	3	0.0094491	12	0	1.8602	-4.81439e-05
2	0	0	1	0	0	62.4387	0.425583	0.425893	-0.115554	3	0.00940981	12	0	2.2104	-4.92137e-05
2	0	0	1	0	0	62.7887	0.422082	0.422395	-0.114912	3	0.00936889	12	0	2.5604	-4.85385e-05
2	0	0	1	0	0	63.1387	0.418582	0.41892	-0.126291	3	0.00932691	12	0	2.9104	-5.2906e-05
2	0	0	1	0	0	63.4887	0.415082	0.415403	-0.122151	3	0.0092837	12	0	3.2604	-5.07419e-05
2	0	0	1	0	0	63.8387	0.411581	0.411862	-0.129315	3	0.00923917	12	0	3.6104	-5.32598e-05
2	0	0	1	0	0	64.1889	0.408081	0.408408	-0.133826	3	0.00919379	12	0	3.9606	-5.46555e-05
2	0	0	1	0	0	64.5389	0.40458	0.404851	-0.131203	3	0.00914709	12	0	4.3106	-5.31179e-05
2	0	0	1	0	0	64.8889	0.40108	0.401381	-0.140396	3	0.00909951	12	0	4.6606	-5.63521e-05
2	0	0	1	0	0	65.2389	0.397579	0.397919	-0.139963	3	0.00905095	12	0	5.0106	-5.5694e-05
2	0	0	1	0	0	65.5891	0.394079	0.394396	-0.140879	3	0.00900124	12	0	5.3608	-5.55622e-05
2	0	0	1	0	0	65.9391	0.390578	0.390915	-0.15025	3	0.00895068	12	0	5.7108	-5.87351e-05
2	0	0	1	0	0	66.2891	0.387078	0.38742	-0.144844	3	0.00889903	12	0	6.0608	-5.61154e-05
2	0	0	1	0	0	66.6391	0.383577	0.383917	-0.154055	3	0.00884625	12	0	6.4108	-5.91443e-05
2	0	0	1	0	0	66.9893	0.380077	0.38046	-0.155181	3	0.00879264	12	0	6.761	-5.90402e-05
2	0	0	1	0	0	67.3393	0.376577	0.376925	-0.155041	3	0.00873773	12	0	7.111	-5.84388e-05
2	0	0	1	0	0	67.6893	0.373076	0.373436	-0.164458	3	0.00868194	12	0	7.461	-6.14144e-05
2	0	0	1	0	0	68.0393	0.369576	0.369904	-0.162069	3	0.00862497	12	0	7.811	-5.99501e-05
2	0	0	1	0	0	68.3893	0.366075	0.366406	-0.16697	3	0.00856685	12	0	8.161	-6.11788e-05
2	0	0	1	0	0	68.7395	0.362575	0.362931	-0.173543	3	0.00850771	12	0	8.5112	-6.29841e-05
2	0	0	1	0	0	69.0895	0.359074	0.359379	-0.169984	3	0.00844725	12	0	8.8612	-6.10886e-05
2	0	0	1	0	0	69.4395	0.355574	0.355823	-0.181035	3	0.00838564	12	0	9.2112	-6.44164e-05
2	0	0	1	0	0	69.7895	0.352073	0.352384	-0.179379	3	0.00832299	12	0	9.5612	-6.32102e-05
2	0	0	1	0	1	70.0723	0.350773	0.351068	-0.0762393	4	0.00827611	12	0	9.844	-2.67651e-05
2	1	0	1	0	1	70.4223	0.354274	0.354585	0.113311	4	0.00829173	12	0	0.2	4.01782e-05
2	1	0	1	0	1	70.7723	0.357774	0.358133	0.165001	4	0.00834239	12	0	0.55	5.90924e-05
2	1	0	1	0	1	71.1223	0.361275	0.361596	0.172532	4	0.00840144	12	0	0.9	6.23869e-05
2	1	0	1	0	1	71.4723	0.364775	0.365048	0.17491	4	0.00846295	12	0	1.25	6.38505e-05
2	1	0	1	0	1	71.8225	0.368276	0.368603	0.180974	4	0.00852479	12	0	1.6002	6.67077e-05
2	1	0	1	0	1	72.1725	0.371776	0.37209	0.17238	4	0.00858671	12	0	1.9502	6.41409e-05
2	1	0	1	0	1	72.5225	0.375276	0.375593	0.178313	4	0.00864839	12	0	2.3002	6.69733e-05
2	1	0	1	0	1	72.8725	0.378777	0.379083	0.174624	4	0.00870956	12	0	2.6502	6.61972e-05
2	1	0	1	0	1	73.2227	0.382277	0.382598	0.170725	4	0.00877052	12	0	3.0004	6.5319e-05
2	1	0	1	0	1	73.5727	0.385778	0.386101	0.175498	4	0.0088308	12	0	3.3504	6.776e-05
2	1	0	1	0	1	73.9227	0.389278	0.38956	0.167807	4	0.00889071	12	0	3.7004	6.53707e-05
2	1	0	1	0	1	74.2727	0.392779	0.393096	0.169563	4	0.00895022	12	0	4.0504	6.66545e-05
2	1	0	1	0	1	74.6228	0.396279	0.396626	0.170182	4	0.0090091	12	0	4.4005	6.74985e-05
2	1	0	1	0	1	74.9729	0.39978	0.400052	0.162622	4	0.00906773	12	0	4.7506	6.50572e-05
2	1	0	1	0	1	75.3229	0.40328	0.403636	0.169658	4	0.00912585	12	0	5.1006	6.84802e-05
2	1	0	1	0	1	75.6729	0.406781	0.407093	0.161927	4	0.00918356	12	0	5.4506	6.59195e-05
2	1	0	1	0	1	76.0229	0.410281	0.41059	0.163576	4	0.00924117	12	0	5.8006	6.71625e-05
2	1	0	1	0	1	76.3731	0.413781	0.414094	0.164997	4	0.00929819	12	0	6.1508	6.83243e-05
2	1	0	1	0	1	76.7231	0.417282	0.417567	0.158609	4	0.00935512	12	0	6.5008	6.62297e-05
2	1	0	1	0	1	77.0731	0.420782	0.421128	0.164053	4	0.00941178	12	0	6.8508	6.90873e-05
2	1	0	1	0	1	77.4231	0.424283	0.424624	0.160947	4	0.0094682	12	0	7.2008	6.83419e-05
2	1	0	1	0	1	77.7733	0.427783	0.428086	0.158683	4	0.00952473	12	0	7.551	6.793e-05
2	1	0	1	0	1	78.1233	0.431284	0.431591	0.165067	4	0.00958103	12	0	7.901	7.12415e-05
2	1	0	1	0	1	78.4733	0.434784	0.435095	0.157249	4	0.0096375	12	0	8.251	6.8418e-05
2	1	0	1	0	1	78.8233	0.438285	0.438599	0.164198	4	0.00969415	12	0	8.601	7.2017e-05
2	1	0	1	0	1	79.1733	0.441785	0.442074	0.162745	4	0.00975079	12	0	8.951	7.19452e-05
2	1	0	1	0	1	79.5235	0.445286	0.445621	0.161023	4	0.00980803	12	0	9.3012	7.17552e-05
2	1	0	1	0	1	79.8735	0.448786	0.449154	0.168268	4	0.00986541	12	0	9.6512	7.55784e-05
2	1	0	1	0	1	80.1249	0.448686	0.448967	0.0292757	4	0.00989604	12	0	9.9026	1.31438e-05
2	0	0	1	0	1	80.5049	0.444885	0.445167	-0.0768894	4	0.00988067	13	0	0.28	-3.42287e-05
2	0	0	1	0	1	80.8551	0.441385	0.44173	-0.0902844	4	0.00985035	13	0	0.6302	-3.98813e-05
2	0	0	1	0	1	81.2351	0.437584	0.437927	-0.0983363	4	0.00981268	12	0	1.0102	-4.30641e-05
2	0	0	1	0	1	81.5851	0.434084	0.434373	-0.109516	4	0.00977596	12	0	1.3602	-4.75708e-05
2	0	0	1	0	1	81.9351	0.430584	0.430895	-0.112818	4	0.00973756	12	0	1.7102	-4.86128e-05
2	0	0	1	0	1	82.2851	0.427083	0.427358	-0.113142	4	0.00969753	12	0	2.0602	-4.83523e-05
2	0	0	1	0	1	82.6353	0.423583	0.423899	-0.123812	4	0.0096563	12	0	2.4104	-5.24839e-05
2	0	0	1	0	1	82.9853	0.420082	0.420385	-0.119767	4	0.00961388	12	0	2.7604	-5.03481e-05
2	0	0	1	0	1	83.3353	0.416582	0.416881	-0.127321	4	0.00957018	12	0	3.1104	-5.30779e-05
2	0	0	1	0	1	83.6853	0.413081	0.413406	-0.13085	4	0.00952566	12	0	3.4604	-5.40942e-05
2	0	0	1	0	1	84.0355	0.409581	0.409923	-0.128369	4	0.00947985	12	0	3.8106	-5.26214e-05
2	0	0	1	0	1	84.3855	0.40608	0.406369	-0.138592	4	0.00943319	12	0	4.1606	-5.63195e-05
2	0	0	1	0	1	84.7355	0.40258	0.402875	-0.135504	4	0.00938554	12	0	4.5106	-5.4591e-05
2	0	0	1	0	1	85.0855	0.399079	0.399401	-0.139773	4	0.00933686	12	0	4.8606	-5.58253e-05
2	0	0	1	0	1	85.4357	0.395579	0.395865	-0.145717	4	0.00928737	12	0	5.2108	-5.76842e-05
2	0	0	1	0	1	85.7857	0.392079	0.392366	-0.141886	4	0.00923684	12	0	5.5608	-5.56711e-05
2	0	0	1	0	1	86.1357	0.388578	0.388793	-0.151456	4	0.00918533	12	0	5.9108	-5.8885e-05
2	0	0	1	0	1	86.4857	0.385078	0.385401	-0.150864	4	0.00913297	12	0	6.2608	-5.81431e-05
2	0	0	1	0	1	86.8357	0.381577	0.381834	-0.152203	4	0.00907937	12	0	6.6108	-5.81164e-05
2	0	0	1	0	1	87.1859	0.378077	0.378346	-0.160854	4	0.009025	12	0	6.961	-6.08585e-05
2	0	0	1	0	1	87.5359	0.374576	0.374937	-0.155949	4	0.00896945	12	0	7.311	-5.84712e-05
2	0	0	1	0	1	87.8859	0.371076	0.371335	-0.165192	4	0.00891286	12	0	7.661	-6.13415e-05
2	0	0	1	0	1	88.2359	0.367575	0.367869	-0.166374	4	0.00885534	12	0	8.011	-6.1204e-05
2	0	0	1	0	1	88.5861	0.364075	0.364389	-0.166295	4	0.0087965	12	0	8.3612	-6.05961e-05
2	0	0	1	0	1	88.9361	0.360575	0.360928	-0.176087	4	0.00873674	12	0	8.7112	-6.35547e-05
2	0	0	1	0	1	89.2861	0.357074	0.357392	-0.173052	4	0.00867577	12	0	9.0612	-6.18473e-05
2	0	0	1	0	1	89.6361	0.353574	0.353854	-0.179656	4	0.00861355	12	0	9.4112	-6.3572e-05
2	0	0	1	0	1	89.9761	0.350173	0.350489	-0.191384	4	0.00855206	12	0	9.7512	-6.70779e-05
2	1	0	1	0	0	90.2689	0.352774	0.353093	0.0695527	5	0.00854112	12	0	0.05	2.45586e-05
2	1	0	1	0	0	90.6189	0.356274	0.356618	0.144739	5	0.0085821	12	0	0.4	5.16165e-05
2	1	0	1	0	0	90.9689	0.359774	0.360098	0.167855	5	0.00863807	12	0	0.75	6.04441e-05
2	1	0	1	0	0	91.3189	0.363275	0.363577	0.174651	5	0.00869772	12	0	1.1	6.34991e-05
2	1	0	1	0	0	91.6691	0.366775	0.3671	0.16976	5	0.00875848	12	0	1.4502	6.23191e-05
2	1	0	1	0	0	92.0191	0.370276	0.370583	0.177815	5	0.00881924	12	0	1.8002	6.5895e-05
2	1	0	1	0	0	92.3691	0.373776	0.374229	0.170088	5	0.00887976	12	0	2.1502	6.36518e-05
2	1	0	1	0	0	92.7191	0.377277	0.377628	0.171712	5	0.00894014	12	0	2.5002	6.48435e-05
2	1	0	1	0	0	93.0692	0.380777	0.381143	0.172409	5	0.00899979	12	0	2.8503	6.57124e-05
2	1	0	1	0	0	93.4193	0.384278	0.384611	0.165448	5	0.0090592	12	0	3.2004	6.36333e-05
2	1	0	1	0	0	93.7693	0.387778	0.388124	0.17028	5	0.00911799	12	0	3.5504	6.60898e-05
2	1	0	1	0	0	94.1193	0.391278	0.391697	0.165237	5	0.00917629	12	0	3.9004	6.47227e-05
2	1	0	1	0	0	94.4693	0.394779	0.395183	0.162812	5	0.00923423	12	0	4.2504	6.43406e-05
2	1	0	1	0	0	94.8195	0.398279	0.398573	0.167189	5	0.00929155	12	0	4.6006	6.66372e-05
2	1	0	1	0	0	95.1695	0.40178	0.402152	0.157842	5	0.00934848	12	0	4.9506	6.34766e-05
2	1	0	1	0	0	95.5195	0.40528	0.405594	0.163716	5	0.00940506	12	0	5.3006	6.64024e-05
2	1	0	1	0	0	95.8695	0.408781	0.409118	0.160102	5	0.00946107	12	0	5.6506	6.55005e-05
2	1	0	1	0	0	96.2197	0.412281	0.412631	0.156666	5	0.00951708	12	0	6.0008	6.46452e-05
2	1	0	1	0	0	96.5697	0.415782	0.416138	0.161633	5	0.00957242	12	0	6.3508	6.72616e-05
2	1	0	1	0	0	96.9197	0.419282	0.419565	0.154088	5	0.00962766	12	0	6.7008	6.46497e-05
2	1	0	1	0	0	97.2697	0.422783	0.423168	0.158	5	0.00968269	12	0	7.0508	6.68605e-05
2	1	0	1	0	0	97.6197	0.426283	0.426661	0.157604	5	0.00973741	12	0	7.4008	6.72437e-05
2	1	0	1	0	0	97.9699	0.429783	0.430122	0.152651	5	0.0097922	12	0	7.751	6.56584e-05
2	1	0	1	0	0	98.3199	0.433284	0.433606	0.160007	5	0.00984683	12	0	8.101	6.93799e-05
2	1	0	1	0	0	98.6699	0.436784	0.437102	0.153258	5	0.00990147	12	0	8.451	6.69896e-05
2	1	0	1	0	0	99.0199	0.440285	0.440588	0.157252	5	0.00995638	12	0	8.801	6.92834e-05
2	1	0	1	0	0	99.3701	0.443785	0.44406	0.159297	5	0.0100112	12	0	9.1512	7.07375e-05
2	1	0	1	0	0	99.7201	0.447286	0.447572	0.154517	5	0.0100666	12	0	9.5012	6.91575e-05
2	1	0	1	0	0	99.994	0.449961	0.450483	0.163395	5	0.0101099	12	0	9.7751	7.36066e-05
2	0	0	1	0	0	100.321	0.446686	0.447027	-0.0542156	5	0.0101143	12	0	0.1	-2.42358e-05
2	0	0	1	0	0	100.671	0.443185	0.443498	-0.0893578	5	0.0100871	12	0	0.45	-3.963e-05
2	0	0	1	0	0	101.022	0.439685	0.440055	-0.103952	5	0.0100535	12	0	0.8002	-4.57445e-05
2	0	0	1	0	0	101.372	0.436184	0.436497	-0.102797	5	0.010017	12	0	1.1502	-4.48704e-05
2	0	0	1	0	0	101.722	0.432684	0.432999	-0.114796	5	0.00997863	12	0	1.5002	-4.97064e-05
2	0	0	1	0	0	102.072	0.429183	0.429503	-0.114714	5	0.00993885	12	0	1.8502	-4.92701e-05
2	0	0	1	0	0	102.422	0.425683	0.425959	-0.117385	5	0.00989756	12	0	2.2004	-5.00014e-05
2	0	0	1	0	0	102.772	0.422182	0.422447	-0.125898	5	0.00985534	12	0	2.5504	-5.31854e-05
2	0	0	1	0	0	103.122	0.418682	0.418964	-0.122184	5	0.00981181	12	0	2.9004	-5.11905e-05
2	0	0	1	0	0	103.472	0.415182	0.415462	-0.130626	5	0.00976733	12	0	3.2504	-5.42701e-05
2	0	0	1	0	0	103.822	0.411681	0.41195	-0.131456	5	0.00972199	12	0	3.6004	-5.41533e-05
2	0	0	1	0	0	104.172	0.408181	0.408459	-0.131118	5	0.00967544	12	0	3.9506	-5.35563e-05
2	0	0	1	0	0	104.522	0.40468	0.404932	-0.140768	5	0.00962814	12	0	4.3006	-5.70016e-05
2	0	0	1	0	0	104.872	0.40118	0.401488	-0.135212	5	0.00957985	12	0	4.6506	-5.42861e-05
2	0	0	1	0	0	105.222	0.397679	0.397896	-0.143884	5	0.00953059	12	0	5.0006	-5.7251e-05
2	0	0	1	0	0	105.572	0.394179	0.394358	-0.144772	5	0.00948062	12	0	5.3508	-5.70921e-05
2	0	0	1	0	0	105.922	0.390678	0.390978	-0.144131	5	0.00942946	12	0	5.7008	-5.6352e-05
2	0	0	1	0	0	106.272	0.387178	0.38743	-0.153386	5	0.0093776	12	0	6.0508	-5.94263e-05
2	0	0	1	0	0	106.622	0.383678	0.383868	-0.149744	5	0.00932468	12	0	6.4008	-5.74821e-05
2	0	0	1	0	0	106.972	0.380177	0.380517	-0.15553	5	0.0092707	12	0	6.751	-5.91819e-05
2	0	0	1	0	0	107.322	0.376677	0.376896	-0.160675	5	0.00921595	12	0	7.101	-6.05577e-05
2	0	0	1	0	0	107.672	0.373176	0.373417	-0.156856	5	0.00915997	12	0	7.451	-5.85728e-05
2	0	0	1	0	0	108.022	0.369676	0.369918	-0.16826	5	0.00910309	12	0	7.801	-6.22424e-05
2	0	0	1	0	0	108.372	0.366175	0.366399	-0.164748	5	0.00904519	12	0	8.151	-6.03636e-05
2	0	0	1	0	0	108.723	0.362675	0.362943	-0.170152	5	0.00898602	12	0	8.5012	-6.17553e-05
2	0	0	1	0	0	109.073	0.359174	0.359435	-0.176092	5	0.00892596	12	0	8.8512	-6.32937e-05
2	0	0	1	0	0	109.423	0.355674	0.355925	-0.173151	5	0.00886459	12	0	9.2012	-6.16286e-05
2	0	0	1	0	0	109.773	0.352173	0.352427	-0.182973	5	0.00880209	12	0	9.5512	-6.44848e-05
2	0	0	1	0	1	110.065	0.350773	0.351134	-0.0749323	6	0.00875376	12	0	9.844	-2.63113e-05
2	1	0	1	0	1	110.415	0.354274	0.354606	0.114103	6	0.00876894	12	0	0.2	4.04617e-05
2	1	0	1	0	1	110.765	0.357774	0.358067	0.155566	6	0.00881852	12	0	0.55	5.57028e-05
2	1	0	1	0	1	111.115	0.361275	0.361548	0.172394	6	0.00887595	12	0	0.9	6.23287e-05
2	1	0	1	0	1	111.465	0.364775	0.365014	0.166695	6	0.00893554	12	0	1.25	6.08459e-05
2	1	0	1	0	1	111.816	0.368276	0.368552	0.174462	6	0.00899562	12	0	1.6002	6.42982e-05
2	1	0	1	0	1	112.166	0.371776	0.37207	0.170336	6	0.0090554	12	0	1.9502	6.33767e-05
2	1	0	1	0	1	112.516	0.375276	0.375547	0.167431	6	0.00911517	12	0	2.3002	6.28781e-05
2	1	0	1	0	1	112.866	0.378777	0.379124	0.171925	6	0.00917425	12	0	2.6502	6.51808e-05
2	1	0	1	0	1	113.216	0.382277	0.382575	0.164097	6	0.00923305	12	0	3.0004	6.27793e-05
2	1	0	1	0	1	113.566	0.385778	0.386122	0.166231	6	0.00929134	12	0	3.3504	6.41853e-05
2	1	0	1	0	1	113.916	0.389278	0.389661	0.166251	6	0.009349	12	0	3.7004	6.47814e-05
2	1	0	1	0	1	114.266	0.392779	0.393101	0.158668	6	0.00940632	12	0	4.0504	6.23726e-05
2	1	0	1	0	1	114.616	0.396279	0.396587	0.165413	6	0.00946305	12	0	4.4005	6.56005e-05
2	1	0	1	0	1	114.966	0.39978	0.40011	0.157316	6	0.00951924	12	0	4.7506	6.29437e-05
2	1	0	1	0	1	115.316	0.40328	0.403604	0.158559	6	0.00957517	12	0	5.1006	6.3995e-05
2	1	0	1	0	1	115.666	0.406781	0.407042	0.160028	6	0.00963043	12	0	5.4506	6.51379e-05
2	1	0	1	0	1	116.016	0.410281	0.410619	0.15304	6	0.00968556	12	0	5.8006	6.28411e-05
2	1	0	1	0	1	116.366	0.413781	0.414123	0.15788	6	0.00974023	12	0	6.1508	6.53815e-05
2	1	0	1	0	1	116.716	0.417282	0.4176	0.154899	6	0.00979448	12	0	6.5008	6.46858e-05
2	1	0	1	0	1	117.066	0.420782	0.421152	0.150831	6	0.00984862	12	0	6.8508	6.3523e-05
2	1	0	1	0	1	117.416	0.424283	0.424602	0.157906	6	0.00990238	12	0	7.2008	6.70473e-05
2	1	0	1	0	1	117.766	0.427783	0.428166	0.149262	6	0.00995603	12	0	7.551	6.39088e-05
2	1	0	1	0	1	118.116	0.431284	0.431675	0.154041	6	0.0100097	12	0	7.901	6.64955e-05
2	1	0	1	0	1	118.466	0.434784	0.435147	0.154206	6	0.010063	12	0	8.251	6.71021e-05
2	1	0	1	0	1	118.816	0.438285	0.438562	0.149452	6	0.0101166	12	0	8.601	6.55441e-05
2	1	0	1	0	1	119.166	0.441785	0.442143	0.156258	6	0.0101702	12	0	8.951	6.90885e-05
2	1	0	1	0	1	119.517	0.445286	0.445666	0.153051	6	0.0102239	12	0	9.3012	6.82095e-05
2	1	0	1	0	1	119.867	0.448786	0.449116	0.152492	6	0.010278	12	0	9.6512	6.84866e-05
2	1	0	1	0	1	120.118	0.448686	0.448995	0.01322	6	0.010306	12	0	9.9026	5.93573e-06
2	0	0	1	0	1	120.468	0.445185	0.445514	-0.0770257	6	0.0102895	12	0	0.3	-3.4316e-05
2	0	0	1	0	1	120.818	0.441685	0.442017	-0.0989415	6	0.0102577	12	0	0.6502	-4.37338e-05
2	0	0	1	0	1	121.168	0.438185	0.438526	-0.107885	6	0.010222	12	0	1.0002	-4.73104e-05
2	0	0	1	0	1	121.518	0.434684	0.435002	-0.10653	6	0.010184	12	0	1.3502	-4.63408e-05
2	0	0	1	0	1	121.868	0.431184	0.431463	-0.118918	6	0.0101445	12	0	1.7002	-5.13087e-05
2	0	0	1	0	1	122.218	0.427683	0.428024	-0.116997	6	0.0101037	12	0	2.0502	-5.00776e-05
2	0	0	1	0	1	122.568	0.424183	0.424526	-0.120361	6	0.0100616	12	0	2.4004	-5.10963e-05
2	0	0	1	0	1	122.918	0.420682	0.421011	-0.1279	6	0.0100186	12	0	2.7504	-5.38475e-05
2	0	0	1	0	1	123.268	0.417182	0.417523	-0.124477	6	0.00997439	12	0	3.1004	-5.19721e-05
2	0	0	1	0	1	123.618	0.413681	0.41396	-0.131116	6	0.00992925	12	0	3.4504	-5.4277e-05
2	0	0	1	0	1	123.969	0.410181	0.410446	-0.135347	6	0.00988329	12	0	3.8006	-5.55527e-05
2	0	0	1	0	1	124.319	0.40668	0.406989	-0.131373	6	0.00983624	12	0	4.1506	-5.34673e-05
2	0	0	1	0	1	124.669	0.40318	0.403475	-0.142012	6	0.00978834	12	0	4.5006	-5.72982e-05
2	0	0	1	0	1	125.019	0.39968	0.399981	-0.139164	6	0.0097397	12	0	4.8506	-5.56631e-05
2	0	0	1	0	1	125.369	0.396179	0.396488	-0.141436	6	0.00968992	12	0	5.2007	-5.60777e-05
2	0	0	1	0	1	125.719	0.392679	0.392951	-0.149101	6	0.00963952	12	0	5.5508	-5.85894e-05
2	0	0	1	0	1	126.069	0.389178	0.389487	-0.14557	6	0.00958806	12	0	5.9008	-5.66977e-05
2	0	0	1	0	1	126.419	0.385678	0.386004	-0.15116	6	0.00953566	12	0	6.2508	-5.83484e-05
2	0	0	1	0	1	126.769	0.382177	0.382508	-0.156726	6	0.00948247	12	0	6.6008	-5.99488e-05
2	0	0	1	0	1	127.119	0.378677	0.378912	-0.152008	6	0.00942812	12	0	6.951	-5.75974e-05
2	0	0	1	0	1	127.469	0.375176	0.375503	-0.162739	6	0.00937284	12	0	7.301	-6.11092e-05
2	0	0	1	0	1	127.819	0.371676	0.371927	-0.162137	6	0.0093167	12	0	7.651	-6.03031e-05
2	0	0	1	0	1	128.169	0.368176	0.368443	-0.162617	6	0.00925927	12	0	8.001	-5.99151e-05
2	0	0	1	0	1	128.519	0.364675	0.364951	-0.171656	6	0.00920095	12	0	8.3512	-6.26459e-05
2	0	0	1	0	1	128.869	0.361175	0.361462	-0.170081	6	0.00914154	12	0	8.7012	-6.14778e-05
2	0	0	1	0	1	129.219	0.357674	0.357951	-0.172811	6	0.00908084	12	0	9.0512	-6.1858e-05
2	0	0	1	0	1	129.569	0.354174	0.354457	-0.182373	6	0.00901925	12	0	9.4012	-6.46435e-05
2	0	0	1	0	1	129.919	0.350673	0.351052	-0.177461	6	0.0089564	12	0	9.7512	-6.22981e-05
2	1	0	1	0	0	130.212	0.352273	0.352581	0.0379127	7	0.00893369	12	0	0.000000000000000E+000	1.33673e-05
2	1	0	1	0	0	130.562	0.355774	0.356059	0.140484	7	0.00896979	12	0	0.35	5.00205e-05
2	1	0	1	0	0	130.912	0.359274	0.359549	0.165251	7	0.0090235	12	0	0.7	5.94158e-05
2	1	0	1	0	0	131.262	0.362775	0.363123	0.165056	7	0.00908179	12	0	1.05	5.99356e-05
2	1	0	1	0	0	131.612	0.366275	0.366594	0.171639	7	0.0091411	12	0	1.4002	6.29217e-05
2	1	0	1	0	0	131.962	0.369776	0.370086	0.17072	7	0.00920041	12	0	1.7502	6.3181e-05
2	1	0	1	0	0	132.312	0.373276	0.373628	0.164897	7	0.00925964	12	0	2.1002	6.161e-05
2	1	0	1	0	0	132.662	0.376777	0.377103	0.171506	7	0.00931844	12	0	2.4502	6.46753e-05
2	1	0	1	0	0	133.012	0.380277	0.380577	0.164608	7	0.00937668	12	0	2.8002	6.26461e-05
2	1	0	1	0	0	133.362	0.383778	0.384089	0.163323	7	0.0094347	12	0	3.1504	6.27307e-05
2	1	0	1	0	0	133.712	0.387278	0.387515	0.166511	7	0.00949192	12	0	3.5004	6.45255e-05
2	1	0	1	0	0	134.062	0.390778	0.391063	0.158777	7	0.00954879	12	0	3.8504	6.20917e-05
2	1	0	1	0	0	134.412	0.394279	0.394579	0.16045	7	0.00960516	12	0	4.2004	6.33103e-05
2	1	0	1	0	0	134.763	0.397779	0.398098	0.161416	7	0.00966089	12	0	4.5506	6.42595e-05
2	1	0	1	0	0	135.113	0.40128	0.401585	0.153219	7	0.00971627	12	0	4.9006	6.15304e-05
2	1	0	1	0	0	135.463	0.40478	0.40509	0.159218	7	0.00977119	12	0	5.2506	6.44977e-05
2	1	0	1	0	0	135.813	0.408281	0.408649	0.155453	7	0.00982554	12	0	5.6006	6.35256e-05
2	1	0	1	0	0	136.163	0.411781	0.412079	0.151429	7	0.00987985	12	0	5.9508	6.24007e-05
2	1	0	1	0	0	136.513	0.415282	0.41559	0.156613	7	0.00993349	12	0	6.3008	6.50868e-05
2	1	0	1	0	0	136.863	0.418782	0.419092	0.150215	7	0.00998691	12	0	6.6508	6.29541e-05
2	1	0	1	0	0	137.213	0.422282	0.42255	0.150248	7	0.0100401	12	0	7.0008	6.34872e-05
2	1	0	1	0	0	137.563	0.425783	0.426097	0.154359	7	0.0100929	12	0	7.3508	6.57722e-05
2	1	0	1	0	0	137.913	0.429283	0.429584	0.146224	7	0.0101457	12	0	7.701	6.28154e-05
2	1	0	1	0	0	138.263	0.432784	0.433081	0.152284	7	0.0101984	12	0	8.051	6.59512e-05
2	1	0	1	0	0	138.613	0.436284	0.436527	0.150777	7	0.0102508	12	0	8.401	6.5818e-05
2	1	0	1	0	0	138.963	0.439785	0.440059	0.146933	7	0.0103035	12	0	8.751	6.46591e-05
2	1	0	1	0	0	139.313	0.443285	0.443553	0.153945	7	0.0103561	12	0	9.1012	6.82826e-05
2	1	0	1	0	0	139.663	0.446786	0.447069	0.149698	7	0.0104089	12	0	9.4512	6.69251e-05
2	1	0	0	0	0	139.982	0.450011	0.450216	0.153887	7	0.0104574	12	0	9.7701	6.92822e-05
2	0	0	1	0	0	140.265	0.447186	0.447496	-0.0538178	7	0.010463	12	0	0.1	-2.40832e-05
2	0	0	1	0	0	140.615	0.443685	0.443991	-0.0886876	7	0.0104361	12	0	0.45	-3.93765e-05
2	0	0	1	0	0	140.965	0.440185	0.440426	-0.104451	7	0.0104015	12	0	0.8002	-4.6003e-05
2	0	0	1	0	0	141.315	0.436684	0.436973	-0.111046	7	0.0103644	12	0	1.1502	-4.8524e-05
2	0	0	1	0	0	141.665	0.433184	0.433471	-0.109837	7	0.0103253	12	0	1.5002	-4.76113e-05
2	0	0	1	0	0	142.015	0.429683	0.429952	-0.120644	7	0.0102849	12	0	1.8502	-5.18711e-05
2	0	0	1	0	0	142.365	0.426183	0.426489	-0.119849	7	0.0102433	12	0	2.2004	-5.11144e-05
2	0	0	1	0	0	142.715	0.422683	0.423017	-0.121273	7	0.0102005	12	0	2.5504	-5.13008e-05
2	0	0	1	0	0	143.065	0.419182	0.419476	-0.130422	7	0.0101569	12	0	2.9004	-5.47087e-05
2	0	0	1	0	0	143.415	0.415682	0.416021	-0.125832	7	0.0101122	12	0	3.2504	-5.23487e-05
2	0	0	1	0	0	143.765	0.412181	0.412538	-0.131883	7	0.0100665	12	0	3.6004	-5.44069e-05
2	0	0	1	0	0	144.115	0.408681	0.409	-0.136689	7	0.0100201	12	0	3.9506	-5.59057e-05
2	0	0	1	0	0	144.465	0.40518	0.405497	-0.132846	7	0.00997262	12	0	4.3006	-5.38684e-05
2	0	0	1	0	0	144.815	0.40168	0.402012	-0.141912	7	0.00992431	12	0	4.6506	-5.70503e-05
2	0	0	1	0	0	145.165	0.398179	0.398558	-0.142095	7	0.00987532	12	0	5.0006	-5.6633e-05
2	0	0	1	0	0	145.515	0.394679	0.394973	-0.140804	7	0.0098252	12	0	5.3508	-5.56137e-05
2	0	0	1	0	0	145.865	0.391178	0.391512	-0.150774	7	0.00977444	12	0	5.7008	-5.90298e-05
2	0	0	1	0	0	146.215	0.387678	0.387953	-0.146651	7	0.00972269	12	0	6.0508	-5.68937e-05
2	0	0	1	0	0	146.565	0.384178	0.384492	-0.151556	7	0.00966993	12	0	6.4008	-5.82722e-05
2	0	0	1	0	0	146.916	0.380677	0.380998	-0.157668	7	0.00961639	12	0	6.7509	-6.00712e-05
2	0	0	1	0	0	147.266	0.377177	0.377485	-0.153511	7	0.00956179	12	0	7.101	-5.79483e-05
2	0	0	1	0	0	147.616	0.373676	0.374003	-0.162188	7	0.00950618	12	0	7.451	-6.06587e-05
2	0	0	1	0	0	147.966	0.370176	0.370478	-0.163938	7	0.00944976	12	0	7.801	-6.07355e-05
2	0	0	1	0	0	148.316	0.366675	0.367031	-0.162708	7	0.00939205	12	0	8.151	-5.97191e-05
2	0	0	1	0	0	148.666	0.363175	0.363557	-0.173244	7	0.00933346	12	0	8.5012	-6.2984e-05
2	0	0	1	0	0	149.016	0.359674	0.359989	-0.170197	7	0.00927372	12	0	8.8512	-6.12691e-05
2	0	0	1	0	0	149.366	0.356174	0.356488	-0.17484	7	0.00921278	12	0	9.2012	-6.23286e-05
2	0	0	1	0	0	149.716	0.352673	0.353038	-0.182309	7	0.00915086	12	0	9.5512	-6.43621e-05
2	0	0	1	0	1	150.009	0.350273	0.350598	-0.137776	8	0.00909901	12	0	9.844	-4.83039e-05
2	1	0	1	0	1	150.359	0.353774	0.354178	0.0975622	8	0.00910356	12	0	0.15	3.45544e-05
2	1	0	1	0	1	150.709	0.357274	0.357622	0.153991	8	0.00915012	12	0	0.5	5.50705e-05
2	1	0	1	0	1	151.059	0.360775	0.361087	0.16628	8	0.00920601	12	0	0.85	6.00416e-05
2	1	0	1	0	1	151.409	0.364275	0.36463	0.164415	8	0.00926449	12	0	1.2	5.99506e-05
2	1	0	1	0	1	151.759	0.367775	0.368078	0.172622	8	0.00932333	12	0	1.5502	6.35385e-05
2	1	0	1	0	1	152.109	0.371276	0.371567	0.164895	8	0.00938206	12	0	1.9002	6.12695e-05
2	1	0	1	0	1	152.459	0.374776	0.375092	0.16635	8	0.00944065	12	0	2.2502	6.23965e-05
2	1	0	1	0	1	152.809	0.378277	0.378622	0.168034	8	0.00949861	12	0	2.6002	6.36216e-05
2	1	0	1	0	1	153.159	0.381777	0.382038	0.160282	8	0.00955626	12	0	2.9504	6.12338e-05
2	1	0	1	0	1	153.509	0.385278	0.385656	0.164696	8	0.00961335	12	0	3.3004	6.35159e-05
2	1	0	1	0	1	153.859	0.388778	0.389073	0.161231	8	0.00966979	12	0	3.6504	6.27307e-05
2	1	0	1	0	1	154.209	0.392279	0.392578	0.156453	8	0.00972597	12	0	4.0004	6.14202e-05
2	1	0	1	0	1	154.559	0.39578	0.396089	0.162312	8	0.00978145	12	0	4.3505	6.42898e-05
2	1	0	1	0	1	154.909	0.39928	0.399588	0.153053	8	0.00983646	12	0	4.7006	6.11582e-05
2	1	0	1	0	1	155.259	0.40278	0.403106	0.156493	8	0.00989109	12	0	5.0506	6.30832e-05
2	1	0	1	0	1	155.609	0.40628	0.406635	0.155795	8	0.0099451	12	0	5.4006	6.33519e-05
2	1	0	1	0	1	155.959	0.409781	0.410064	0.14959	8	0.00999894	12	0	5.7506	6.13414e-05
2	1	0	1	0	1	156.309	0.413281	0.413581	0.155256	8	0.0100523	12	0	6.1008	6.42108e-05
2	1	0	1	0	1	156.659	0.416782	0.417133	0.149877	8	0.0101052	12	0	6.4508	6.25187e-05
2	1	0	1	0	1	157.009	0.420282	0.420571	0.148444	8	0.010158	12	0	6.8008	6.24315e-05
2	1	0	1	0	1	157.359	0.423783	0.424096	0.153274	8	0.0102102	12	0	7.1508	6.5003e-05
2	1	0	1	0	1	157.71	0.427283	0.427581	0.144725	8	0.0102625	12	0	7.501	6.18816e-05
2	1	0	1	0	1	158.06	0.430784	0.4311	0.151035	8	0.0103145	12	0	7.851	6.51112e-05
2	1	0	1	0	1	158.41	0.434284	0.434523	0.148557	8	0.0103663	12	0	8.201	6.45512e-05
2	1	0	1	0	1	158.76	0.437785	0.438053	0.145461	8	0.0104182	12	0	8.551	6.37198e-05
2	1	0	1	0	1	159.11	0.441285	0.441513	0.152119	8	0.01047	12	0	8.901	6.71627e-05
2	1	0	1	0	1	159.46	0.444785	0.44509	0.14614	8	0.010522	12	0	9.2512	6.50453e-05
2	1	0	1	0	1	159.81	0.448286	0.448603	0.149187	8	0.0105741	12	0	9.6012	6.69258e-05
2	1	0	1	0	1	160.061	0.449186	0.449427	0.047959	8	0.0106068	12	0	9.8526	2.15541e-05
2	0	0	1	0	1	160.411	0.445686	0.445919	-0.0745577	8	0.0105944	12	0	0.25	-3.32467e-05
2	0	0	1	0	1	160.761	0.442185	0.442432	-0.101576	8	0.0105625	12	0	0.6001	-4.49405e-05
2	0	0	1	0	1	161.111	0.438685	0.438915	-0.106417	8	0.0105264	12	0	0.9502	-4.6708e-05
2	0	0	1	0	1	161.461	0.435184	0.435427	-0.109235	8	0.0104879	12	0	1.3002	-4.7564e-05
2	0	0	1	0	1	161.811	0.431684	0.431948	-0.119653	8	0.0104482	12	0	1.6502	-5.1684e-05
2	0	0	1	0	1	162.161	0.428183	0.428423	-0.115038	8	0.010407	12	0	2.0002	-4.92851e-05
2	0	0	1	0	1	162.512	0.424683	0.424999	-0.124383	8	0.0103647	12	0	2.3504	-5.28627e-05
2	0	0	1	0	1	162.862	0.421182	0.421447	-0.125101	8	0.0103216	12	0	2.7004	-5.27233e-05
2	0	0	1	0	1	163.212	0.417682	0.417962	-0.125028	8	0.0102772	12	0	3.0504	-5.22569e-05
2	0	0	1	0	1	163.562	0.414181	0.414433	-0.133656	8	0.0102322	12	0	3.4004	-5.53914e-05
2	0	0	1	0	1	163.912	0.410681	0.410978	-0.129753	8	0.0101862	12	0	3.7506	-5.33255e-05
2	0	0	1	0	1	164.262	0.407181	0.407462	-0.135694	8	0.0101392	12	0	4.1006	-5.529e-05
2	0	0	1	0	1	164.612	0.40368	0.404007	-0.139567	8	0.0100916	12	0	4.4506	-5.63858e-05
2	0	0	1	0	1	164.962	0.40018	0.400399	-0.135958	8	0.0100429	12	0	4.8006	-5.44376e-05
2	0	0	1	0	1	165.312	0.396679	0.396972	-0.1464	8	0.00999353	12	0	5.1506	-5.81167e-05
2	0	0	1	0	1	165.662	0.393179	0.393438	-0.14196	8	0.0099433	12	0	5.5008	-5.58524e-05
2	0	0	1	0	1	166.012	0.389678	0.389942	-0.147468	8	0.00989203	12	0	5.8508	-5.7504e-05
2	0	0	1	0	1	166.362	0.386178	0.386417	-0.152055	8	0.00984009	12	0	6.2008	-5.87565e-05
2	0	0	1	0	1	166.712	0.382677	0.382937	-0.148942	8	0.00978704	12	0	6.5508	-5.70354e-05
2	0	0	1	0	1	167.062	0.379177	0.379476	-0.158438	8	0.00973315	12	0	6.901	-6.01232e-05
2	0	0	1	0	1	167.412	0.375676	0.375943	-0.156658	8	0.00967837	12	0	7.251	-5.88945e-05
2	0	0	1	0	1	167.762	0.372176	0.37249	-0.159421	8	0.00962242	12	0	7.601	-5.93829e-05
2	0	0	1	0	1	168.112	0.368676	0.368959	-0.167147	8	0.00956571	12	0	7.951	-6.16704e-05
2	0	0	1	0	1	168.462	0.365176	0.365485	-0.162324	8	0.00950778	12	0	8.3011	-5.9327e-05
2	0	0	1	0	1	168.812	0.361675	0.361982	-0.172862	8	0.00944885	12	0	8.6512	-6.25729e-05
2	0	0	1	0	1	169.162	0.358174	0.358449	-0.172179	8	0.00938891	12	0	9.0012	-6.17174e-05
2	0	0	1	0	1	169.512	0.354674	0.355098	-0.174143	8	0.00932769	12	0	9.3512	-6.18377e-05
2	0	0	1	0	1	169.862	0.351173	0.351595	-0.183304	8	0.00926545	12	0	9.7012	-6.44489e-05
2	0	0	1	0	0	170.155	0.351773	0.352024	0.0142075	9	0.0092326	12	0	9.994	5.00139e-06
2	1	0	1	0	0	170.505	0.355274	0.355576	0.12843	9	0.00926297	12	0	0.3	4.56668e-05
2	1	0	1	0	0	170.855	0.358774	0.359054	0.160028	9	0.00931503	12	0	0.65	5.74587e-05
2	1	0	1	0	0	171.205	0.362275	0.362583	0.167266	9	0.00937202	12	0	1	6.06478e-05
2	1	0	1	0	0	171.555	0.365775	0.366092	0.163336	9	0.0094305	12	0	1.3502	5.9796e-05
2	1	0	1	0	0	171.905	0.369276	0.369628	0.171317	9	0.00948896	12	0	1.7002	6.33236e-05
2	1	0	1	0	0	172.255	0.372776	0.373087	0.163398	9	0.00954717	12	0	2.0502	6.09616e-05
2	1	0	1	0	0	172.605	0.376277	0.376563	0.164572	9	0.0096052	12	0	2.4002	6.19719e-05
2	1	0	1	0	0	172.955	0.379777	0.380134	0.166665	9	0.00966254	12	0	2.7502	6.33551e-05
2	1	0	1	0	0	173.306	0.383277	0.383543	0.158577	9	0.00971955	12	0	3.1004	6.08213e-05
2	1	0	1	0	0	173.656	0.386778	0.387131	0.162365	9	0.00977602	12	0	3.4504	6.28565e-05
2	1	0	1	0	0	174.006	0.390278	0.3906	0.160603	9	0.00983181	12	0	3.8004	6.27315e-05
2	1	0	1	0	0	174.356	0.393779	0.394149	0.153719	9	0.00988732	12	0	4.1504	6.0588e-05
2	1	0	1	0	0	174.706	0.397279	0.3976	0.159864	9	0.00994216	12	0	4.5006	6.35621e-05
2	1	0	1	0	0	175.056	0.40078	0.401133	0.153463	9	0.00999648	12	0	4.8506	6.15591e-05
2	1	0	1	0	0	175.406	0.40428	0.404617	0.15124	9	0.0100505	12	0	5.2006	6.11944e-05
2	1	0	1	0	0	175.756	0.407781	0.408111	0.155941	9	0.0101039	12	0	5.5506	6.36411e-05
2	1	0	1	0	0	176.106	0.411281	0.411647	0.148361	9	0.0101571	12	0	5.9007	6.10722e-05
2	1	0	1	0	0	176.456	0.414781	0.41512	0.149562	9	0.0102099	12	0	6.2508	6.20861e-05
2	1	0	1	0	0	176.806	0.418282	0.41861	0.152264	9	0.0102621	12	0	6.6008	6.37394e-05
2	1	0	1	0	0	177.156	0.421782	0.422155	0.144492	9	0.0103142	12	0	6.9508	6.09979e-05
2	1	0	1	0	0	177.506	0.425283	0.425626	0.148751	9	0.010366	12	0	7.3008	6.33124e-05
2	1	0	1	0	0	177.856	0.428783	0.42911	0.149105	9	0.0104175	12	0	7.651	6.39825e-05
2	1	0	1	0	0	178.206	0.432284	0.432598	0.142357	9	0.010469	12	0	8.001	6.15834e-05
2	1	0	1	0	0	178.556	0.435784	0.436126	0.149058	9	0.0105203	12	0	8.351	6.50082e-05
2	1	0	1	0	0	178.906	0.439285	0.439539	0.146836	9	0.0105714	12	0	8.701	6.45399e-05
2	1	0	1	0	0	179.256	0.442785	0.443052	0.143047	9	0.0106228	12	0	9.0512	6.33773e-05
2	1	0	1	0	0	179.606	0.446286	0.446578	0.149806	9	0.0106741	12	0	9.4012	6.69e-05
2	1	0	1	0	0	179.954	0.449761	0.450039	0.148512	9	0.0107252	12	0	9.7487	6.68362e-05
2	0	0	1	0	0	180.208	0.447686	0.447949	-0.0349487	9	0.0107353	12	0	0.05	-1.56553e-05
2	0	0	1	0	0	180.558	0.444185	0.444509	-0.095348	9	0.0107098	12	0	0.4	-4.23831e-05
2	0	0	1	0	0	180.908	0.440685	0.440997	-0.102841	9	0.0106753	12	0	0.7502	-4.53525e-05
2	0	0	1	0	0	181.258	0.437184	0.437512	-0.106993	9	0.0106377	12	0	1.1002	-4.68107e-05
2	0	0	1	0	0	181.608	0.433684	0.433937	-0.118347	9	0.0105986	12	0	1.4502	-5.13552e-05
2	0	0	1	0	0	181.958	0.430184	0.430422	-0.115613	9	0.0105581	12	0	1.8002	-4.97623e-05
2	0	0	1	0	0	182.308	0.426684	0.427066	-0.119333	9	0.0105162	12	0	2.1503	-5.09631e-05
2	0	0	1	0	0	182.658	0.423183	0.42348	-0.127345	9	0.0104736	12	0	2.5004	-5.39279e-05
2	0	0	1	0	0	183.008	0.419682	0.420004	-0.123456	9	0.0104298	12	0	2.8504	-5.18522e-05
2	0	0	1	0	0	183.358	0.416182	0.416467	-0.127754	9	0.0103851	12	0	3.2004	-5.32054e-05
2	0	0	1	0	0	183.708	0.412681	0.413014	-0.135145	9	0.0103396	12	0	3.5504	-5.58167e-05
2	0	0	1	0	0	184.058	0.409181	0.409456	-0.129603	9	0.0102932	12	0	3.9006	-5.30667e-05
2	0	0	1	0	0	184.408	0.40568	0.405994	-0.136893	9	0.0102458	12	0	4.2506	-5.55779e-05
2	0	0	1	0	0	184.758	0.40218	0.402459	-0.140866	9	0.0101979	12	0	4.6006	-5.66929e-05
2	0	0	1	0	0	185.108	0.398679	0.398997	-0.137272	9	0.0101489	12	0	4.9506	-5.47711e-05
2	0	0	1	0	0	185.459	0.395179	0.395461	-0.144296	9	0.0100991	12	0	5.3008	-5.70634e-05
2	0	0	1	0	0	185.809	0.391679	0.391977	-0.148089	9	0.0100486	12	0	5.6508	-5.80474e-05
2	0	0	1	0	0	186.159	0.388178	0.388478	-0.143781	9	0.00999713	12	0	6.0008	-5.58558e-05
2	0	0	1	0	0	186.509	0.384678	0.384993	-0.153786	9	0.00994472	12	0	6.3508	-5.92065e-05
2	0	0	1	0	0	186.859	0.381177	0.381412	-0.15398	9	0.00989157	12	0	6.7008	-5.87299e-05
2	0	0	1	0	0	187.209	0.377677	0.377931	-0.152805	9	0.00983722	12	0	7.051	-5.77498e-05
2	0	0	1	0	0	187.559	0.374176	0.374436	-0.161894	9	0.00978211	12	0	7.401	-6.06189e-05
2	0	0	1	0	0	187.909	0.370676	0.370952	-0.162109	9	0.009726	12	0	7.751	-6.01347e-05
2	0	0	1	0	0	188.259	0.367175	0.367394	-0.16128	9	0.00966877	12	0	8.101	-5.92531e-05
2	0	0	1	0	0	188.609	0.363675	0.363992	-0.1721	9	0.00961058	12	0	8.4512	-6.26429e-05
2	0	0	1	0	0	188.959	0.360174	0.360502	-0.168784	9	0.00955142	12	0	8.8012	-6.08471e-05
2	0	0	1	0	0	189.309	0.356674	0.357031	-0.172577	9	0.0094909	12	0	9.1512	-6.16154e-05
2	0	0	1	0	0	189.659	0.353174	0.353516	-0.180918	9	0.00942956	12	0	9.5012	-6.39575e-05
2	0	0	1	0	1	189.975	0.349998	0.350218	-0.183694	9	0.00937315	12	0	9.8167	-6.43327e-05
2	1	0	1	0	1	190.302	0.353274	0.353573	0.0830227	10	0.00936906	12	0	0.1	2.93546e-05
2	1	0	1	0	1	190.652	0.356774	0.357042	0.145853	10	0.00941249	12	0	0.45	5.20757e-05
2	1	0	1	0	1	191.002	0.360274	0.360537	0.166362	10	0.00946717	12	0	0.8	5.99797e-05
2	1	0	1	0	1	191.352	0.363775	0.363998	0.161967	10	0.00952469	12	0	1.15	5.89556e-05
2	1	0	1	0	1	191.702	0.367275	0.367602	0.167501	10	0.00958295	12	0	1.5002	6.15738e-05
2	1	0	1	0	1	192.052	0.370776	0.37112	0.168008	10	0.0096409	12	0	1.8502	6.2351e-05
2	1	0	1	0	1	192.402	0.374276	0.374498	0.160989	10	0.00969876	12	0	2.2002	6.02898e-05
2	1	0	1	0	1	192.752	0.377777	0.378085	0.165295	10	0.00975613	12	0	2.5502	6.24957e-05
2	1	0	1	0	1	193.102	0.381277	0.381629	0.163038	10	0.00981296	12	0	2.9004	6.22202e-05
2	1	0	1	0	1	193.452	0.384778	0.385097	0.156265	10	0.00986938	12	0	3.2504	6.0177e-05
2	1	0	1	0	1	193.802	0.388278	0.388572	0.162994	10	0.00992523	12	0	3.6004	6.33348e-05
2	1	0	1	0	1	194.152	0.391779	0.392067	0.155108	10	0.00998046	12	0	3.9504	6.08126e-05
2	1	0	1	0	1	194.502	0.395279	0.395695	0.154687	10	0.0100354	12	0	4.3004	6.12087e-05
2	1	0	1	0	1	194.852	0.398779	0.399033	0.157489	10	0.0100895	12	0	4.6506	6.28432e-05
2	1	0	1	0	1	195.202	0.40228	0.402545	0.149752	10	0.0101434	12	0	5.0006	6.02821e-05
2	1	0	1	0	1	195.552	0.40578	0.406189	0.152663	10	0.0101968	12	0	5.3506	6.20098e-05
2	1	0	1	0	1	195.902	0.409281	0.409595	0.152887	10	0.0102496	12	0	5.7006	6.26218e-05
2	1	0	1	0	1	196.253	0.412781	0.413048	0.145274	10	0.0103023	12	0	6.0508	6.00049e-05
2	1	0	1	0	1	196.603	0.416282	0.416557	0.152328	10	0.0103544	12	0	6.4008	6.34533e-05
2	1	0	1	0	1	196.953	0.419782	0.420083	0.145372	10	0.0104061	12	0	6.7508	6.10681e-05
2	1	0	1	0	1	197.303	0.423283	0.423601	0.145598	10	0.0104577	12	0	7.1008	6.16755e-05
2	1	0	1	0	1	197.653	0.426783	0.42707	0.149267	10	0.0105088	12	0	7.4509	6.37475e-05
2	1	0	1	0	1	198.003	0.430284	0.430611	0.142326	10	0.0105599	12	0	7.801	6.1287e-05
2	1	0	1	0	1	198.353	0.433784	0.434145	0.146707	10	0.0106109	12	0	8.151	6.36921e-05
2	1	0	1	0	1	198.703	0.437284	0.437581	0.146599	10	0.0106616	12	0	8.501	6.41491e-05
2	1	0	1	0	1	199.053	0.440785	0.441133	0.141444	10	0.0107124	12	0	8.851	6.23956e-05
2	1	0	1	0	1	199.403	0.444285	0.444571	0.149439	10	0.0107632	12	0	9.2012	6.64361e-05
2	1	0	1	0	1	199.753	0.447786	0.448127	0.143047	10	0.010814	12	0	9.5512	6.41031e-05
2	1	0	1	0	1	200.004	0.449686	0.449972	0.102774	10	0.0108494	12	0	9.8026	4.62457e-05
2	0	0	1	0	1	200.354	0.446186	0.446569	-0.0771749	10	0.0108437	12	0	0.2	-3.44639e-05
2	0	0	1	0	1	200.704	0.442685	0.443076	-0.0948726	10	0.0108123	12	0	0.55	-4.20358e-05
2	0	0	1	0	1	201.055	0.439185	0.439522	-0.109787	10	0.010776	12	0	0.9002	-4.82536e-05
2	0	0	1	0	1	201.405	0.435684	0.435984	-0.111857	10	0.0107377	12	0	1.2502	-4.87678e-05
2	0	0	1	0	1	201.755	0.432184	0.432545	-0.11332	10	0.0106976	12	0	1.6002	-4.90159e-05
2	0	0	1	0	1	202.105	0.428683	0.428947	-0.123052	10	0.0106565	12	0	1.9502	-5.27826e-05
2	0	0	1	0	1	202.455	0.425183	0.425542	-0.118972	10	0.0106143	12	0	2.3004	-5.06278e-05
2	0	0	1	0	1	202.805	0.421682	0.422042	-0.125561	10	0.010571	12	0	2.6504	-5.2992e-05
2	0	0	1	0	1	203.155	0.418182	0.418545	-0.12934	10	0.010527	12	0	3.0004	-5.41346e-05
2	0	0	1	0	1	203.505	0.414681	0.415023	-0.126297	10	0.0104819	12	0	3.3504	-5.24161e-05
2	0	0	1	0	1	203.855	0.411182	0.411525	-0.135712	10	0.010436	12	0	3.7005	-5.58487e-05
2	0	0	1	0	1	204.205	0.407681	0.407971	-0.133566	10	0.0103893	12	0	4.0506	-5.44909e-05
2	0	0	1	0	1	204.555	0.40418	0.40456	-0.135678	10	0.0103417	12	0	4.4006	-5.489e-05
2	0	0	1	0	1	204.905	0.40068	0.401039	-0.142977	10	0.0102934	12	0	4.7506	-5.73395e-05
2	0	0	1	0	1	205.255	0.397179	0.397526	-0.137292	10	0.0102442	12	0	5.1006	-5.4577e-05
2	0	0	1	0	1	205.605	0.393679	0.394086	-0.146928	10	0.0101941	12	0	5.4508	-5.79022e-05
2	0	0	1	0	1	205.955	0.390178	0.390521	-0.145489	10	0.0101434	12	0	5.8008	-5.68163e-05
2	0	0	1	0	1	206.305	0.386678	0.387035	-0.146901	10	0.0100916	12	0	6.1508	-5.68559e-05
2	0	0	1	0	1	206.655	0.383177	0.383551	-0.155051	10	0.0100391	12	0	6.5008	-5.94699e-05
2	0	0	1	0	1	207.005	0.379677	0.380049	-0.151084	10	0.00998546	12	0	6.851	-5.74192e-05
2	0	0	1	0	1	207.355	0.376177	0.376525	-0.158061	10	0.00993096	12	0	7.201	-5.95138e-05
2	0	0	1	0	1	207.705	0.372676	0.373004	-0.161454	10	0.00987563	12	0	7.551	-6.02229e-05
2	0	0	1	0	1	208.055	0.369176	0.369531	-0.15895	10	0.00981914	12	0	7.901	-5.87371e-05
2	0	0	1	0	1	208.405	0.365675	0.365931	-0.170304	10	0.00976174	12	0	8.251	-6.23194e-05
2	0	0	1	0	1	208.756	0.362175	0.362549	-0.165088	10	0.00970326	12	0	8.6012	-5.98526e-05
2	0	0	1	0	1	209.106	0.358674	0.359007	-0.173172	10	0.0096436	12	0	8.9512	-6.217e-05
2	0	0	1	0	1	209.456	0.355174	0.355421	-0.176208	10	0.00958309	12	0	9.3012	-6.2628e-05
2	0	0	1	0	1	209.806	0.351673	0.352014	-0.175035	10	0.00952116	12	0	9.6512	-6.16147e-05
2	0	0	1	0	1	209.971	0.349998	0.350389	-0.188561	10	0.00949153	12	0	9.8163	-6.60698e-05