File: ACS_Catal_2026/Figures_Na_K/main_figures/data/EC/20240517_2-140_kinetic_CA/20240517_2-140_kinetic_CA_K-1_07_CVA_C02.mpt
EC-Lab ASCII FILE
Nb header lines : 66

Cyclic Voltammetry Advanced

Run on channel : 2 (SN 68855)
User :
CE vs. WE compliance from -10 V to 10 V
Electrode connection : standard
Potential control : Ewe
"Ewe ctrl range : min = -1.00 V, max = 1.00 V"
Safety Limits :
	Do not start on E overload
Acquisition started on : 05/17/2024 15:55:37.422
Loaded Setting File :  C:\Users\HZ-7000\Documents\EC-Lab\Data\Yatsuzuka\20240517_2-140_kinetic_CA\20240517_2-140_kinetic_CA_K-1_r.mps
Saved on :
	File : 20240517_2-140_kinetic_CA_K-1_07_CVA_C02.mpr
	Directory : C:\Users\HZ-7000\Documents\EC-Lab\Data\Yatsuzuka\20240517_2-140_kinetic_CA\
	Host : 192.109.209.100
Device : SP-150e (SN .003466)
Address : 192.109.209.128
EC-Lab for windows v11.50 (software)
Internet server v11.50 (firmware)
Command interpretor v11.50 (firmware)
Electrode material :
Initial state :
Electrolyte :
Comments :
Electrode surface area : 0.001 cm2
Characteristic mass : 0.001 g
Equivalent Weight : 0.000 g/eq.
Density : 0.000 g/cm3
Volume (V) : 0.001 cm3
Cycle Definition : Charge/Discharge alternance
Ei (V)              0.000
vs.                 Ref
ti (h:m:s)          0:00:10.0000
dti (s)             0.0000
dE/dt               5.000
dE/dt unit          mV/s
E1 (V)              0.700
vs.                 Ref
t1 (h:m:s)          0:00:0.0000
dt1 (s)             0.1000
Step percent        50
N                   10
E range min (V)     -1.000
E range max (V)     1.000
I Range             Auto
I Range min         Unset
I Range max         Unset
I Range init        Unset
Bandwidth           5
E2 (V)              0.000
vs.                 Ref
t2 (h:m:s)          0:00:0.0000
dt2 (s)             0.1000
nc cycles           0
nr                  1
Reverse Scan        1
Ef (V)              0.350
vs.                 Ref
tf (h:m:s)          0:00:0.0000
dtf (s)             0.1000

mode	ox/red	error	control changes	Ns changes	counter inc.	time/s	control/V	Ewe/V	<I>/mA	cycle number	(Q-Qo)/C	I Range	Ns	step time/s	P/W
2	0	0	0	0	0	3198.35	8.73685e-06	-1.01E-03	-8.07E-03	1	0.0000000E+000	13	0	0.000000000000000E+000	8.18934e-09
2	1	0	1	0	0	3198.8	0.00226352	0.00135909	0.0479057	1	1.16906e-05	13	0	0.3995	6.51079e-08
2	1	0	0	0	0	3199.3	0.00475981	0.00383003	0.0682807	1	4.15871e-05	13	0	0.8988	2.61517e-07
2	1	0	1	0	0	3199.8	0.00725632	0.00630751	0.0774658	1	7.82921e-05	13	0	1.3981	4.88617e-07
2	1	0	1	0	0	3200.3	0.00975305	0.00878832	0.0822617	1	0.000118257	13	0	1.8974	7.22942e-07
2	1	0	1	0	0	3200.8	0.0122492	0.0112973	0.0841891	1	0.000159796	13	0	2.3967	9.51108e-07
2	1	0	1	0	0	3201.3	0.0147464	0.0138189	0.0869518	1	0.000202546	13	0	2.8961	1.20158e-06
2	1	0	1	0	0	3201.8	0.0172429	0.0163154	0.0873332	1	0.000246034	13	0	3.3954	1.42488e-06
2	1	0	1	0	0	3202.3	0.0197392	0.0188105	0.0885152	1	0.000289941	13	0	3.8947	1.66502e-06
2	1	0	1	0	0	3202.8	0.0222365	0.0213122	0.0897049	1	0.000334499	13	0	4.3941	1.91181e-06
2	1	0	1	0	0	3203.3	0.0247328	0.0238011	0.0898335	1	0.000379329	13	0	4.8934	2.13814e-06
2	1	0	1	0	0	3203.79	0.0272293	0.0263019	0.0914166	1	0.000424564	13	0	5.3927	2.40443e-06
2	1	0	0	0	0	3204.29	0.029726	0.0288019	0.091443	1	0.000470173	13	0	5.892	2.63373e-06
2	1	0	1	0	0	3204.79	0.0322222	0.0312789	0.0921482	1	0.000515961	13	0	6.3913	2.8823e-06
2	1	0	1	0	0	3205.29	0.0347194	0.0337604	0.0930083	1	0.000562175	13	0	6.8907	3.14e-06
2	1	0	0	0	0	3205.79	0.0372159	0.0362738	0.0928868	1	0.00060854	13	0	7.39	3.36936e-06
2	1	0	1	0	0	3206.29	0.0397123	0.0387884	0.0940698	1	0.000655302	13	0	7.8893	3.64881e-06
2	1	0	1	0	0	3206.79	0.0422095	0.0412981	0.0943383	1	0.000702381	13	0	8.3887	3.896e-06
2	1	0	0	0	0	3207.29	0.0447058	0.0437701	0.0946211	1	0.00074956	13	0	8.888	4.14158e-06
2	1	0	1	0	0	3207.79	0.0472024	0.0462838	0.0960027	1	0.000797202	13	0	9.3873	4.44337e-06
2	1	0	1	0	0	3208.29	0.049699	0.0487687	0.0961907	1	0.000845103	13	0	9.8866	4.6911e-06
2	1	0	1	0	0	3208.79	0.0521952	0.0512492	0.0977099	1	0.000893491	13	0	10.3859	5.00755e-06
2	1	0	1	0	0	3209.29	0.0546925	0.0537516	0.0979931	1	0.000942283	13	0	10.8853	5.26728e-06
2	1	0	1	0	0	3209.79	0.0571889	0.0562269	0.0984439	1	0.000991327	13	0	11.3846	5.53519e-06
2	1	0	1	0	0	3210.29	0.0596853	0.0587552	0.100128	1	0.00104094	13	0	11.8839	5.88301e-06
2	1	0	1	0	0	3210.79	0.0621826	0.0612578	0.0998932	1	0.00109088	13	0	12.3833	6.11924e-06
2	1	0	1	0	0	3211.28	0.0646787	0.0637614	0.102009	1	0.00114136	13	0	12.8826	6.50423e-06
2	1	0	1	0	0	3211.78	0.0671754	0.0662591	0.102744	1	0.00119245	13	0	13.3819	6.80769e-06
2	1	0	0	0	0	3212.28	0.069672	0.0687345	0.103461	1	0.00124395	13	0	13.8812	7.11134e-06
2	1	0	1	0	0	3212.78	0.0721682	0.0712723	0.105298	1	0.00129605	13	0	14.3805	7.5048e-06
2	1	0	1	0	0	3213.31	0.074815	0.073869	0.106195	1	0.00135181	12	0	14.9098	7.84449e-06
2	1	0	1	0	0	3213.81	0.0773112	0.0763481	0.107034	1	0.00140507	12	0	15.4091	8.17186e-06
2	1	0	1	0	0	3214.31	0.0798084	0.0788994	0.108164	1	0.00145883	12	0	15.9085	8.53405e-06
2	1	0	1	0	0	3214.81	0.0823049	0.0813812	0.11005	1	0.00151337	12	0	16.4078	8.95603e-06
2	1	0	1	0	0	3215.31	0.0848013	0.0838712	0.110374	1	0.00156836	12	0	16.9071	9.25719e-06
2	1	0	1	0	0	3215.81	0.0872985	0.0863462	0.112346	1	0.00162402	12	0	17.4065	9.70068e-06
2	1	0	1	0	0	3216.31	0.0897947	0.088885	0.113301	1	0.00168032	12	0	17.9058	1.00708e-05
2	1	0	1	0	0	3216.81	0.0922914	0.091353	0.114288	1	0.00173711	12	0	18.4051	1.04406e-05
2	1	0	0	0	0	3217.31	0.094788	0.0938666	0.11613	1	0.00179468	12	0	18.9044	1.09007e-05
2	1	0	1	0	0	3217.81	0.0972842	0.0963576	0.116285	1	0.00185268	12	0	19.4037	1.1205e-05
2	1	0	1	0	0	3218.31	0.0997815	0.098809	0.11859	1	0.00191146	12	0	19.9031	1.17177e-05
2	1	0	0	0	0	3218.8	0.102278	0.101368	0.11906	1	0.0019708	12	0	20.4024	1.20689e-05
2	1	0	1	0	0	3219.3	0.104774	0.103825	0.120233	1	0.00203058	12	0	20.9017	1.24832e-05
2	1	0	1	0	0	3219.8	0.107271	0.106345	0.121731	1	0.00209098	12	0	21.4011	1.29455e-05
2	1	0	0	0	0	3220.3	0.109768	0.108833	0.121694	1	0.0021517	12	0	21.9004	1.32443e-05
2	1	0	1	0	0	3220.8	0.112264	0.111324	0.123782	1	0.00221302	12	0	22.3997	1.37799e-05
2	1	0	1	0	0	3221.3	0.114761	0.113791	0.123949	1	0.00227482	12	0	22.899	1.41042e-05
2	1	0	1	0	0	3221.8	0.117257	0.116308	0.125148	1	0.00233704	12	0	23.3983	1.45558e-05
2	1	0	1	0	0	3222.3	0.119754	0.118828	0.126302	1	0.00239984	12	0	23.8977	1.50082e-05
2	1	0	1	0	0	3222.8	0.122251	0.121304	0.126359	1	0.0024629	12	0	24.397	1.53279e-05
2	1	0	1	0	0	3223.3	0.124747	0.123831	0.128606	1	0.00252659	12	0	24.8963	1.59254e-05
2	1	0	1	0	0	3223.8	0.127245	0.126331	0.129196	1	0.00259099	12	0	25.3957	1.63215e-05
2	1	0	1	0	0	3224.3	0.129741	0.128777	0.130705	1	0.00265584	12	0	25.895	1.68318e-05
2	1	0	1	0	0	3224.8	0.132237	0.131347	0.132151	1	0.00272145	12	0	26.3943	1.73576e-05
2	1	0	0	0	0	3225.3	0.134734	0.133847	0.132551	1	0.00278752	12	0	26.8936	1.77415e-05
2	1	0	1	0	0	3225.79	0.13723	0.136298	0.134336	1	0.00285421	12	0	27.3929	1.83097e-05
2	1	0	1	0	0	3226.29	0.139727	0.138802	0.135006	1	0.00292154	12	0	27.8923	1.87391e-05
2	1	0	0	0	0	3226.79	0.142224	0.141292	0.136229	1	0.00298929	12	0	28.3916	1.92481e-05
2	1	0	1	0	0	3227.29	0.14472	0.143814	0.137579	1	0.00305768	12	0	28.8909	1.97858e-05
2	1	0	1	0	0	3227.79	0.147217	0.146308	0.137636	1	0.00312633	12	0	29.3903	2.01374e-05
2	1	0	0	0	0	3228.29	0.149714	0.1488	0.139212	1	0.0031955	12	0	29.8896	2.07148e-05
2	1	0	1	0	0	3228.79	0.15221	0.151278	0.139044	1	0.00326493	12	0	30.3889	2.10344e-05
2	1	0	1	0	0	3229.29	0.154707	0.153757	0.139069	1	0.00333433	12	0	30.8882	2.13828e-05
2	1	0	1	0	0	3229.79	0.157203	0.156279	0.139895	1	0.00340403	12	0	31.3875	2.18627e-05
2	1	0	1	0	0	3230.29	0.1597	0.158772	0.138904	1	0.00347368	12	0	31.8869	2.20542e-05
2	1	0	1	0	0	3230.79	0.162197	0.161276	0.139544	1	0.00354331	12	0	32.3862	2.25051e-05
2	1	0	1	0	0	3231.29	0.164693	0.163784	0.138406	1	0.00361269	12	0	32.8855	2.26687e-05
2	1	0	1	0	0	3231.79	0.16719	0.166322	0.137495	1	0.00368161	12	0	33.3849	2.28684e-05
2	1	0	1	0	0	3232.29	0.169687	0.168803	0.137009	1	0.00375015	12	0	33.8842	2.31275e-05
2	1	0	1	0	0	3232.79	0.172183	0.17123	0.134137	1	0.00381783	12	0	34.3835	2.29684e-05
2	1	0	0	0	0	3233.28	0.17468	0.173773	0.133124	1	0.00388461	12	0	34.8828	2.31334e-05
2	1	0	1	0	0	3233.78	0.177176	0.176291	0.129771	1	0.00395022	12	0	35.3821	2.28775e-05
2	1	0	1	0	0	3234.28	0.179673	0.17877	0.127435	1	0.00401449	12	0	35.8815	2.27816e-05
2	1	0	0	0	0	3234.78	0.18217	0.181236	0.125329	1	0.00407759	12	0	36.3808	2.27141e-05
2	1	0	1	0	0	3235.28	0.184666	0.183767	0.122064	1	0.00413936	12	0	36.8801	2.24313e-05
2	1	0	1	0	0	3235.78	0.187163	0.186276	0.121094	1	0.00420006	12	0	37.3795	2.2557e-05
2	1	0	0	0	0	3236.28	0.18966	0.188747	0.118178	1	0.00425975	12	0	37.8788	2.23057e-05
2	1	0	1	0	0	3236.78	0.192156	0.19129	0.116253	1	0.00431824	12	0	38.3781	2.2238e-05
2	1	0	1	0	0	3237.28	0.194653	0.193735	0.114959	1	0.00437597	12	0	38.8774	2.22715e-05
2	1	0	1	0	0	3237.78	0.197149	0.196222	0.112725	1	0.00443279	12	0	39.3767	2.2119e-05
2	1	0	1	0	0	3238.28	0.199646	0.198739	0.112151	1	0.00448896	12	0	39.8761	2.22889e-05
2	1	0	1	0	0	3238.78	0.202143	0.201216	0.110767	1	0.00454465	12	0	40.3754	2.22881e-05
2	1	0	1	0	0	3239.28	0.204639	0.203752	0.109297	1	0.00459958	12	0	40.8747	2.22695e-05
2	1	0	0	0	0	3239.78	0.207136	0.206269	0.108832	1	0.00465406	12	0	41.374	2.24486e-05
2	1	0	1	0	0	3240.28	0.209633	0.208759	0.107109	1	0.0047079	12	0	41.8734	2.23601e-05
2	1	0	1	0	0	3240.77	0.212129	0.21117	0.106563	1	0.00476121	12	0	42.3727	2.25029e-05
2	1	0	0	0	0	3241.27	0.214626	0.213731	0.10608	1	0.00481432	12	0	42.872	2.26726e-05
2	1	0	1	0	0	3241.77	0.217122	0.216224	0.104642	1	0.00486693	12	0	43.3713	2.26261e-05
2	1	0	1	0	0	3242.27	0.219619	0.218732	0.104624	1	0.00491928	12	0	43.8707	2.28847e-05
2	1	0	0	0	0	3242.77	0.222116	0.221194	0.102884	1	0.00497107	12	0	44.37	2.27572e-05
2	1	0	1	0	0	3243.27	0.224612	0.223706	0.101878	1	0.00502221	12	0	44.8693	2.27907e-05
2	1	0	1	0	0	3243.77	0.227109	0.226227	0.101696	1	0.005073	12	0	45.3686	2.30063e-05
2	1	0	1	0	0	3244.27	0.229605	0.228692	0.0996768	1	0.00512324	12	0	45.8679	2.27953e-05
2	1	0	1	0	0	3244.77	0.232102	0.231241	0.0998479	1	0.00517309	12	0	46.3673	2.30889e-05
2	1	0	1	0	0	3245.27	0.234599	0.233688	0.0983429	1	0.00522256	12	0	46.8666	2.29815e-05
2	1	0	1	0	0	3245.77	0.237095	0.2362	0.0975092	1	0.00527148	12	0	47.3659	2.30317e-05
2	1	0	1	0	0	3246.27	0.239592	0.238663	0.0974831	1	0.00532023	12	0	47.8653	2.32656e-05
2	1	0	1	0	0	3246.77	0.242089	0.24118	0.0959053	1	0.00536849	12	0	48.3646	2.31304e-05
2	1	0	1	0	0	3247.27	0.244585	0.243726	0.0957054	1	0.00541635	12	0	48.8639	2.33259e-05
2	1	0	0	0	0	3247.77	0.247082	0.246184	0.0946732	1	0.00546387	12	0	49.3632	2.3307e-05
2	1	0	1	0	0	3248.26	0.249578	0.248652	0.0933802	1	0.00551077	12	0	49.8625	2.32192e-05
2	1	0	1	0	0	3248.76	0.252075	0.251192	0.0930775	1	0.00555735	12	0	50.3619	2.33803e-05
2	1	0	0	0	0	3249.26	0.254572	0.253659	0.0915088	1	0.0056034	12	0	50.8612	2.3212e-05
2	1	0	1	0	0	3249.76	0.257068	0.25614	0.0909894	1	0.00564897	12	0	51.3605	2.33061e-05
2	1	0	1	0	0	3250.26	0.259565	0.258674	0.090646	1	0.00569439	12	0	51.8599	2.34477e-05
2	1	0	0	0	0	3250.76	0.262062	0.261113	0.0888499	1	0.00573917	12	0	52.3592	2.31998e-05
2	1	0	1	0	0	3251.26	0.264558	0.263644	0.0889117	1	0.00578361	12	0	52.8585	2.34411e-05
2	1	0	1	0	0	3251.76	0.267055	0.266142	0.0877946	1	0.00582769	12	0	53.3578	2.33658e-05
2	1	0	1	0	0	3252.26	0.269551	0.268695	0.08679	1	0.00587128	12	0	53.8571	2.332e-05
2	1	0	1	0	0	3252.76	0.272048	0.271144	0.0868477	1	0.00591462	12	0	54.3565	2.35482e-05
2	1	0	1	0	0	3253.26	0.274545	0.273595	0.084708	1	0.00595742	12	0	54.8558	2.31757e-05
2	1	0	1	0	0	3253.76	0.277041	0.276149	0.0846222	1	0.00599977	12	0	55.3551	2.33683e-05
2	1	0	1	0	0	3254.26	0.279538	0.278611	0.0838153	1	0.00604186	12	0	55.8545	2.33519e-05
2	1	0	1	0	0	3254.76	0.282035	0.281155	0.0823909	1	0.00608338	12	0	56.3538	2.31646e-05
2	1	0	1	0	0	3255.26	0.284531	0.283692	0.0824409	1	0.00612454	12	0	56.8531	2.33878e-05
2	1	0	0	0	0	3255.75	0.287028	0.286098	0.0812254	1	0.0061654	12	0	57.3524	2.32384e-05
2	1	0	1	0	0	3256.25	0.289524	0.288632	0.0802198	1	0.00620566	12	0	57.8517	2.3154e-05
2	1	0	1	0	0	3256.75	0.292021	0.291109	0.0801313	1	0.00624571	12	0	58.3511	2.33269e-05
2	1	0	0	0	0	3257.25	0.294518	0.293617	0.0789792	1	0.0062854	12	0	58.8504	2.31896e-05
2	1	0	1	0	0	3257.75	0.297014	0.29609	0.0779523	1	0.00632464	12	0	59.3497	2.30809e-05
2	1	0	1	0	0	3258.25	0.299511	0.298602	0.0778204	1	0.00636359	12	0	59.8491	2.32373e-05
2	1	0	0	0	0	3258.75	0.302008	0.301079	0.0759254	1	0.00640192	12	0	60.3484	2.28596e-05
2	1	0	1	0	0	3259.25	0.304504	0.303577	0.0758576	1	0.00643987	12	0	60.8477	2.30286e-05
2	1	0	1	0	0	3259.75	0.307001	0.306109	0.0754469	1	0.00647761	12	0	61.347	2.30949e-05
2	1	0	1	0	0	3260.25	0.309497	0.308609	0.0737528	1	0.00651483	12	0	61.8463	2.27608e-05
2	1	0	1	0	0	3260.75	0.311994	0.311118	0.0739156	1	0.00655172	12	0	62.3457	2.29965e-05
2	1	0	1	0	0	3261.25	0.314491	0.313584	0.0724141	1	0.0065882	12	0	62.845	2.27079e-05
2	1	0	1	0	0	3261.75	0.316987	0.316114	0.071528	1	0.00662417	12	0	63.3443	2.2611e-05
2	1	0	1	0	0	3262.25	0.319484	0.318594	0.0715172	1	0.00665993	12	0	63.8437	2.2785e-05
2	1	0	1	0	0	3262.74	0.321981	0.321099	0.0699685	1	0.00669526	12	0	64.343	2.24668e-05
2	1	0	1	0	0	3263.24	0.324477	0.323565	0.0698998	1	0.00673019	12	0	64.8423	2.26172e-05
2	1	0	0	0	0	3263.74	0.326974	0.326108	0.0690199	1	0.00676481	12	0	65.3416	2.2508e-05
2	1	0	1	0	0	3264.24	0.32947	0.328546	0.067839	1	0.00679894	12	0	65.8409	2.22883e-05
2	1	0	1	0	0	3264.74	0.331967	0.331088	0.0674904	1	0.00683275	12	0	66.3403	2.23453e-05
2	1	0	0	0	0	3265.24	0.334464	0.333588	0.0668968	1	0.00686631	12	0	66.8396	2.2316e-05
2	1	0	1	0	0	3265.74	0.33696	0.336071	0.0655401	1	0.0068994	12	0	67.3389	2.20261e-05
2	1	0	1	0	0	3266.24	0.339457	0.338539	0.0659717	1	0.00693231	12	0	67.8383	2.2334e-05
2	1	0	0	0	0	3266.74	0.341954	0.341066	0.0646387	1	0.00696488	12	0	68.3376	2.20461e-05
2	1	0	1	0	0	3267.24	0.34445	0.343566	0.0640603	1	0.00699701	12	0	68.8369	2.20089e-05
2	1	0	1	0	0	3267.74	0.346947	0.346034	0.0641237	1	0.00702898	12	0	69.3362	2.2189e-05
2	1	0	1	0	0	3268.24	0.349443	0.348555	0.0623427	1	0.00706048	12	0	69.8355	2.17298e-05
2	1	0	1	0	0	3268.74	0.35194	0.351055	0.0625819	1	0.00709166	12	0	70.3349	2.19697e-05
2	1	0	1	0	0	3269.24	0.354437	0.353537	0.0615292	1	0.00712263	12	0	70.8342	2.17528e-05
2	1	0	1	0	0	3269.74	0.356933	0.356066	0.0605996	1	0.00715315	12	0	71.3335	2.15775e-05
2	1	0	0	0	0	3270.23	0.35943	0.358554	0.0608105	1	0.00718348	12	0	71.8328	2.18039e-05
2	1	0	1	0	0	3270.73	0.361926	0.361076	0.0595741	1	0.00721353	12	0	72.3322	2.15108e-05
2	1	0	1	0	0	3271.23	0.364423	0.363533	0.0591925	1	0.00724319	12	0	72.8315	2.15184e-05
2	1	0	0	0	0	3271.73	0.36692	0.36605	0.0590561	1	0.00727276	12	0	73.3308	2.16175e-05
2	1	0	1	0	0	3272.23	0.369416	0.368521	0.0579524	1	0.00730188	12	0	73.8301	2.13567e-05
2	1	0	1	0	0	3272.73	0.371913	0.370986	0.0580609	1	0.00733088	12	0	74.3295	2.15398e-05
2	1	0	0	0	0	3273.23	0.37441	0.373534	0.0572295	1	0.00735965	12	0	74.8288	2.13772e-05
2	1	0	1	0	0	3273.73	0.376906	0.376043	0.0563636	1	0.00738805	12	0	75.3281	2.11951e-05
2	1	0	1	0	0	3274.23	0.379403	0.378555	0.0566893	1	0.00741636	12	0	75.8274	2.146e-05
2	1	0	1	0	0	3274.73	0.381899	0.381004	0.055206	1	0.00744426	12	0	76.3267	2.10337e-05
2	1	0	1	0	0	3275.23	0.384396	0.38349	0.0556175	1	0.00747196	12	0	76.8261	2.13288e-05
2	1	0	1	0	0	3275.73	0.386893	0.385974	0.0546814	1	0.00749946	12	0	77.3254	2.11056e-05
2	1	0	1	0	0	3276.23	0.389389	0.388479	0.0542597	1	0.00752665	12	0	77.8247	2.10787e-05
2	1	0	1	0	0	3276.73	0.391886	0.391008	0.0543738	1	0.00755382	12	0	78.3241	2.12606e-05
2	1	0	1	0	0	3277.23	0.394383	0.393475	0.053057	1	0.00758062	12	0	78.8234	2.08766e-05
2	1	0	1	0	0	3277.72	0.396879	0.395991	0.0537188	1	0.00760738	12	0	79.3227	2.12722e-05
2	1	0	0	0	0	3278.22	0.399376	0.398491	0.0521921	1	0.0076338	12	0	79.822	2.07981e-05
2	1	0	1	0	0	3278.72	0.401872	0.400962	0.0526393	1	0.00766004	12	0	80.3213	2.11063e-05
2	1	0	1	0	0	3279.22	0.404369	0.403482	0.0518993	1	0.00768613	12	0	80.8207	2.09404e-05
2	1	0	0	0	0	3279.72	0.406866	0.405947	0.0514456	1	0.00771191	12	0	81.32	2.08842e-05
2	1	0	1	0	0	3280.22	0.409362	0.408494	0.0516504	1	0.00773761	12	0	81.8193	2.10989e-05
2	1	0	1	0	0	3280.72	0.411859	0.411016	0.0502465	1	0.00776302	12	0	82.3187	2.06521e-05
2	1	0	0	0	0	3281.22	0.414356	0.413511	0.0509106	1	0.00778834	12	0	82.818	2.10521e-05
2	1	0	1	0	0	3281.72	0.416852	0.415978	0.0497978	1	0.00781348	12	0	83.3173	2.07148e-05
2	1	0	1	0	0	3282.22	0.419349	0.41846	0.0496497	1	0.00783838	12	0	83.8166	2.07764e-05
2	1	0	1	0	0	3282.72	0.421845	0.420973	0.0500108	1	0.00786327	12	0	84.3159	2.10532e-05
2	1	0	1	0	0	3283.22	0.424342	0.423478	0.0488126	1	0.00788792	12	0	84.8153	2.0671e-05
2	1	0	1	0	0	3283.72	0.426839	0.425952	0.0493264	1	0.0079124	12	0	85.3146	2.10107e-05
2	1	0	1	0	0	3284.25	0.429485	0.42862	0.0479453	1	0.00793798	13	0	85.8439	2.05503e-05
2	1	0	0	0	0	3284.75	0.431982	0.431121	0.0486585	1	0.00796214	13	0	86.3432	2.09777e-05
2	1	0	1	0	0	3285.24	0.434478	0.433578	0.0472796	1	0.00798608	13	0	86.8425	2.04994e-05
2	1	0	1	0	0	3285.74	0.436975	0.436105	0.0476689	1	0.00800985	13	0	87.3419	2.07886e-05
2	1	0	0	0	0	3286.24	0.439472	0.438581	0.0474666	1	0.00803359	13	0	87.8412	2.0818e-05
2	1	0	1	0	0	3286.74	0.441968	0.441122	0.0465796	1	0.00805703	13	0	88.3405	2.05473e-05
2	1	0	1	0	0	3287.24	0.444465	0.443659	0.0475042	1	0.00808049	13	0	88.8398	2.10757e-05
2	1	0	0	0	0	3287.74	0.446961	0.446113	0.0464319	1	0.00810384	13	0	89.3392	2.07139e-05
2	1	0	1	0	0	3288.24	0.449458	0.448588	0.0463144	1	0.00812699	13	0	89.8385	2.07761e-05
2	1	0	1	0	0	3288.74	0.451955	0.451069	0.0464834	1	0.00815016	13	0	90.3378	2.09673e-05
2	1	0	1	0	0	3289.24	0.454451	0.453576	0.0454241	1	0.00817311	13	0	90.8371	2.06033e-05
2	1	0	1	0	0	3289.74	0.456948	0.456035	0.0460602	1	0.00819599	13	0	91.3365	2.10051e-05
2	1	0	1	0	0	3290.24	0.459445	0.458592	0.0453857	1	0.00821887	13	0	91.8358	2.08135e-05
2	1	0	1	0	0	3290.74	0.461941	0.461082	0.0453788	1	0.00824147	13	0	92.3351	2.09234e-05
2	1	0	0	0	0	3291.24	0.464438	0.463554	0.045737	1	0.0082642	13	0	92.8344	2.12016e-05
2	1	0	1	0	0	3291.74	0.466934	0.466039	0.0447055	1	0.00828668	13	0	93.3337	2.08345e-05
2	1	0	1	0	0	3292.24	0.469431	0.468585	0.0452695	1	0.00830916	13	0	93.8331	2.12126e-05
2	1	0	0	0	0	3292.73	0.471928	0.471079	0.0446486	1	0.0083316	13	0	94.3324	2.1033e-05
2	1	0	1	0	0	3293.23	0.474424	0.473568	0.0443535	1	0.00835385	13	0	94.8317	2.10044e-05
2	1	0	1	0	0	3293.73	0.476921	0.476073	0.0449228	1	0.00837621	13	0	95.3311	2.13865e-05
2	1	0	0	0	0	3294.23	0.479418	0.478537	0.0439472	1	0.00839834	13	0	95.8304	2.10304e-05
2	1	0	1	0	0	3294.73	0.481914	0.481038	0.044661	1	0.00842051	13	0	96.3297	2.14836e-05
2	1	0	1	0	0	3295.23	0.484411	0.483544	0.0443725	1	0.00844267	13	0	96.829	2.1456e-05
2	1	0	1	0	0	3295.73	0.486907	0.486023	0.0439076	1	0.00846463	13	0	97.3283	2.13401e-05
2	1	0	1	0	0	3296.23	0.489404	0.488556	0.0445028	1	0.00848671	13	0	97.8277	2.17421e-05
2	1	0	1	0	0	3296.73	0.491901	0.491056	0.0432688	1	0.0085086	13	0	98.327	2.12474e-05
2	1	0	1	0	0	3297.23	0.494397	0.493532	0.0442765	1	0.00853054	13	0	98.8263	2.18518e-05
2	1	0	1	0	0	3297.73	0.496894	0.496037	0.0436903	1	0.00855249	13	0	99.3257	2.1672e-05
2	1	0	1	0	0	3298.23	0.499391	0.498504	0.0436787	1	0.00857433	13	0	99.825	2.1774e-05
2	1	0	1	0	0	3298.73	0.501887	0.501005	0.0442974	1	0.00859627	13	0	100.324	2.21932e-05
2	1	0	0	0	0	3299.23	0.504384	0.503527	0.0430809	1	0.00861804	13	0	100.824	2.16924e-05
2	1	0	1	0	0	3299.72	0.50688	0.505968	0.0443135	1	0.00863987	13	0	101.323	2.24212e-05
2	1	0	1	0	0	3300.22	0.509377	0.50848	0.0435972	1	0.00866177	13	0	101.822	2.21683e-05
2	1	0	0	0	0	3300.72	0.511874	0.510965	0.0437518	1	0.00868358	13	0	102.322	2.23556e-05
2	1	0	1	0	0	3301.22	0.51437	0.513507	0.0441965	1	0.00870557	13	0	102.821	2.26952e-05
2	1	0	1	0	0	3301.72	0.516867	0.516046	0.0434439	1	0.00872746	13	0	103.32	2.2419e-05
2	1	0	0	0	0	3302.22	0.519364	0.518492	0.0445747	1	0.00874943	13	0	103.82	2.31116e-05
2	1	0	1	0	0	3302.72	0.52186	0.521049	0.0441487	1	0.00877155	13	0	104.319	2.30036e-05
2	1	0	1	0	0	3303.22	0.524357	0.52355	0.0445372	1	0.00879362	13	0	104.818	2.33175e-05
2	1	0	1	0	0	3303.72	0.526853	0.526041	0.0449488	1	0.00881594	13	0	105.317	2.36449e-05
2	1	0	1	0	0	3304.22	0.52935	0.52852	0.0443803	1	0.0088382	13	0	105.817	2.34559e-05
2	1	0	1	0	0	3304.72	0.531847	0.531016	0.045305	1	0.00886061	13	0	106.316	2.40577e-05
2	1	0	1	0	0	3305.22	0.534343	0.533483	0.0452678	1	0.00888324	13	0	106.815	2.41496e-05
2	1	0	1	0	0	3305.72	0.53684	0.536004	0.0456899	1	0.00890594	13	0	107.315	2.449e-05
2	1	0	1	0	0	3306.22	0.539336	0.538514	0.046537	1	0.00892899	13	0	107.814	2.50608e-05
2	1	0	1	0	0	3306.72	0.541833	0.540982	0.0462661	1	0.00895209	13	0	108.313	2.50291e-05
2	1	0	0	0	0	3307.21	0.54433	0.543475	0.0474953	1	0.00897547	13	0	108.813	2.58125e-05
2	1	0	1	0	0	3307.71	0.546826	0.545988	0.0476629	1	0.00899915	13	0	109.312	2.60234e-05
2	1	0	1	0	0	3308.21	0.549323	0.548452	0.0482415	1	0.00902303	13	0	109.811	2.64582e-05
2	1	0	0	0	0	3308.71	0.55182	0.550993	0.049406	1	0.00904743	13	0	110.311	2.72223e-05
2	1	0	1	0	0	3309.21	0.554316	0.553452	0.0491944	1	0.00907203	13	0	110.81	2.72268e-05
2	1	0	1	0	0	3309.71	0.556813	0.555997	0.0511947	1	0.00909715	13	0	111.309	2.84641e-05
2	1	0	0	0	0	3310.21	0.559309	0.558433	0.0515561	1	0.00912275	13	0	111.809	2.87907e-05
2	1	0	1	0	0	3310.71	0.561806	0.56098	0.0528153	1	0.00914882	13	0	112.308	2.96283e-05
2	1	0	1	0	0	3311.21	0.564303	0.563485	0.0546059	1	0.00917563	13	0	112.807	3.07696e-05
2	1	0	1	0	0	3311.71	0.566799	0.565945	0.0552779	1	0.00920298	13	0	113.307	3.12842e-05
2	1	0	1	0	0	3312.21	0.569296	0.568403	0.0578845	1	0.00923125	13	0	113.806	3.29017e-05
2	1	0	1	0	0	3312.71	0.571793	0.57092	0.058706	1	0.00926035	13	0	114.305	3.35165e-05
2	1	0	1	0	0	3313.21	0.574289	0.573436	0.0614922	1	0.0092904	13	0	114.805	3.52618e-05
2	1	0	1	0	0	3313.71	0.576786	0.575949	0.0636278	1	0.00932167	13	0	115.304	3.66464e-05
2	1	0	1	0	0	3314.21	0.579282	0.578419	0.0659463	1	0.00935401	13	0	115.803	3.81446e-05
2	1	0	1	0	0	3314.7	0.581779	0.580903	0.0697761	1	0.00938789	13	0	116.303	4.05331e-05
2	1	0	0	0	0	3315.2	0.584276	0.583393	0.0719587	1	0.00942322	13	0	116.802	4.19802e-05
2	1	0	1	0	0	3315.7	0.586772	0.585954	0.0764366	1	0.00946026	13	0	117.301	4.47883e-05
2	1	0	1	0	0	3316.2	0.589269	0.588432	0.0800858	1	0.00949932	13	0	117.801	4.71251e-05
2	1	0	0	0	0	3316.7	0.591766	0.590877	0.0845735	1	0.00954043	13	0	118.3	4.99725e-05
2	1	0	1	0	0	3317.2	0.594262	0.59337	0.0904048	1	0.00958416	13	0	118.799	5.36435e-05
2	1	0	1	0	0	3317.7	0.596759	0.595895	0.0953649	1	0.00963055	13	0	119.299	5.68275e-05
2	1	0	0	0	0	3318.2	0.599255	0.598408	0.102673	1	0.00968	13	0	119.798	6.14404e-05
2	1	0	1	0	0	3318.73	0.601902	0.601055	0.109927	1	0.00973634	12	0	120.327	6.60719e-05
2	1	0	1	0	0	3319.23	0.604398	0.603585	0.118992	1	0.00979352	12	0	120.827	7.1822e-05
2	1	0	1	0	0	3319.73	0.606895	0.606052	0.126941	1	0.00985492	12	0	121.326	7.6933e-05
2	1	0	0	0	0	3320.23	0.609392	0.60859	0.138027	1	0.00992117	12	0	121.825	8.40016e-05
2	1	0	1	0	0	3320.73	0.611888	0.611064	0.149355	1	0.00999293	12	0	122.324	9.12656e-05
2	1	0	1	0	0	3321.23	0.614385	0.613567	0.161576	1	0.0100706	12	0	122.824	9.91379e-05
2	1	0	0	0	0	3321.73	0.616882	0.616005	0.176684	1	0.0101551	12	0	123.323	0.000108838
2	1	0	1	0	0	3322.22	0.619378	0.618477	0.191163	1	0.0102469	12	0	123.822	0.00011823
2	1	0	1	0	0	3322.72	0.621875	0.621003	0.208672	1	0.0103467	12	0	124.322	0.000129586
2	1	0	0	0	0	3323.22	0.624371	0.623498	0.227527	1	0.0104556	12	0	124.821	0.000141863
2	1	0	1	0	0	3323.72	0.626868	0.626033	0.247241	1	0.0105742	12	0	125.32	0.000154781
2	1	0	1	0	0	3324.22	0.629365	0.628512	0.269917	1	0.0107034	12	0	125.82	0.000169646
2	1	0	1	0	0	3324.72	0.631861	0.630966	0.293607	1	0.0108442	12	0	126.319	0.000185256
2	1	0	1	0	0	3325.22	0.634358	0.633517	0.319427	1	0.0109973	12	0	126.818	0.000202362
2	1	0	1	0	0	3325.72	0.636854	0.636027	0.347951	1	0.011164	12	0	127.318	0.000221306
2	1	0	1	0	0	3326.22	0.639351	0.638554	0.377273	1	0.0113451	12	0	127.817	0.000240909
2	1	0	1	0	0	3326.72	0.641848	0.64096	0.409492	1	0.0115416	12	0	128.316	0.000262468
2	1	0	1	0	0	3327.22	0.644344	0.643512	0.443217	1	0.0117545	12	0	128.816	0.000285216
2	1	0	1	0	0	3327.72	0.646841	0.645993	0.477746	1	0.0119845	12	0	129.315	0.00030862
2	1	0	0	0	0	3328.22	0.649338	0.648518	0.515942	1	0.0122328	12	0	129.814	0.000334598
2	1	0	1	0	0	3328.72	0.651834	0.650983	0.554343	1	0.0125001	12	0	130.314	0.000360868
2	1	0	1	0	0	3329.22	0.654331	0.653486	0.595499	1	0.0127874	12	0	130.813	0.00038915
2	1	0	0	0	0	3329.71	0.656828	0.656012	0.638359	1	0.0130955	12	0	131.312	0.000418771
2	1	0	1	0	0	3330.21	0.659324	0.65846	0.681196	1	0.0134251	12	0	131.812	0.00044854
2	1	0	1	0	0	3330.71	0.661821	0.660994	0.727595	1	0.0137769	12	0	132.311	0.000480936
2	1	0	0	0	0	3331.21	0.664317	0.663473	0.774285	1	0.0141521	12	0	132.81	0.000513717
2	1	0	1	0	0	3331.71	0.666814	0.665989	0.823937	1	0.0145513	12	0	133.31	0.000548733
2	1	0	1	0	0	3332.21	0.669311	0.668467	0.875263	1	0.0149757	12	0	133.809	0.000585084
2	1	0	1	0	0	3332.71	0.671807	0.670993	0.927352	1	0.0154259	12	0	134.308	0.000622247
2	1	0	1	0	0	3333.21	0.674304	0.673435	0.983045	1	0.0159032	12	0	134.808	0.000662018
2	1	0	1	0	0	3333.71	0.6768	0.675952	1.03779	1	0.0164079	12	0	135.307	0.000701497
2	1	0	1	0	0	3334.22	0.679372	0.678496	1.09509	1	0.0169567	12	0	135.821	0.000743015
2	1	0	0	0	0	3334.74	0.681944	0.681095	1.15398	1	0.0175356	11	0	136.336	0.000785973
2	1	0	1	0	0	3335.24	0.68444	0.683611	1.21136	1	0.0181264	11	0	136.835	0.000828101
2	1	0	1	0	0	3335.74	0.686937	0.686101	1.26847	1	0.0187459	11	0	137.334	0.0008703
2	1	0	0	0	0	3336.24	0.689433	0.68859	1.32681	1	0.0193941	11	0	137.834	0.000913628
2	1	0	1	0	0	3336.73	0.69193	0.691113	1.38748	1	0.020072	11	0	138.333	0.000958903
2	1	0	1	0	0	3337.23	0.694427	0.693578	1.44762	1	0.02078	11	0	138.832	0.00100404
2	1	0	1	0	0	3337.73	0.696923	0.696081	1.51019	1	0.0215187	11	0	139.331	0.00105121
2	1	0	1	0	0	3338.23	0.69942	0.698569	1.57211	1	0.0222887	11	0	139.831	0.00109822
2	1	0	1	0	0	3338.51	0.69917	0.698322	1.55663	1	0.0227222	11	0	140.107	0.00108703
2	1	0	0	0	0	3339.01	0.696674	0.695816	1.4849	1	0.023481	11	0	140.606	0.00103322
2	1	0	1	0	0	3339.51	0.694177	0.693286	1.41546	1	0.0242046	11	0	141.105	0.000981318
2	1	0	1	0	0	3340.01	0.69168	0.69086	1.34946	1	0.0248945	11	0	141.605	0.000932287
2	1	0	1	0	0	3340.51	0.689184	0.688342	1.28603	1	0.0255519	11	0	142.104	0.000885229
2	1	0	1	0	0	3341.01	0.686687	0.685835	1.2258	1	0.0261787	11	0	142.603	0.000840695
2	1	0	1	0	0	3341.5	0.684191	0.683385	1.16706	1	0.0267758	11	0	143.103	0.000797549
2	1	0	1	0	0	3342	0.681694	0.680867	1.10899	1	0.0273435	11	0	143.602	0.000755074
2	1	0	1	0	0	3342.5	0.679197	0.678341	1.05613	1	0.0278838	11	0	144.101	0.000716414
2	1	0	1	0	0	3343	0.676701	0.675848	1.00009	1	0.028397	11	0	144.601	0.000675911
2	1	0	1	0	0	3343.5	0.674204	0.673319	0.942864	1	0.0288817	11	0	145.1	0.000634849
2	1	0	0	0	0	3344	0.671707	0.670863	0.888758	1	0.0293387	11	0	145.599	0.000596235
2	1	0	1	0	0	3344.5	0.669211	0.668339	0.834567	1	0.0297685	11	0	146.098	0.000557774
2	1	0	1	0	0	3345	0.666714	0.665852	0.78374	1	0.0301723	11	0	146.598	0.000521855
2	1	0	0	0	0	3345.5	0.664218	0.663323	0.735133	1	0.0305511	11	0	147.097	0.000487631
2	1	0	1	0	0	3346	0.661721	0.660867	0.686299	1	0.0309057	11	0	147.596	0.000453552
2	1	0	1	0	0	3346.5	0.659224	0.65836	0.640271	1	0.0312366	11	0	148.096	0.000421529
2	1	0	0	0	0	3347	0.656728	0.655895	0.595028	1	0.0315447	11	0	148.595	0.000390276
2	1	0	1	0	0	3347.5	0.654231	0.653371	0.551523	1	0.0318307	11	0	149.094	0.000360349
2	1	0	1	0	0	3348	0.651734	0.650892	0.50929	1	0.0320953	11	0	149.594	0.000331493
2	1	0	1	0	0	3348.5	0.649238	0.648387	0.467747	1	0.0323388	11	0	150.093	0.000303281
2	1	0	0	0	0	3349.02	0.646591	0.645742	0.426846	1	0.0325753	12	0	150.622	0.000275632
2	1	0	1	0	0	3349.52	0.644095	0.643255	0.390308	1	0.032779	12	0	151.122	0.000251067
2	1	0	1	0	0	3350.02	0.641598	0.640725	0.357518	1	0.0329654	12	0	151.621	0.00022907
2	1	0	0	0	0	3350.52	0.639102	0.63827	0.324986	1	0.0331356	12	0	152.12	0.000207429
2	1	0	1	0	0	3351.02	0.636605	0.635771	0.294879	1	0.0332902	12	0	152.62	0.000187475
2	1	0	1	0	0	3351.52	0.634108	0.633246	0.267428	1	0.0334304	12	0	153.119	0.000169348
2	1	0	0	0	0	3352.02	0.631612	0.630762	0.240449	1	0.033557	12	0	153.618	0.000151666
2	1	0	1	0	0	3352.52	0.629115	0.628268	0.21582	1	0.0336707	12	0	154.118	0.000135593
2	1	0	1	0	0	3353.02	0.626618	0.625732	0.192558	1	0.0337724	12	0	154.617	0.000120489
2	1	0	1	0	0	3353.52	0.624122	0.623237	0.170202	1	0.0338627	12	0	155.116	0.000106076
2	1	0	1	0	0	3354.02	0.621625	0.620749	0.151229	1	0.0339429	12	0	155.616	9.38753e-05
2	1	0	1	0	0	3354.52	0.619129	0.618259	0.132603	1	0.0340135	12	0	156.115	8.19833e-05
2	1	0	1	0	0	3355.02	0.616632	0.615768	0.116023	1	0.0340755	12	0	156.614	7.14431e-05
2	1	0	1	0	0	3355.52	0.614135	0.613259	0.101609	1	0.0341297	12	0	157.114	6.23128e-05
2	1	0	1	0	0	3356.01	0.611639	0.610805	0.0869143	1	0.0341766	12	0	157.613	5.30877e-05
2	1	0	1	0	0	3356.51	0.609142	0.608313	0.0753785	1	0.0342171	12	0	158.112	4.58537e-05
2	1	0	0	0	0	3357.01	0.606645	0.605811	0.0641702	1	0.0342517	12	0	158.612	3.8875e-05
2	1	0	1	0	0	3357.51	0.604149	0.60335	0.0537289	1	0.0342811	12	0	159.111	3.24173e-05
2	1	0	0	0	0	3358.04	0.601502	0.600625	0.0446103	1	0.0343072	13	0	159.64	2.67941e-05
2	1	0	1	0	0	3358.54	0.599006	0.598157	0.036632	1	0.0343274	13	0	160.139	2.19117e-05
2	1	0	1	0	0	3359.04	0.596509	0.595658	0.0305473	1	0.0343442	13	0	160.639	1.81957e-05
2	1	0	0	0	0	3359.54	0.594013	0.593146	0.0233184	1	0.0343575	13	0	161.138	1.38312e-05
2	1	0	1	0	0	3360.04	0.591516	0.590657	0.0186501	1	0.034368	13	0	161.637	1.10158e-05
2	1	0	1	0	0	3360.54	0.589019	0.588144	0.0135884	1	0.0343759	13	0	162.137	7.99191e-06
2	1	0	0	0	0	3361.04	0.586523	0.585671	0.00852394	1	0.0343814	13	0	162.636	4.99223e-06
2	1	0	1	0	0	3361.54	0.584026	0.583129	0.00548893	1	0.0343849	13	0	163.135	3.20076e-06
2	1	0	1	0	0	3362.04	0.581529	0.580662	0.00122243	1	0.0343866	13	0	163.635	7.0982e-07
2	0	0	1	0	0	3362.54	0.579033	0.578152	-1.60E-03	1	0.0343866	13	0	0.0998	-9.25E-07
2	1	0	1	0	0	3363.04	0.576536	0.575662	-3.95E-03	1	0.0343852	13	0	0.5992	-2.28E-06
2	0	0	1	0	0	3363.53	0.574039	0.573139	-7.20E-03	1	0.0343824	13	0	1.0985	-4.13E-06
2	0	0	1	0	0	3364.03	0.571543	0.570677	-8.44E-03	1	0.0343784	13	0	1.5978	-4.82E-06
2	0	0	1	0	0	3364.53	0.569046	0.568202	-1.07E-02	1	0.0343736	13	0	2.0972	-6.08E-06
2	0	0	1	0	0	3365.03	0.56655	0.5657	-1.28E-02	1	0.0343677	13	0	2.5965	-7.23E-06
2	0	0	1	0	0	3365.53	0.564053	0.563228	-1.37E-02	1	0.0343611	13	0	3.0958	-7.72E-06
2	0	0	0	0	0	3366.03	0.561556	0.560712	-1.57E-02	1	0.0343537	13	0	3.5951	-8.80E-06
2	0	0	1	0	0	3366.53	0.55906	0.558203	-1.69E-02	1	0.0343456	13	0	4.0944	-9.43E-06
2	0	0	1	0	0	3367.03	0.556563	0.5557	-1.79E-02	1	0.034337	13	0	4.5938	-9.93E-06
2	0	0	0	0	0	3367.53	0.554067	0.553225	-1.96E-02	1	0.0343276	13	0	5.0931	-1.09E-05
2	0	0	1	0	0	3368.03	0.55157	0.550715	-1.95E-02	1	0.0343179	13	0	5.5924	-1.07E-05
2	0	0	1	0	0	3368.53	0.549073	0.548152	-2.13E-02	1	0.0343077	13	0	6.0918	-1.17E-05
2	0	0	0	0	0	3369.03	0.546577	0.545745	-2.17E-02	1	0.0342969	13	0	6.5911	-1.19E-05
2	0	0	1	0	0	3369.53	0.54408	0.543198	-2.23E-02	1	0.034286	13	0	7.0904	-1.21E-05
2	0	0	1	0	0	3370.03	0.541583	0.54071	-2.37E-02	1	0.0342745	13	0	7.5897	-1.28E-05
2	0	0	1	0	0	3370.53	0.539087	0.53822	-2.33E-02	1	0.0342628	13	0	8.089	-1.26E-05
2	0	0	1	0	0	3371.02	0.53659	0.535742	-2.49E-02	1	0.0342508	13	0	8.5884	-1.33E-05
2	0	0	1	0	0	3371.52	0.534094	0.533261	-2.48E-02	1	0.0342384	13	0	9.0877	-1.32E-05
2	0	0	1	0	0	3372.02	0.531597	0.530749	-2.53E-02	1	0.0342259	13	0	9.587	-1.34E-05
2	0	0	1	0	0	3372.52	0.5291	0.528212	-2.62E-02	1	0.034213	13	0	10.0864	-1.39E-05
2	0	0	1	0	0	3373.02	0.526604	0.525739	-2.58E-02	1	0.0342	13	0	10.5857	-1.36E-05
2	0	0	1	0	0	3373.52	0.524107	0.523242	-2.71E-02	1	0.0341868	13	0	11.085	-1.42E-05
2	0	0	0	0	0	3374.02	0.52161	0.520733	-2.72E-02	1	0.0341733	13	0	11.5843	-1.41E-05
2	0	0	1	0	0	3374.52	0.519114	0.518231	-2.73E-02	1	0.0341597	13	0	12.0836	-1.42E-05
2	0	0	1	0	0	3375.02	0.516617	0.515757	-2.80E-02	1	0.0341459	13	0	12.583	-1.45E-05
2	0	0	0	0	0	3375.52	0.514121	0.513259	-2.77E-02	1	0.034132	13	0	13.0823	-1.42E-05
2	0	0	1	0	0	3376.02	0.511624	0.510781	-2.82E-02	1	0.034118	13	0	13.5816	-1.44E-05
2	0	0	1	0	0	3376.52	0.509127	0.508248	-2.87E-02	1	0.0341038	13	0	14.0809	-1.46E-05
2	0	0	0	0	0	3377.02	0.506631	0.505784	-2.83E-02	1	0.0340896	13	0	14.5803	-1.43E-05
2	0	0	1	0	0	3377.52	0.504134	0.503245	-2.92E-02	1	0.0340752	13	0	15.0796	-1.47E-05
2	0	0	1	0	0	3378.02	0.501638	0.500767	-2.91E-02	1	0.0340607	13	0	15.5789	-1.46E-05
2	0	0	1	0	0	3378.51	0.499141	0.498226	-2.92E-02	1	0.0340462	13	0	16.0782	-1.46E-05
2	0	0	1	0	0	3379.01	0.496644	0.495765	-3.01E-02	1	0.0340313	13	0	16.5776	-1.49E-05
2	0	0	1	0	0	3379.51	0.494148	0.493273	-2.92E-02	1	0.0340166	13	0	17.0769	-1.44E-05
2	0	0	1	0	0	3380.01	0.491651	0.490764	-3.04E-02	1	0.0340016	13	0	17.5762	-1.49E-05
2	0	0	1	0	0	3380.51	0.489154	0.488258	-3.01E-02	1	0.0339865	13	0	18.0756	-1.47E-05
2	0	0	1	0	0	3381.01	0.486658	0.485759	-3.02E-02	1	0.0339715	13	0	18.5749	-1.47E-05
2	0	0	1	0	0	3381.51	0.484161	0.483269	-3.11E-02	1	0.0339562	13	0	19.0742	-1.50E-05
2	0	0	0	0	0	3382.01	0.481665	0.480776	-3.04E-02	1	0.0339408	13	0	19.5735	-1.46E-05
2	0	0	1	0	0	3382.51	0.479168	0.478298	-3.16E-02	1	0.0339254	13	0	20.0728	-1.51E-05
2	0	0	1	0	0	3383.01	0.476671	0.475799	-3.13E-02	1	0.0339097	13	0	20.5722	-1.49E-05
2	0	0	0	0	0	3383.51	0.474175	0.473304	-3.12E-02	1	0.0338942	13	0	21.0715	-1.48E-05
2	0	0	1	0	0	3384.01	0.471678	0.470837	-3.21E-02	1	0.0338783	13	0	21.5708	-1.51E-05
2	0	0	1	0	0	3384.51	0.469181	0.468278	-3.14E-02	1	0.0338624	13	0	22.0701	-1.47E-05
2	0	0	0	0	0	3385.01	0.466685	0.465797	-3.23E-02	1	0.0338465	13	0	22.5695	-1.50E-05
2	0	0	1	0	0	3385.51	0.464188	0.463309	-3.22E-02	1	0.0338304	13	0	23.0688	-1.49E-05
2	0	0	1	0	0	3386	0.461692	0.460804	-3.22E-02	1	0.0338144	13	0	23.5681	-1.48E-05
2	0	0	1	0	0	3386.5	0.459195	0.458326	-3.28E-02	1	0.0337982	13	0	24.0674	-1.50E-05
2	0	0	1	0	0	3387	0.456698	0.455813	-3.26E-02	1	0.0337819	13	0	24.5668	-1.48E-05
2	0	0	0	0	0	3387.5	0.454202	0.453339	-3.30E-02	1	0.0337655	13	0	25.0661	-1.50E-05
2	0	0	1	0	0	3388	0.451705	0.450833	-3.33E-02	1	0.0337489	13	0	25.5654	-1.50E-05
2	0	0	1	0	0	3388.5	0.449208	0.448345	-3.30E-02	1	0.0337324	13	0	26.0647	-1.48E-05
2	0	0	1	0	0	3389	0.446712	0.445825	-3.42E-02	1	0.0337156	13	0	26.564	-1.53E-05
2	0	0	1	0	0	3389.5	0.444215	0.443327	-3.37E-02	1	0.0336987	13	0	27.0634	-1.50E-05
2	0	0	1	0	0	3390	0.441719	0.440787	-3.42E-02	1	0.0336817	13	0	27.5627	-1.51E-05
2	0	0	1	0	0	3390.5	0.439222	0.438308	-3.48E-02	1	0.0336646	13	0	28.062	-1.53E-05
2	0	0	1	0	0	3391	0.436725	0.435821	-3.41E-02	1	0.0336474	13	0	28.5614	-1.49E-05
2	0	0	1	0	0	3391.5	0.434229	0.433319	-3.54E-02	1	0.03363	13	0	29.0607	-1.53E-05
2	0	0	1	0	0	3392	0.431732	0.430818	-3.47E-02	1	0.0336126	13	0	29.56	-1.49E-05
2	0	0	0	0	0	3392.5	0.429235	0.428325	-3.53E-02	1	0.0335951	13	0	30.0593	-1.51E-05
2	0	0	1	0	0	3392.99	0.426739	0.425859	-3.59E-02	1	0.0335773	13	0	30.5586	-1.53E-05
2	0	0	1	0	0	3393.49	0.424242	0.423328	-3.54E-02	1	0.0335595	13	0	31.058	-1.50E-05
2	0	0	0	0	0	3393.99	0.421746	0.420806	-3.67E-02	1	0.0335415	13	0	31.5573	-1.54E-05
2	0	0	1	0	0	3394.49	0.419249	0.418355	-3.62E-02	1	0.0335234	13	0	32.0566	-1.52E-05
2	0	0	1	0	0	3394.99	0.416752	0.415836	-3.67E-02	1	0.0335052	13	0	32.556	-1.53E-05
2	0	0	0	0	0	3395.49	0.414256	0.413395	-3.71E-02	1	0.0334868	13	0	33.0553	-1.53E-05
2	0	0	1	0	0	3395.99	0.411759	0.41095	-3.67E-02	1	0.0334683	13	0	33.5546	-1.51E-05
2	0	0	1	0	0	3396.49	0.409262	0.408365	-3.78E-02	1	0.0334497	13	0	34.0539	-1.54E-05
2	0	0	1	0	0	3396.99	0.406766	0.405916	-3.77E-02	1	0.0334309	13	0	34.5532	-1.53E-05
2	0	0	1	0	0	3397.49	0.404269	0.403409	-3.80E-02	1	0.0334121	13	0	35.0526	-1.53E-05
2	0	0	1	0	0	3397.99	0.401773	0.400888	-3.88E-02	1	0.0333929	13	0	35.5519	-1.55E-05
2	0	0	1	0	0	3398.49	0.399276	0.398381	-3.84E-02	1	0.0333737	13	0	36.0512	-1.53E-05
2	0	0	1	0	0	3398.99	0.396779	0.395901	-3.94E-02	1	0.0333543	13	0	36.5506	-1.56E-05
2	0	0	1	0	0	3399.49	0.394283	0.393383	-3.94E-02	1	0.0333346	13	0	37.0499	-1.55E-05
2	0	0	1	0	0	3399.99	0.391786	0.390939	-3.96E-02	1	0.0333149	13	0	37.5492	-1.55E-05
2	0	0	0	0	0	3400.48	0.38929	0.388387	-4.05E-02	1	0.0332949	13	0	38.0485	-1.57E-05
2	0	0	1	0	0	3400.98	0.386793	0.385869	-4.00E-02	1	0.0332748	13	0	38.5478	-1.54E-05
2	0	0	1	0	0	3401.48	0.384296	0.383447	-4.14E-02	1	0.0332545	13	0	39.0472	-1.59E-05
2	0	0	0	0	0	3401.98	0.3818	0.380895	-4.10E-02	1	0.033234	13	0	39.5465	-1.56E-05
2	0	0	1	0	0	3402.48	0.379303	0.378431	-4.16E-02	1	0.0332134	13	0	40.0458	-1.58E-05
2	0	0	1	0	0	3402.98	0.376806	0.375918	-4.24E-02	1	0.0331924	13	0	40.5452	-1.59E-05
2	0	0	0	0	0	3403.48	0.37431	0.373473	-4.18E-02	1	0.0331714	13	0	41.0445	-1.56E-05
2	0	0	1	0	0	3403.98	0.371813	0.370926	-4.33E-02	1	0.0331501	13	0	41.5438	-1.61E-05
2	0	0	0	0	0	3404.48	0.369317	0.368412	-4.29E-02	1	0.0331286	13	0	42.0431	-1.58E-05
2	0	0	1	0	0	3404.98	0.36682	0.36593	-4.37E-02	1	0.033107	13	0	42.5424	-1.60E-05
2	0	0	1	0	0	3405.48	0.364323	0.36341	-4.42E-02	1	0.033085	13	0	43.0418	-1.61E-05
2	0	0	0	0	0	3405.98	0.361827	0.360936	-4.40E-02	1	0.0330631	13	0	43.5411	-1.59E-05
2	0	0	1	0	0	3406.48	0.35933	0.358423	-4.55E-02	1	0.0330407	13	0	44.0404	-1.63E-05
2	0	0	1	0	0	3406.98	0.356833	0.355886	-4.47E-02	1	0.0330183	13	0	44.5398	-1.59E-05
2	0	0	0	0	0	3407.48	0.354337	0.353437	-4.61E-02	1	0.0329956	13	0	45.0391	-1.63E-05
2	0	0	1	0	0	3407.97	0.35184	0.350931	-4.60E-02	1	0.0329726	13	0	45.5384	-1.62E-05
2	0	0	1	0	0	3408.47	0.349344	0.348411	-4.64E-02	1	0.0329495	13	0	46.0377	-1.62E-05
2	0	0	1	0	0	3408.97	0.346847	0.345952	-4.77E-02	1	0.0329259	13	0	46.537	-1.65E-05
2	0	0	1	0	0	3409.47	0.34435	0.343467	-4.74E-02	1	0.0329023	13	0	47.0364	-1.63E-05
2	0	0	1	0	0	3409.97	0.341854	0.340927	-4.88E-02	1	0.0328783	13	0	47.5357	-1.66E-05
2	0	0	1	0	0	3410.47	0.339357	0.338455	-4.86E-02	1	0.032854	13	0	48.035	-1.65E-05
2	0	0	1	0	0	3410.97	0.33686	0.335983	-4.91E-02	1	0.0328296	13	0	48.5344	-1.65E-05
2	0	0	1	0	0	3411.47	0.334364	0.333482	-5.02E-02	1	0.0328049	13	0	49.0337	-1.67E-05
2	0	0	1	0	0	3411.97	0.331867	0.330984	-4.99E-02	1	0.0327799	13	0	49.533	-1.65E-05
2	0	0	0	0	0	3412.47	0.329371	0.32848	-5.12E-02	1	0.0327546	13	0	50.0323	-1.68E-05
2	0	0	1	0	0	3412.97	0.326874	0.325983	-5.13E-02	1	0.032729	13	0	50.5316	-1.67E-05
2	0	0	1	0	0	3413.47	0.324377	0.323477	-5.20E-02	1	0.0327033	13	0	51.031	-1.68E-05
2	0	0	0	0	0	3413.97	0.321881	0.320975	-5.30E-02	1	0.032677	13	0	51.5303	-1.70E-05
2	0	0	1	0	0	3414.47	0.319384	0.318453	-5.28E-02	1	0.0326507	13	0	52.0296	-1.68E-05
2	0	0	1	0	0	3414.97	0.316887	0.315983	-5.41E-02	1	0.032624	13	0	52.5289	-1.71E-05
2	0	0	0	0	0	3415.46	0.314391	0.313481	-5.42E-02	1	0.032597	13	0	53.0283	-1.70E-05
2	0	0	1	0	0	3415.96	0.311894	0.310981	-5.46E-02	1	0.0325698	13	0	53.5276	-1.70E-05
2	0	0	1	0	0	3416.46	0.309398	0.308516	-5.59E-02	1	0.0325421	13	0	54.0269	-1.72E-05
2	0	0	1	0	0	3416.96	0.306901	0.305977	-5.58E-02	1	0.0325142	13	0	54.5262	-1.71E-05
2	0	0	1	0	0	3417.46	0.304404	0.303476	-5.75E-02	1	0.0324859	13	0	55.0256	-1.74E-05
2	0	0	0	0	0	3417.96	0.301908	0.300981	-5.73E-02	1	0.0324573	13	0	55.5249	-1.72E-05
2	0	0	1	0	0	3418.46	0.299411	0.298556	-5.82E-02	1	0.0324285	13	0	56.0242	-1.74E-05
2	0	0	1	0	0	3418.96	0.296914	0.296023	-5.91E-02	1	0.0323993	13	0	56.5235	-1.75E-05
2	0	0	1	0	0	3419.46	0.294418	0.293526	-5.90E-02	1	0.0323699	13	0	57.0228	-1.73E-05
2	0	0	1	0	0	3419.96	0.291921	0.290985	-6.08E-02	1	0.0323399	13	0	57.5222	-1.77E-05
2	0	0	1	0	0	3420.46	0.289425	0.288538	-6.04E-02	1	0.0323097	13	0	58.0215	-1.74E-05
2	0	0	1	0	0	3420.96	0.286928	0.286035	-6.16E-02	1	0.0322792	13	0	58.5208	-1.76E-05
2	0	0	1	0	0	3421.46	0.284431	0.283522	-6.23E-02	1	0.0322483	13	0	59.0202	-1.77E-05
2	0	0	1	0	0	3421.96	0.281935	0.281042	-6.24E-02	1	0.0322172	13	0	59.5195	-1.75E-05
2	0	0	1	0	0	3422.46	0.279438	0.278509	-6.41E-02	1	0.0321856	13	0	60.0188	-1.79E-05
2	0	0	0	0	0	3422.95	0.276942	0.27606	-6.37E-02	1	0.0321538	13	0	60.5181	-1.76E-05
2	0	0	1	0	0	3423.45	0.274445	0.273528	-6.52E-02	1	0.0321216	13	0	61.0174	-1.78E-05
2	0	0	1	0	0	3423.95	0.271948	0.271039	-6.56E-02	1	0.0320889	13	0	61.5168	-1.78E-05
2	0	0	0	0	0	3424.45	0.269452	0.268521	-6.60E-02	1	0.0320561	13	0	62.0161	-1.77E-05
2	0	0	1	0	0	3424.95	0.266955	0.266071	-6.76E-02	1	0.0320227	13	0	62.5154	-1.80E-05
2	0	0	1	0	0	3425.45	0.264458	0.263528	-6.73E-02	1	0.031989	13	0	63.0148	-1.77E-05
2	0	0	1	0	0	3425.95	0.261962	0.261078	-6.89E-02	1	0.0319551	13	0	63.5141	-1.80E-05
2	0	0	1	0	0	3426.45	0.259465	0.258553	-6.91E-02	1	0.0319207	13	0	64.0134	-1.79E-05
2	0	0	0	0	0	3426.95	0.256969	0.256084	-6.97E-02	1	0.0318861	13	0	64.5127	-1.79E-05
2	0	0	1	0	0	3427.45	0.254472	0.253628	-7.10E-02	1	0.0318509	13	0	65.012	-1.80E-05
2	0	0	1	0	0	3427.95	0.251975	0.25106	-7.10E-02	1	0.0318154	13	0	65.5114	-1.78E-05
2	0	0	0	0	0	3428.45	0.249479	0.248577	-7.24E-02	1	0.0317796	13	0	66.0107	-1.80E-05
2	0	0	1	0	0	3428.95	0.246982	0.246108	-7.29E-02	1	0.0317434	13	0	66.51	-1.79E-05
2	0	0	1	0	0	3429.45	0.244485	0.243573	-7.34E-02	1	0.0317069	13	0	67.0094	-1.79E-05
2	0	0	0	0	0	3429.94	0.241989	0.241064	-7.51E-02	1	0.0316698	13	0	67.5087	-1.81E-05
2	0	0	1	0	0	3430.44	0.239492	0.238577	-7.50E-02	1	0.0316324	13	0	68.008	-1.79E-05
2	0	0	0	0	0	3430.94	0.236996	0.236098	-7.62E-02	1	0.0315947	13	0	68.5073	-1.80E-05
2	0	0	1	0	0	3431.44	0.234499	0.233562	-7.68E-02	1	0.0315565	13	0	69.0066	-1.79E-05
2	0	0	1	0	0	3431.94	0.232002	0.231086	-7.71E-02	1	0.0315181	13	0	69.506	-1.78E-05
2	0	0	0	0	0	3432.44	0.229506	0.228598	-7.89E-02	1	0.0314791	13	0	70.0053	-1.80E-05
2	0	0	1	0	0	3432.94	0.227009	0.226095	-7.87E-02	1	0.0314398	13	0	70.5046	-1.78E-05
2	0	0	1	0	0	3433.44	0.224512	0.223572	-8.03E-02	1	0.0314001	13	0	71.004	-1.80E-05
2	0	0	0	0	0	3433.94	0.222016	0.221123	-8.08E-02	1	0.0313599	13	0	71.5033	-1.79E-05
2	0	0	1	0	0	3434.44	0.219519	0.21862	-8.13E-02	1	0.0313195	13	0	72.0026	-1.78E-05
2	0	0	1	0	0	3434.94	0.217023	0.216168	-8.31E-02	1	0.0312784	13	0	72.5019	-1.80E-05
2	0	0	1	0	0	3435.44	0.214526	0.213609	-8.29E-02	1	0.0312369	13	0	73.0012	-1.77E-05
2	0	0	1	0	0	3435.94	0.212029	0.211123	-8.48E-02	1	0.031195	13	0	73.5006	-1.79E-05
2	0	0	1	0	0	3436.44	0.209533	0.208635	-8.48E-02	1	0.0311527	13	0	73.9999	-1.77E-05
2	0	0	1	0	0	3436.94	0.207036	0.206096	-8.61E-02	1	0.03111	13	0	74.4992	-1.77E-05
2	0	0	1	0	0	3437.43	0.204539	0.203649	-8.77E-02	1	0.0310666	13	0	74.9986	-1.79E-05
2	0	0	1	0	0	3437.93	0.202043	0.201089	-8.77E-02	1	0.0310229	13	0	75.4979	-1.76E-05
2	0	0	1	0	0	3438.43	0.199546	0.19863	-8.97E-02	1	0.0309786	13	0	75.9972	-1.78E-05
2	0	0	0	0	0	3438.93	0.19705	0.196124	-9.00E-02	1	0.0309338	13	0	76.4965	-1.76E-05
2	0	0	1	0	0	3439.43	0.194553	0.193638	-9.10E-02	1	0.0308886	13	0	76.9958	-1.76E-05
2	0	0	1	0	0	3439.93	0.192056	0.191168	-9.27E-02	1	0.0308427	13	0	77.4952	-1.77E-05
2	0	0	0	0	0	3440.43	0.18956	0.188637	-9.33E-02	1	0.0307962	13	0	77.9945	-1.76E-05
2	0	0	1	0	0	3440.93	0.187063	0.18613	-9.54E-02	1	0.0307491	13	0	78.4938	-1.78E-05
2	0	0	1	0	0	3441.43	0.184566	0.183679	-9.65E-02	1	0.0307012	13	0	78.9932	-1.77E-05
2	0	0	0	0	0	3441.93	0.18207	0.181149	-9.83E-02	1	0.0306526	13	0	79.4925	-1.78E-05
2	0	0	1	0	0	3442.43	0.179573	0.178654	-1.01E-01	1	0.030603	13	0	79.9918	-1.80E-05
2	0	0	1	0	0	3442.93	0.177077	0.176209	-1.02E-01	1	0.0305526	13	0	80.4911	-1.79E-05
2	0	0	1	0	0	3443.43	0.17458	0.173657	-1.04E-01	1	0.0305011	13	0	80.9904	-1.81E-05
2	0	0	0	0	0	3443.96	0.171934	0.171021	-1.06E-01	1	0.0304453	12	0	81.5197	-1.81E-05
2	0	0	1	0	0	3444.46	0.169437	0.16856	-1.10E-01	1	0.0303915	12	0	82.019	-1.85E-05
2	0	0	1	0	0	3444.95	0.16694	0.166015	-1.12E-01	1	0.0303363	12	0	82.5184	-1.85E-05
2	0	0	0	0	0	3445.45	0.164444	0.163518	-1.15E-01	1	0.0302798	12	0	83.0177	-1.88E-05
2	0	0	1	0	0	3445.95	0.161947	0.161013	-1.18E-01	1	0.0302217	12	0	83.517	-1.89E-05
2	0	0	1	0	0	3446.45	0.15945	0.158515	-1.20E-01	1	0.0301625	12	0	84.0164	-1.90E-05
2	0	0	0	0	0	3446.95	0.156954	0.156021	-1.23E-01	1	0.0301019	12	0	84.5157	-1.92E-05
2	0	0	1	0	0	3447.45	0.154457	0.153536	-1.25E-01	1	0.03004	12	0	85.015	-1.92E-05
2	0	0	0	0	0	3447.95	0.151961	0.151056	-1.27E-01	1	0.0299771	12	0	85.5143	-1.91E-05
2	0	0	1	0	0	3448.45	0.149464	0.148564	-1.30E-01	1	0.0299129	12	0	86.0136	-1.93E-05
2	0	0	1	0	0	3448.95	0.146967	0.14604	-1.31E-01	1	0.0298478	12	0	86.513	-1.91E-05
2	0	0	0	0	0	3449.45	0.144471	0.14356	-1.33E-01	1	0.0297819	12	0	87.0123	-1.91E-05
2	0	0	1	0	0	3449.95	0.141974	0.141069	-1.35E-01	1	0.0297151	12	0	87.5116	-1.90E-05
2	0	0	1	0	0	3450.45	0.139477	0.138568	-1.35E-01	1	0.0296478	12	0	88.011	-1.87E-05
2	0	0	0	0	0	3450.95	0.136981	0.13601	-1.37E-01	1	0.0295799	12	0	88.5103	-1.86E-05
2	0	0	1	0	0	3451.45	0.134484	0.133584	-1.36E-01	1	0.0295117	12	0	89.0096	-1.82E-05
2	0	0	1	0	0	3451.95	0.131988	0.131103	-1.37E-01	1	0.0294435	12	0	89.5089	-1.79E-05
2	0	0	1	0	0	3452.44	0.129491	0.12854	-1.37E-01	1	0.0293751	12	0	90.0082	-1.76E-05
2	0	0	1	0	0	3452.94	0.126994	0.126094	-1.36E-01	1	0.0293068	12	0	90.5076	-1.72E-05
2	0	0	1	0	0	3453.44	0.124498	0.123556	-1.37E-01	1	0.0292385	12	0	91.0069	-1.70E-05
2	0	0	1	0	0	3453.94	0.122001	0.121069	-1.37E-01	1	0.02917	12	0	91.5062	-1.66E-05
2	0	0	1	0	0	3454.44	0.119504	0.118588	-1.37E-01	1	0.0291017	12	0	92.0056	-1.62E-05
2	0	0	1	0	0	3454.94	0.117008	0.116074	-1.37E-01	1	0.0290333	12	0	92.5049	-1.59E-05
2	0	0	1	0	0	3455.44	0.114511	0.113544	-1.37E-01	1	0.0289648	12	0	93.0042	-1.55E-05
2	0	0	0	0	0	3455.94	0.112015	0.111091	-1.37E-01	1	0.0288962	12	0	93.5035	-1.53E-05
2	0	0	1	0	0	3456.44	0.109518	0.108636	-1.37E-01	1	0.0288277	12	0	94.0028	-1.49E-05
2	0	0	1	0	0	3456.94	0.107021	0.106072	-1.37E-01	1	0.0287594	12	0	94.5022	-1.45E-05
2	0	0	0	0	0	3457.44	0.104525	0.103612	-1.37E-01	1	0.028691	12	0	95.0015	-1.42E-05
2	0	0	1	0	0	3457.94	0.102028	0.101106	-1.37E-01	1	0.0286225	12	0	95.5008	-1.38E-05
2	0	0	1	0	0	3458.44	0.0995311	0.0986398	-1.37E-01	1	0.0285541	12	0	96.0002	-1.35E-05
2	0	0	0	0	0	3458.94	0.097035	0.0960778	-1.37E-01	1	0.0284856	12	0	96.4995	-1.32E-05
2	0	0	1	0	0	3459.44	0.0945382	0.0936095	-1.36E-01	1	0.0284172	12	0	96.9988	-1.28E-05
2	0	0	1	0	0	3459.93	0.0920417	0.0911153	-1.38E-01	1	0.0283487	12	0	97.4981	-1.25E-05
2	0	0	1	0	0	3460.43	0.0895454	0.0885978	-1.37E-01	1	0.0282802	12	0	97.9974	-1.21E-05
2	0	0	1	0	0	3460.93	0.0870481	0.086128	-1.38E-01	1	0.0282116	12	0	98.4968	-1.19E-05
2	0	0	0	0	0	3461.43	0.0845518	0.0836062	-1.38E-01	1	0.0281429	12	0	98.9961	-1.15E-05
2	0	0	1	0	0	3461.93	0.0820553	0.0810991	-1.37E-01	1	0.0280744	12	0	99.4954	-1.11E-05
2	0	0	1	0	0	3462.43	0.0795586	0.078614	-1.38E-01	1	0.0280058	12	0	99.9947	-1.08E-05
2	0	0	1	0	0	3462.93	0.0770624	0.0761325	-1.36E-01	1	0.0279374	12	0	100.494	-1.04E-05
2	0	0	1	0	0	3463.43	0.0745652	0.0736121	-1.37E-01	1	0.0278693	12	0	100.993	-1.01E-05
2	0	0	1	0	0	3463.93	0.0720687	0.0711049	-1.36E-01	1	0.0278012	12	0	101.493	-9.68E-06
2	0	0	1	0	0	3464.43	0.0695724	0.0686066	-1.36E-01	1	0.0277333	12	0	101.992	-9.30E-06
2	0	0	1	0	0	3464.93	0.0670752	0.0661345	-1.36E-01	1	0.0276655	12	0	102.491	-9.01E-06
2	0	0	1	0	0	3465.43	0.0645789	0.0636107	-1.35E-01	1	0.0275979	12	0	102.991	-8.57E-06
2	0	0	1	0	0	3465.93	0.0620824	0.0611821	-1.35E-01	1	0.0275305	12	0	103.49	-8.27E-06
2	0	0	0	0	0	3466.43	0.0595856	0.0586567	-1.34E-01	1	0.0274632	12	0	103.989	-7.88E-06
2	0	0	1	0	0	3466.92	0.0570894	0.0561455	-1.34E-01	1	0.0273963	12	0	104.489	-7.50E-06
2	0	0	1	0	0	3467.42	0.0545923	0.0536451	-1.34E-01	1	0.0273296	12	0	104.988	-7.18E-06
2	0	0	0	0	0	3467.92	0.0520958	0.0511646	-1.33E-01	1	0.027263	12	0	105.487	-6.79E-06
2	0	0	1	0	0	3468.42	0.0495994	0.0486776	-1.34E-01	1	0.0271965	12	0	105.987	-6.50E-06
2	0	0	1	0	0	3468.92	0.0471022	0.0461858	-1.33E-01	1	0.0271298	12	0	106.486	-6.16E-06
2	0	0	0	0	0	3469.42	0.0446059	0.0436629	-1.33E-01	1	0.0270634	12	0	106.985	-5.81E-06
2	0	0	1	0	0	3469.92	0.0421093	0.0411683	-1.33E-01	1	0.026997	12	0	107.485	-5.49E-06
2	0	0	1	0	0	3470.42	0.0396127	0.0387089	-1.33E-01	1	0.0269306	12	0	107.984	-5.13E-06
2	0	0	1	0	0	3470.92	0.0371165	0.0361884	-1.33E-01	1	0.0268642	12	0	108.483	-4.82E-06
2	0	0	1	0	0	3471.42	0.0346192	0.0336538	-1.33E-01	1	0.0267976	12	0	108.983	-4.48E-06
2	0	0	1	0	0	3471.92	0.0321228	0.0311669	-1.32E-01	1	0.0267313	12	0	109.482	-4.13E-06
2	0	0	1	0	0	3472.42	0.0296264	0.0286883	-1.33E-01	1	0.0266649	12	0	109.981	-3.83E-06
2	0	0	1	0	0	3472.92	0.0271291	0.0261912	-1.33E-01	1	0.0265983	12	0	110.481	-3.49E-06
2	0	0	1	0	0	3473.42	0.0246329	0.0236696	-1.34E-01	1	0.0265316	12	0	110.98	-3.17E-06
2	0	0	1	0	0	3473.92	0.0221363	0.0212004	-1.35E-01	1	0.0264645	12	0	111.479	-2.86E-06
2	0	0	0	0	0	3474.41	0.0196397	0.0186837	-1.35E-01	1	0.0263971	12	0	111.978	-2.52E-06
2	0	0	1	0	0	3474.91	0.0171435	0.0162098	-1.37E-01	1	0.0263293	12	0	112.478	-2.22E-06
2	0	0	1	0	0	3475.41	0.0146462	0.0137124	-1.37E-01	1	0.026261	12	0	112.977	-1.88E-06
2	0	0	0	0	0	3475.91	0.0121498	0.0112362	-1.38E-01	1	0.0261923	12	0	113.476	-1.55E-06
2	0	0	1	0	0	3476.41	0.00965341	0.00869941	-1.39E-01	1	0.0261231	12	0	113.976	-1.21E-06
2	0	0	1	0	0	3476.91	0.00715612	0.00621059	-1.39E-01	1	0.0260535	12	0	114.475	-8.65E-07
2	0	0	0	0	0	3477.41	0.00465995	0.0037165	-1.41E-01	1	0.0259835	12	0	114.974	-5.25E-07
2	0	0	1	0	0	3477.91	0.00216332	0.00120489	-1.42E-01	1	0.0259129	12	0	115.474	-1.71E-07
2	0	0	0	0	0	3478.34	8.73685e-06	-9.57E-04	-1.42E-01	1	0.0258519	12	0	115.901	1.36365e-07