File: ACS_Catal_2026/Figures_Na_K/main_figures/data/EC/20240517_2-140_kinetic_CA/20240517_2-140_kinetic_CA_K-1_02_PEIS_C02.mpt
EC-Lab ASCII FILE
Nb header lines : 63

Potentio Electrochemical Impedance Spectroscopy

Run on channel : 2 (SN 68855)
User :
CE vs. WE compliance from -10 V to 10 V
Electrode connection : standard
Potential control : Ewe
Ewe ctrl range : min = -1.00 V, max = 1.00 V
Safety Limits :
	Do not start on E overload
Acquisition started on : 05/17/2024 15:55:37.422
Loaded Setting File :  C:\Users\HZ-7000\Documents\EC-Lab\Data\Yatsuzuka\20240517_2-140_kinetic_CA\20240517_2-140_kinetic_CA_K-1_r.mps
Saved on :
	File : 20240517_2-140_kinetic_CA_K-1_02_PEIS_C02.mpr
	Directory : C:\Users\HZ-7000\Documents\EC-Lab\Data\Yatsuzuka\20240517_2-140_kinetic_CA\
	Host : 192.109.209.100
Device : SP-150e (SN .003466)
Address : 192.109.209.128
EC-Lab for windows v11.50 (software)
Internet server v11.50 (firmware)
Command interpretor v11.50 (firmware)
Electrode material :
Initial state :
Electrolyte :
Comments :
Electrode surface area : 0.001 cm2
Characteristic mass : 0.001 g
Equivalent Weight : 0.000 g/eq.
Density : 0.000 g/cm3
Volume (V) : 0.001 cm3
Cycle Definition : Charge/Discharge alternance
Mode                Single sine
E (V)               0.4500
vs.                 Ref
tE (h:m:s)          0:00:0.0000
record              0
dI                  0.000
unit dI             mA
dt (s)              0.000
fi                  500.000
unit fi             kHz
ff                  1.000
unit ff             Hz
Nd                  6
Points              per decade
spacing             Logarithmic
Va (mV)             10.0
pw                  0.10
Na                  2
corr                0
E range min (V)     -1.000
E range max (V)     1.000
I Range             Auto
Bandwidth           5
nc cycles           0
goto Ns'            0
nr cycles           0
inc. cycle          0

freq/Hz	Re(Z)/Ohm	-Im(Z)/Ohm	|Z|/Ohm	Phase(Z)/deg	time/s	<Ewe>/V	<I>/mA	Cs/uF	Cp/uF	cycle number	I Range	|Ewe|/V	|I|/A	Ns	(Q-Qo)/mA.h	Re(Y)/Ohm-1	Im(Y)/Ohm-1	|Y|/Ohm-1	Phase(Y)/deg	Re(C)/nF	Im(C)/nF	|C|/nF	Phase(C)/deg	Re(M)	Im(M)	|M|	Phase(M)/deg	Re(Permittivity)	Im(Permittivity)	|Permittivity|	Phase(Permittivity)/deg	Re(Resistivity)/Ohm.cm	Im(Resistivity)/Ohm.cm	|Resistivity|/Ohm.cm	Phase(Resistivity)/deg	Re(Conductivity)/mS/cm	Im(Conductivity)/mS/cm	|Conductivity|/mS/cm	Phase(Conductivity)/deg	Tan(Delta)	Loss Angle(Delta)/deg	dq/mA.h
500019	40.6558	0.982926	40.6677	-1.38496	200.48	0.449421	0.308423	0.323827	0.000189172	1	11	0.00887814	0.00021831	0	0.000133621	0.0245824	0.000594323	0.0245896	1.38496	0.189172	7.82452	7.82681	-88.615	0.0000000E+000	0.0000000E+000	0.0000000E+000	88.615	0.0000000E+000	0.0000000E+000	0.0000000E+000	-88.615	0.0000000E+000	0.0000000E+000	0.0000000E+000	-1.38496	0.0000000E+000	0.0000000E+000	0.0000000E+000	1.38496	41.362	88.615	0.000133621
339899	31.4627	-1.9804	31.525	3.6017	201.341	0.449115	0.0564581	-0.236437	-0.00093307	1	10	0.00992203	0.000314736	0	0.000154021	0.0316583	-0.00199271	0.0317209	-3.6017	-0.93307	14.8237	14.853	-93.6017	0.0000000E+000	0.0000000E+000	0.0000000E+000	93.6017	0.0000000E+000	0.0000000E+000	0.0000000E+000	-93.6017	0.0000000E+000	0.0000000E+000	0.0000000E+000	3.6017	0.0000000E+000	0.0000000E+000	0.0000000E+000	-3.6017	15.887	86.3983	2.04002e-05
231063	27.2488	-1.51276	27.2908	3.1776	201.763	0.449081	0.0475115	-0.455324	-0.00139904	1	10	0.0108853	0.000398865	0	0.000159932	0.0365861	-0.00203113	0.0366424	-3.1776	-1.39904	25.2003	25.2391	-93.1776	0.0000000E+000	0.0000000E+000	0.0000000E+000	93.1776	0.0000000E+000	0.0000000E+000	0.0000000E+000	-93.1776	0.0000000E+000	0.0000000E+000	0.0000000E+000	3.1776	0.0000000E+000	0.0000000E+000	0.0000000E+000	-3.1776	18.0127	86.8224	5.91108e-06
157076	25.7743	-0.825104	25.7875	1.83357	202.321	0.449076	0.043794	-1.22801	-0.00125719	1	10	0.010106	0.000391895	0	0.000165233	0.0387587	-0.00124077	0.0387785	-1.83357	-1.25719	39.2717	39.2918	-91.8336	0.0000000E+000	0.0000000E+000	0.0000000E+000	91.8336	0.0000000E+000	0.0000000E+000	0.0000000E+000	-91.8336	0.0000000E+000	0.0000000E+000	0.0000000E+000	1.83357	0.0000000E+000	0.0000000E+000	0.0000000E+000	-1.83357	31.2376	88.1664	5.30029e-06
106786	25.2672	-0.388191	25.2702	0.880191	202.744	0.449078	0.0413268	-3.83936	-0.000906011	1	10	0.0106394	0.000421026	0	0.000170269	0.0395677	-0.000607896	0.0395723	-0.880191	-0.906008	58.9719	58.9789	-90.8802	0.0000000E+000	0.0000000E+000	0.0000000E+000	90.8802	0.0000000E+000	0.0000000E+000	0.0000000E+000	-90.8802	0.0000000E+000	0.0000000E+000	0.0000000E+000	0.880191	0.0000000E+000	0.0000000E+000	0.0000000E+000	-0.880191	65.0896	89.1198	5.03595e-06
72595	25.0899	-0.23243	25.0909	0.530767	203.166	0.44908	0.0400802	-9.43238	-0.000809416	1	10	0.0105033	0.000418608	0	0.000174296	0.0398533	-0.000369197	0.039855	-0.530767	-0.809419	87.3731	87.3768	-90.5308	0.0000000E+000	0.0000000E+000	0.0000000E+000	90.5308	0.0000000E+000	0.0000000E+000	0.0000000E+000	-90.5308	0.0000000E+000	0.0000000E+000	0.0000000E+000	0.530767	0.0000000E+000	0.0000000E+000	0.0000000E+000	-0.530767	107.946	89.4692	4.02782e-06
49352.4	24.9836	-0.114335	24.9838	0.262208	203.588	0.449082	0.0390519	-28.2054	-0.00059071	1	10	0.010396	0.000416109	0	0.000178513	0.0400255	-0.000183173	0.0400259	-0.262208	-0.590709	129.077	129.078	-90.2622	0.0000000E+000	0.0000000E+000	0.0000000E+000	90.2622	0.0000000E+000	0.0000000E+000	0.0000000E+000	-90.2622	0.0000000E+000	0.0000000E+000	0.0000000E+000	0.262208	0.0000000E+000	0.0000000E+000	0.0000000E+000	-0.262208	218.512	89.7378	4.2164e-06
33551.1	24.9176	-0.10999	24.9178	0.25291	204.01	0.449088	0.0381599	-43.1283	-0.000840323	1	10	0.0103049	0.000413554	0	0.000182151	0.0401316	-0.000177146	0.040132	-0.25291	-0.840312	190.371	190.372	-90.2529	0.0000000E+000	0.0000000E+000	0.0000000E+000	90.2529	0.0000000E+000	0.0000000E+000	0.0000000E+000	-90.2529	0.0000000E+000	0.0000000E+000	0.0000000E+000	0.25291	0.0000000E+000	0.0000000E+000	0.0000000E+000	-0.25291	226.545	89.7471	3.63828e-06
22806.6	24.8839	-0.0632992	24.884	0.145747	204.432	0.449079	0.0370065	-110.246	-0.000713375	1	10	0.0102508	0.000411945	0	0.000186332	0.0401863	-0.000102225	0.0401864	-0.145747	-0.713359	280.439	280.44	-90.1457	0.0000000E+000	0.0000000E+000	0.0000000E+000	90.1457	0.0000000E+000	0.0000000E+000	0.0000000E+000	-90.1457	0.0000000E+000	0.0000000E+000	0.0000000E+000	0.145747	0.0000000E+000	0.0000000E+000	0.0000000E+000	-0.145747	393.116	89.8543	4.18128e-06
15504.4	24.9064	-0.0179429	24.9064	0.0412765	204.854	0.449088	0.0362153	-572.102	-0.000296917	1	10	0.0101606	0.000407952	0	0.000190447	0.0401503	-2.89247e-05	0.0401503	-0.0412765	-0.296906	412.149	412.149	-90.0413	0.0000000E+000	0.0000000E+000	0.0000000E+000	90.0413	0.0000000E+000	0.0000000E+000	0.0000000E+000	-90.0413	0.0000000E+000	0.0000000E+000	0.0000000E+000	0.0412765	0.0000000E+000	0.0000000E+000	0.0000000E+000	-0.0412765	1388.1	89.9587	4.11445e-06
10540.4	24.8765	0.0120911	24.8765	-0.0278484	205.14	0.449083	0.0362265	1248.81	0.00029502	1	10	0.010696	0.000429964	0	0.00019334	0.0401986	1.95384e-05	0.0401986	0.0278484	0.295009	606.98	606.98	-89.9722	0.0000000E+000	0.0000000E+000	0.0000000E+000	89.9722	0.0000000E+000	0.0000000E+000	0.0000000E+000	-89.9722	0.0000000E+000	0.0000000E+000	0.0000000E+000	-0.0278484	0.0000000E+000	0.0000000E+000	0.0000000E+000	0.0278484	2057.42	89.9722	2.89363e-06
7163.78	24.8961	-0.0402544	24.8961	0.0926413	205.496	0.449059	0.0341624	-551.905	-0.00144287	1	10	0.0109748	0.000440822	0	0.000196272	0.0401668	-6.49456e-05	0.0401669	-0.0926413	-1.44291	892.371	892.372	-90.0926	0.0000000E+000	0.0000000E+000	0.0000000E+000	90.0926	0.0000000E+000	0.0000000E+000	0.0000000E+000	-90.0926	0.0000000E+000	0.0000000E+000	0.0000000E+000	0.0926413	0.0000000E+000	0.0000000E+000	0.0000000E+000	-0.0926413	618.469	89.9074	2.93196e-06
4871.56	24.8935	0.0101175	24.8935	-0.0232867	206.186	0.449107	0.0353773	3229.09	0.000533397	1	10	0.0100278	0.000402829	0	0.000203078	0.040171	1.63267e-05	0.0401711	0.0232867	0.533356	1312.4	1312.4	-89.9767	0.0000000E+000	0.0000000E+000	0.0000000E+000	89.9767	0.0000000E+000	0.0000000E+000	0.0000000E+000	-89.9767	0.0000000E+000	0.0000000E+000	0.0000000E+000	-0.0232867	0.0000000E+000	0.0000000E+000	0.0000000E+000	0.0232867	2460.45	89.9767	6.80514e-06
3311.06	24.8985	0.00911347	24.8985	-0.0209717	206.651	0.449111	0.0350209	5274.36	0.000706627	1	10	0.0100835	0.000404985	0	0.00020781	0.0401631	1.47007e-05	0.0401631	0.0209717	0.706679	1930.54	1930.54	-89.979	0.0000000E+000	0.0000000E+000	0.0000000E+000	89.979	0.0000000E+000	0.0000000E+000	0.0000000E+000	-89.979	0.0000000E+000	0.0000000E+000	0.0000000E+000	-0.0209717	0.0000000E+000	0.0000000E+000	0.0000000E+000	0.0209717	2732.06	89.979	4.73287e-06
2250.72	24.8684	0.0128717	24.8684	-0.0296558	207.116	0.449114	0.0343789	5493.68	0.00147176	1	10	0.0101201	0.000406948	0	0.000211831	0.0402116	2.08132e-05	0.0402117	0.0296558	1.47174	2843.48	2843.48	-89.9703	0.0000000E+000	0.0000000E+000	0.0000000E+000	89.9703	0.0000000E+000	0.0000000E+000	0.0000000E+000	-89.9703	0.0000000E+000	0.0000000E+000	0.0000000E+000	-0.0296558	0.0000000E+000	0.0000000E+000	0.0000000E+000	0.0296558	1932.02	89.9703	4.0202e-06
1530.49	24.8947	0.00588046	24.8947	-0.013534	207.581	0.449114	0.0342203	17683.9	0.000986704	1	10	0.0101294	0.000406889	0	0.000215803	0.0401692	9.48849e-06	0.0401692	0.013534	0.986742	4177.17	4177.17	-89.9865	0.0000000E+000	0.0000000E+000	0.0000000E+000	89.9865	0.0000000E+000	0.0000000E+000	0.0000000E+000	-89.9865	0.0000000E+000	0.0000000E+000	0.0000000E+000	-0.013534	0.0000000E+000	0.0000000E+000	0.0000000E+000	0.013534	4233.46	89.9865	3.97212e-06
1040.33	24.89	0.0288776	24.8901	-0.0664748	208.046	0.449114	0.0337612	5297.7	0.0071311	1	10	0.010134	0.00040715	0	0.0002202	0.0401767	4.66131e-05	0.0401767	0.0664748	7.13111	6146.41	6146.41	-89.9335	0.0000000E+000	0.0000000E+000	0.0000000E+000	89.9335	0.0000000E+000	0.0000000E+000	0.0000000E+000	-89.9335	0.0000000E+000	0.0000000E+000	0.0000000E+000	-0.0664748	0.0000000E+000	0.0000000E+000	0.0000000E+000	0.0664748	861.917	89.9335	4.3969e-06
707.036	24.8863	0.0510588	24.8863	-0.117553	208.511	0.449106	0.0334234	4408.67	0.0185578	1	10	0.0101439	0.00040761	0	0.000224229	0.0401826	8.2442e-05	0.0401827	0.117553	18.558	9045.17	9045.18	-89.8824	0.0000000E+000	0.0000000E+000	0.0000000E+000	89.8824	0.0000000E+000	0.0000000E+000	0.0000000E+000	-89.8824	0.0000000E+000	0.0000000E+000	0.0000000E+000	-0.117553	0.0000000E+000	0.0000000E+000	0.0000000E+000	0.117553	487.404	89.8824	4.02903e-06
480.769	24.8739	0.0968609	24.8741	-0.223113	208.976	0.449113	0.0326937	3417.71	0.0518249	1	10	0.0101445	0.000407835	0	0.000228141	0.0402022	0.000156551	0.0402025	0.223113	51.825	13308.6	13308.7	-89.7769	0.0000000E+000	0.0000000E+000	0.0000000E+000	89.7769	0.0000000E+000	0.0000000E+000	0.0000000E+000	-89.7769	0.0000000E+000	0.0000000E+000	0.0000000E+000	-0.223113	0.0000000E+000	0.0000000E+000	0.0000000E+000	0.223113	256.8	89.7769	3.91191e-06
326.778	24.8824	0.138625	24.8828	-0.319204	209.439	0.449111	0.032076	3513.39	0.109047	1	10	0.0101491	0.000407875	0	0.000231981	0.0401878	0.000223895	0.0401885	0.319204	109.047	19573.2	19573.5	-89.6808	0.0000000E+000	0.0000000E+000	0.0000000E+000	89.6808	0.0000000E+000	0.0000000E+000	0.0000000E+000	-89.6808	0.0000000E+000	0.0000000E+000	0.0000000E+000	-0.319204	0.0000000E+000	0.0000000E+000	0.0000000E+000	0.319204	179.494	89.6808	3.84015e-06
222.061	24.8663	0.195428	24.8671	-0.450286	209.9	0.44911	0.0330576	3667.43	0.226509	1	10	0.0101414	0.000407822	0	0.000236465	0.0402125	0.000316036	0.0402138	0.450286	226.509	28821	28821.9	-89.5497	0.0000000E+000	0.0000000E+000	0.0000000E+000	89.5497	0.0000000E+000	0.0000000E+000	0.0000000E+000	-89.5497	0.0000000E+000	0.0000000E+000	0.0000000E+000	-0.450286	0.0000000E+000	0.0000000E+000	0.0000000E+000	0.450286	127.24	89.5497	4.48426e-06
151.015	24.9551	0.245329	24.9563	-0.563245	210.616	0.449095	0.00907964	4295.88	0.415133	1	11	0.0101443	0.00040648	0	0.000239187	0.040068	0.000393901	0.04007	0.563245	415.135	42227.8	42229.9	-89.4368	0.0000000E+000	0.0000000E+000	0.0000000E+000	89.4368	0.0000000E+000	0.0000000E+000	0.0000000E+000	-89.4368	0.0000000E+000	0.0000000E+000	0.0000000E+000	-0.563245	0.0000000E+000	0.0000000E+000	0.0000000E+000	0.563245	101.721	89.4368	2.72201e-06
102.667	24.9661	0.346216	24.9685	-0.794496	211.091	0.449093	0.010023	4477.55	0.860897	1	11	0.0101449	0.000406308	0	0.000240362	0.0400467	0.000555346	0.0400505	0.794496	860.895	62080.4	62086.3	-89.2055	0.0000000E+000	0.0000000E+000	0.0000000E+000	89.2055	0.0000000E+000	0.0000000E+000	0.0000000E+000	-89.2055	0.0000000E+000	0.0000000E+000	0.0000000E+000	-0.794496	0.0000000E+000	0.0000000E+000	0.0000000E+000	0.794496	72.1112	89.2055	1.17499e-06
69.7545	24.9873	0.492786	24.9922	-1.12981	211.558	0.449091	0.00906377	4630.09	1.80011	1	11	0.0101469	0.000406002	0	0.000241657	0.0400048	0.000788953	0.0400126	1.12981	1800.12	91276.7	91294.5	-88.8702	0.0000000E+000	0.0000000E+000	0.0000000E+000	88.8702	0.0000000E+000	0.0000000E+000	0.0000000E+000	-88.8702	0.0000000E+000	0.0000000E+000	0.0000000E+000	-1.12981	0.0000000E+000	0.0000000E+000	0.0000000E+000	1.12981	50.7062	88.8702	1.29531e-06
47.4443	25.0158	0.678743	25.025	-1.5542	212.002	0.449086	0.00880493	4942.32	3.63575	1	11	0.0101454	0.000405412	0	0.000242703	0.0399454	0.00108382	0.0399601	1.5542	3635.74	133999	134049	-88.4458	0.0000000E+000	0.0000000E+000	0.0000000E+000	88.4458	0.0000000E+000	0.0000000E+000	0.0000000E+000	-88.4458	0.0000000E+000	0.0000000E+000	0.0000000E+000	-1.5542	0.0000000E+000	0.0000000E+000	0.0000000E+000	1.5542	36.856	88.4458	1.04519e-06
32.2387	25.0574	0.98483	25.0768	-2.25073	212.439	0.449085	0.00900499	5012.82	7.73144	1	11	0.01015	0.000404756	0	0.00024345	0.0398467	0.00156609	0.0398775	2.25073	7731.45	196714	196866	-87.7493	0.0000000E+000	0.0000000E+000	0.0000000E+000	87.7493	0.0000000E+000	0.0000000E+000	0.0000000E+000	-87.7493	0.0000000E+000	0.0000000E+000	0.0000000E+000	-2.25073	0.0000000E+000	0.0000000E+000	0.0000000E+000	2.25073	25.4434	87.7493	7.47296e-07
21.9144	25.1086	1.40896	25.1481	-3.21177	212.87	0.449078	0.00946613	5154.54	16.18	1	11	0.0101471	0.000403494	0	0.000244403	0.0397019	0.00222786	0.0397644	3.21177	16180	288338	288791	-86.7882	0.0000000E+000	0.0000000E+000	0.0000000E+000	86.7882	0.0000000E+000	0.0000000E+000	0.0000000E+000	-86.7882	0.0000000E+000	0.0000000E+000	0.0000000E+000	-3.21177	0.0000000E+000	0.0000000E+000	0.0000000E+000	3.21177	17.8206	86.7882	9.53448e-07
14.9093	25.2393	1.99474	25.318	-4.51886	213.337	0.449098	0.00810006	5351.5	33.219	1	11	0.0101509	0.000400934	0	0.000246133	0.0393748	0.0031119	0.0394975	4.51886	33219.1	420319	421630	-85.4811	0.0000000E+000	0.0000000E+000	0.0000000E+000	85.4811	0.0000000E+000	0.0000000E+000	0.0000000E+000	-85.4811	0.0000000E+000	0.0000000E+000	0.0000000E+000	-4.51886	0.0000000E+000	0.0000000E+000	0.0000000E+000	4.51886	12.653	85.4811	1.72981e-06
10.1329	25.3307	2.80333	25.4854	-6.31516	213.797	0.449101	0.00809241	5602.87	67.7915	1	11	0.0101526	0.000398369	0	0.000249394	0.0390001	0.00431609	0.0392382	6.31516	67791.5	612561	616301	-83.6848	0.0000000E+000	0.0000000E+000	0.0000000E+000	83.6848	0.0000000E+000	0.0000000E+000	0.0000000E+000	-83.6848	0.0000000E+000	0.0000000E+000	0.0000000E+000	-6.31516	0.0000000E+000	0.0000000E+000	0.0000000E+000	6.31516	9.03596	83.6848	3.2605e-06
6.88933	25.4575	4.20728	25.8028	-9.38426	214.15	0.449065	0.0110567	5490.88	145.986	1	11	0.0101503	0.000393378	0	0.000246226	0.0382368	0.00631927	0.0387555	9.38426	145986	883333	895315	-80.6157	0.0000000E+000	0.0000000E+000	0.0000000E+000	80.6157	0.0000000E+000	0.0000000E+000	0.0000000E+000	-80.6157	0.0000000E+000	0.0000000E+000	0.0000000E+000	-9.38426	0.0000000E+000	0.0000000E+000	0.0000000E+000	9.38426	6.05082	80.6157	-3.16776e-06
4.68375	25.6018	5.97152	26.289	-13.1293	214.647	0.449095	0.00634713	5690.38	293.604	1	11	0.0101495	0.000386074	0	0.000250486	0.0370444	0.00864044	0.0380387	13.1293	293604	1.25878e+06	1.29256e+06	-76.8707	0.0000000E+000	0.0000000E+000	0.0000000E+000	76.8707	0.0000000E+000	0.0000000E+000	0.0000000E+000	-76.8707	0.0000000E+000	0.0000000E+000	0.0000000E+000	-13.1293	0.0000000E+000	0.0000000E+000	0.0000000E+000	13.1293	4.28732	76.8707	4.25984e-06
3.18099	25.8857	8.28391	27.1789	-17.7456	215.349	0.449082	0.00968177	6039.81	561.087	1	11	0.010152	0.000373524	0	0.000255735	0.0350426	0.0112143	0.0367933	17.7456	561087	1.75329e+06	1.84089e+06	-72.2543	0.0000000E+000	0.0000000E+000	0.0000000E+000	72.2543	0.0000000E+000	0.0000000E+000	0.0000000E+000	-72.2543	0.0000000E+000	0.0000000E+000	0.0000000E+000	-17.7456	0.0000000E+000	0.0000000E+000	0.0000000E+000	17.7456	3.12482	72.2543	5.24899e-06
2.16533	26.0091	12.3699	28.8008	-25.4357	216.36	0.449103	0.00945209	5941.97	1096.11	1	11	0.0101544	0.000352575	0	0.000253028	0.0313557	0.0149127	0.0347213	25.4357	1.09611e+06	2.30469e+06	2.55207e+06	-64.5643	0.0000000E+000	0.0000000E+000	0.0000000E+000	64.5643	0.0000000E+000	0.0000000E+000	0.0000000E+000	-64.5643	0.0000000E+000	0.0000000E+000	0.0000000E+000	-25.4357	0.0000000E+000	0.0000000E+000	0.0000000E+000	25.4357	2.10261	64.5643	-2.70697e-06
1.46962	26.5875	17.374	31.7608	-33.1632	217.83	0.449105	0.00858752	6233.27	1865.22	1	11	0.0101565	0.00031978	0	0.000248655	0.0263569	0.0172233	0.0314853	33.1632	1.86522e+06	2.85436e+06	3.40976e+06	-56.8368	0.0000000E+000	0.0000000E+000	0.0000000E+000	56.8368	0.0000000E+000	0.0000000E+000	0.0000000E+000	-56.8368	0.0000000E+000	0.0000000E+000	0.0000000E+000	-33.1632	0.0000000E+000	0.0000000E+000	0.0000000E+000	33.1632	1.53031	56.8368	-4.37268e-06
1.00006	26.803	25.453	36.9629	-43.5201	221.019	0.449107	0.0065028	6252.5	2964.83	1	12	0.0101585	0.000274828	0	0.000256953	0.0196178	0.0186297	0.0270541	43.5201	2.96483e+06	3.12208e+06	4.30553e+06	-46.4799	0.0000000E+000	0.0000000E+000	0.0000000E+000	46.4799	0.0000000E+000	0.0000000E+000	0.0000000E+000	-46.4799	0.0000000E+000	0.0000000E+000	0.0000000E+000	-43.5201	0.0000000E+000	0.0000000E+000	0.0000000E+000	43.5201	1.05304	46.4799	8.29772e-06