File: ACS_Catal_2026/Figures_Na_K/main_figures/data/XPS_UPS/20240425_2-134_XPS_bfraft/before_electrolysis.csv
2
no area description
C1s
1,1
file#,17
298.00,1336
297.00,1322.5
296.00,1331.83
295.00,1597.33
294.00,1796.33
293.00,1349.67
292.00,2259.83
291.00,1826.17
290.00,1258
289.00,1324.17
288.00,1547.5
287.00,1532.83
286.00,2042
285.00,4207.5
284.00,4432.5
283.00,1464
282.00,1174.33
281.00,1071.33
280.00,1027.83
279.00,1028.67
278.00,1051.83
0.00,0.0000
0.00,0.0000
0.00,0.0000
0.00,0.0000
0.00,0.0000
0.00,0.0000
0.00,0.0000
0.00,0.0000
0.00,0.0000
0.00,0.0000
0.00,0.0000
0.00,0.0000
0.00,0.0000
0.00,0.0000
0.00,0.0000
0.00,0.0000
0.00,0.0000
0.00,0.0000
0.00,0.0000
0.00,0.0000
0.00,0.0000
0.00,0.0000
0.00,0.0000
0.00,0.0000
0.00,0.0000
0.00,0.0000
0.00,0.0000
0.00,0.0000
0.00,0.0000
0.00,0.0000
0.00,0.0000
0.00,0.0000
0.00,0.0000
0.00,0.0000
0.00,0.0000
0.00,0.0000
0.00,0.0000
0.00,0.0000
0.00,0.0000
0.00,0.0000
0.00,0.0000
0.00,0.0000
0.00,0.0000
0.00,0.0000
0.00,0.0000
0.00,0.0000
0.00,0.0000
0.00,0.0000
0.00,0.0000
0.00,0.0000
0.00,0.0000
0.00,0.0000
0.00,0.0000
0.00,0.0000
0.00,0.0000
0.00,0.0000
0.00,0.0000
0.00,0.0000
0.00,0.0000
0.00,0.0000
0.00,0.0000
0.00,0.0000
0.00,0.0000
0.00,0.0000
0.00,0.0000
0.00,0.0000
0.00,0.0000
0.00,0.0000
0.00,0.0000
0.00,0.0000
0.00,0.0000
0.00,0.0000
0.00,0.0000
0.00,0.0000
0.00,0.0000
0.00,0.0000
0.00,0.0000
0.00,0.0000
0.00,0.0000
0.00,0.0000
0.00,0.0000
0.00,0.0000
0.00,0.0000
0.00,0.0000
0.00,0.0000
0.00,0.0000
0.00,0.0000
0.00,0.0000
0.00,0.0000
0.00,0.0000
0.00,0.0000
0.00,0.0000
0.00,0.0000
0.00,0.0000
0.00,0.0000
0.00,0.0000
0.00,0.0000
0.00,0.0000
0.00,0.0000
0.00,0.0000
0.00,0.0000
0.00,0.0000
0.00,0.0000
0.00,0.0000
0.00,0.0000
0.00,0.0000
0.00,0.0000
0.00,0.0000
0.00,0.0000
0.00,0.0000
0.00,0.0000
0.00,0.0000
0.00,0.0000
0.00,0.0000
0.00,0.0000
0.00,0.0000
0.00,0.0000
0.00,0.0000
0.00,0.0000
0.00,0.0000
0.00,0.0000
0.00,0.0000
0.00,0.0000
0.00,0.0000
0.00,0.0000
0.00,0.0000
0.00,0.0000
0.00,0.0000
0.00,0.0000
0.00,0.0000
0.00,0.0000
0.00,0.0000
0.00,0.0000
0.00,0.0000
0.00,0.0000
0.00,0.0000
0.00,0.0000
0.00,0.0000
0.00,0.0000
0.00,0.0000
0.00,0.0000
0.00,0.0000
0.00,0.0000
0.00,0.0000
0.00,0.0000
0.00,0.0000
0.00,0.0000
0.00,0.0000
0.00,0.0000
0.00,0.0000
0.00,0.0000
0.00,0.0000
0.00,0.0000
0.00,0.0000
0.00,0.0000
0.00,0.0000
0.00,0.0000
0.00,0.0000
0.00,0.0000
0.00,0.0000
0.00,0.0000
0.00,0.0000
0.00,0.0000
0.00,0.0000
0.00,0.0000
0.00,0.0000
0.00,0.0000
0.00,0.0000
0.00,0.0000
0.00,0.0000
0.00,0.0000
0.00,0.0000
0.00,0.0000
0.00,0.0000
0.00,0.0000
0.00,0.0000
0.00,0.0000
0.00,0.0000
0.00,0.0000
0.00,0.0000
0.00,0.0000
0.00,0.0000
0.00,0.0000
0.00,0.0000
0.00,0.0000
0.00,0.0000
0.00,0.0000
0.00,0.0000
0.00,0.0000
0.00,0.0000
0.00,0.0000
0.00,0.0000
0.00,0.0000
0.00,0.0000
0.00,0.0000
0.00,0.0000
0.00,0.0000
0.00,0.0000
0.00,0.0000
0.00,0.0000
0.00,0.0000
0.00,0.0000
0.00,0.0000
0.00,0.0000
0.00,0.0000
0.00,0.0000
0.00,0.0000
0.00,0.0000
0.00,0.0000
0.00,0.0000
0.00,0.0000
0.00,0.0000
0.00,0.0000
0.00,0.0000
0.00,0.0000
0.00,0.0000
0.00,0.0000
0.00,0.0000
0.00,0.0000
0.00,0.0000
0.00,0.0000
0.00,0.0000
0.00,0.0000
0.00,0.0000
0.00,0.0000
0.00,0.0000
0.00,0.0000
0.00,0.0000
0.00,0.0000
0.00,0.0000
0.00,0.0000
0.00,0.0000
0.00,0.0000
0.00,0.0000
0.00,0.0000
0.00,0.0000
0.00,0.0000
0.00,0.0000
0.00,0.0000
0.00,0.0000
0.00,0.0000
0.00,0.0000
0.00,0.0000
0.00,0.0000
0.00,0.0000
0.00,0.0000
0.00,0.0000
0.00,0.0000
0.00,0.0000
0.00,0.0000
0.00,0.0000
0.00,0.0000
0.00,0.0000
0.00,0.0000
0.00,0.0000
0.00,0.0000
0.00,0.0000
0.00,0.0000
0.00,0.0000
0.00,0.0000
0.00,0.0000
0.00,0.0000
0.00,0.0000
0.00,0.0000
0.00,0.0000
0.00,0.0000
0.00,0.0000
0.00,0.0000
0.00,0.0000
0.00,0.0000
0.00,0.0000
0.00,0.0000
0.00,0.0000
0.00,0.0000
0.00,0.0000
0.00,0.0000
0.00,0.0000
0.00,0.0000
0.00,0.0000
0.00,0.0000
0.00,0.0000
0.00,0.0000
0.00,0.0000
0.00,0.0000
0.00,0.0000
0.00,0.0000
0.00,0.0000
0.00,0.0000
0.00,0.0000
0.00,0.0000
0.00,0.0000
0.00,0.0000
0.00,0.0000
0.00,0.0000
0.00,0.0000
0.00,0.0000
0.00,0.0000
0.00,0.0000
0.00,0.0000
0.00,0.0000
0.00,0.0000
0.00,0.0000
0.00,0.0000
0.00,0.0000
0.00,0.0000
0.00,0.0000
0.00,0.0000
0.00,0.0000
0.00,0.0000
0.00,0.0000
0.00,0.0000
0.00,0.0000
0.00,0.0000
0.00,0.0000
0.00,0.0000
0.00,0.0000
0.00,0.0000
0.00,0.0000
0.00,0.0000
0.00,0.0000
0.00,0.0000
0.00,0.0000
0.00,0.0000
0.00,0.0000
0.00,0.0000
0.00,0.0000
0.00,0.0000
0.00,0.0000
0.00,0.0000
0.00,0.0000
0.00,0.0000
0.00,0.0000
0.00,0.0000
0.00,0.0000
0.00,0.0000
0.00,0.0000
0.00,0.0000
0.00,0.0000
0.00,0.0000
0.00,0.0000
0.00,0.0000
0.00,0.0000
0.00,0.0000
0.00,0.0000
0.00,0.0000
0.00,0.0000
0.00,0.0000
0.00,0.0000
0.00,0.0000
0.00,0.0000
0.00,0.0000
0.00,0.0000
0.00,0.0000
0.00,0.0000
0.00,0.0000
0.00,0.0000
0.00,0.0000
0.00,0.0000
0.00,0.0000
0.00,0.0000
0.00,0.0000
0.00,0.0000
0.00,0.0000
0.00,0.0000
0.00,0.0000
0.00,0.0000
0.00,0.0000
0.00,0.0000
0.00,0.0000
0.00,0.0000
0.00,0.0000
0.00,0.0000
0.00,0.0000
0.00,0.0000
0.00,0.0000
0.00,0.0000
0.00,0.0000
0.00,0.0000
0.00,0.0000
0.00,0.0000
0.00,0.0000
0.00,0.0000
0.00,0.0000
0.00,0.0000
0.00,0.0000
0.00,0.0000
0.00,0.0000
0.00,0.0000
0.00,0.0000
0.00,0.0000
0.00,0.0000
0.00,0.0000
0.00,0.0000
0.00,0.0000
0.00,0.0000
0.00,0.0000
0.00,0.0000
0.00,0.0000
0.00,0.0000
0.00,0.0000
0.00,0.0000
0.00,0.0000
0.00,0.0000
0.00,0.0000
0.00,0.0000
0.00,0.0000
0.00,0.0000
0.00,0.0000
0.00,0.0000
0.00,0.0000
0.00,0.0000
0.00,0.0000
0.00,0.0000
0.00,0.0000
0.00,0.0000
0.00,0.0000
0.00,0.0000
0.00,0.0000
0.00,0.0000
0.00,0.0000
0.00,0.0000
0.00,0.0000
0.00,0.0000
0.00,0.0000
0.00,0.0000
0.00,0.0000
0.00,0.0000
0.00,0.0000
0.00,0.0000
0.00,0.0000
0.00,0.0000
0.00,0.0000
0.00,0.0000
0.00,0.0000
0.00,0.0000
0.00,0.0000
0.00,0.0000
0.00,0.0000
0.00,0.0000
0.00,0.0000
0.00,0.0000
0.00,0.0000
0.00,0.0000
0.00,0.0000
0.00,0.0000
0.00,0.0000
0.00,0.0000
0.00,0.0000
0.00,0.0000
0.00,0.0000
0.00,0.0000
0.00,0.0000
0.00,0.0000
0.00,0.0000
0.00,0.0000
0.00,0.0000
0.00,0.0000
0.00,0.0000
0.00,0.0000
0.00,0.0000
0.00,0.0000
0.00,0.0000
0.00,0.0000
0.00,0.0000
0.00,0.0000
0.00,0.0000
0.00,0.0000
0.00,0.0000
0.00,0.0000
0.00,0.0000
0.00,0.0000
0.00,0.0000
0.00,0.0000
0.00,0.0000
0.00,0.0000
0.00,0.0000
0.00,0.0000
0.00,0.0000
0.00,0.0000
0.00,0.0000
0.00,0.0000
0.00,0.0000
0.00,0.0000
0.00,0.0000
0.00,0.0000
0.00,0.0000
0.00,0.0000
0.00,0.0000
0.00,0.0000
0.00,0.0000
0.00,0.0000
0.00,0.0000
0.00,0.0000
0.00,0.0000
0.00,0.0000
0.00,0.0000
0.00,0.0000
0.00,0.0000
0.00,0.0000
0.00,0.0000
0.00,0.0000
0.00,0.0000
0.00,0.0000
0.00,0.0000
0.00,0.0000
0.00,0.0000
0.00,0.0000
0.00,0.0000
0.00,0.0000
0.00,0.0000
0.00,0.0000
0.00,0.0000
0.00,0.0000
0.00,0.0000
0.00,0.0000
0.00,0.0000
0.00,0.0000
0.00,0.0000
0.00,0.0000
0.00,0.0000
0.00,0.0000
0.00,0.0000
0.00,0.0000
0.00,0.0000
0.00,0.0000
0.00,0.0000
0.00,0.0000
0.00,0.0000
0.00,0.0000
0.00,0.0000
0.00,0.0000
0.00,0.0000
0.00,0.0000
0.00,0.0000
0.00,0.0000
0.00,0.0000
0.00,0.0000
0.00,0.0000
0.00,0.0000
0.00,0.0000
0.00,0.0000
0.00,0.0000
0.00,0.0000
0.00,0.0000
0.00,0.0000
0.00,0.0000
0.00,0.0000
0.00,0.0000
0.00,0.0000
0.00,0.0000
0.00,0.0000
0.00,0.0000
0.00,0.0000
0.00,0.0000
0.00,0.0000
0.00,0.0000
0.00,0.0000
0.00,0.0000
0.00,0.0000
0.00,0.0000
0.00,0.0000
0.00,0.0000
0.00,0.0000
0.00,0.0000
0.00,0.0000
0.00,0.0000
0.00,0.0000
0.00,0.0000
0.00,0.0000
0.00,0.0000
0.00,0.0000
0.00,0.0000
0.00,0.0000
0.00,0.0000
0.00,0.0000
0.00,0.0000
0.00,0.0000
0.00,0.0000
0.00,0.0000
0.00,0.0000
0.00,0.0000
0.00,0.0000
0.00,0.0000
0.00,0.0000
0.00,0.0000
0.00,0.0000
0.00,0.0000
0.00,0.0000
0.00,0.0000
0.00,0.0000
0.00,0.0000
0.00,0.0000
0.00,0.0000
0.00,0.0000
0.00,0.0000
0.00,0.0000
0.00,0.0000
0.00,0.0000
0.00,0.0000
0.00,0.0000
0.00,0.0000
0.00,0.0000
0.00,0.0000
0.00,0.0000
0.00,0.0000
0.00,0.0000
0.00,0.0000
0.00,0.0000
0.00,0.0000
0.00,0.0000
0.00,0.0000
0.00,0.0000
0.00,0.0000
0.00,0.0000
0.00,0.0000
0.00,0.0000
0.00,0.0000
0.00,0.0000
0.00,0.0000
0.00,0.0000
0.00,0.0000
0.00,0.0000
0.00,0.0000
0.00,0.0000
0.00,0.0000
0.00,0.0000
0.00,0.0000
0.00,0.0000
0.00,0.0000
0.00,0.0000
0.00,0.0000
0.00,0.0000
0.00,0.0000
0.00,0.0000
0.00,0.0000
0.00,0.0000
0.00,0.0000
0.00,0.0000
0.00,0.0000
0.00,0.0000
0.00,0.0000
0.00,0.0000
0.00,0.0000
0.00,0.0000
0.00,0.0000
0.00,0.0000
0.00,0.0000
0.00,0.0000
0.00,0.0000
0.00,0.0000
0.00,0.0000
0.00,0.0000
0.00,0.0000
0.00,0.0000
0.00,0.0000
0.00,0.0000
0.00,0.0000
0.00,0.0000
0.00,0.0000
0.00,0.0000
0.00,0.0000
0.00,0.0000
0.00,0.0000
0.00,0.0000
0.00,0.0000
0.00,0.0000
0.00,0.0000
0.00,0.0000
0.00,0.0000
0.00,0.0000
0.00,0.0000
0.00,0.0000
0.00,0.0000
0.00,0.0000
0.00,0.0000
0.00,0.0000
0.00,0.0000
0.00,0.0000
0.00,0.0000
0.00,0.0000
0.00,0.0000
0.00,0.0000
0.00,0.0000
0.00,0.0000
0.00,0.0000
0.00,0.0000
0.00,0.0000
0.00,0.0000
0.00,0.0000
0.00,0.0000
0.00,0.0000
0.00,0.0000
0.00,0.0000
0.00,0.0000
0.00,0.0000
0.00,0.0000
0.00,0.0000
0.00,0.0000
0.00,0.0000
0.00,0.0000
0.00,0.0000
0.00,0.0000
0.00,0.0000
0.00,0.0000
0.00,0.0000
0.00,0.0000
0.00,0.0000
0.00,0.0000
0.00,0.0000
0.00,0.0000
0.00,0.0000
0.00,0.0000
0.00,0.0000
0.00,0.0000
0.00,0.0000
0.00,0.0000
0.00,0.0000
0.00,0.0000
0.00,0.0000
0.00,0.0000
0.00,0.0000
0.00,0.0000
0.00,0.0000
0.00,0.0000
0.00,0.0000
0.00,0.0000
0.00,0.0000
0.00,0.0000
0.00,0.0000
0.00,0.0000
0.00,0.0000
0.00,0.0000
0.00,0.0000
0.00,0.0000
0.00,0.0000
0.00,0.0000
0.00,0.0000
0.00,0.0000
0.00,0.0000
0.00,0.0000
0.00,0.0000
0.00,0.0000
0.00,0.0000
0.00,0.0000
0.00,0.0000
0.00,0.0000
0.00,0.0000
0.00,0.0000
0.00,0.0000
0.00,0.0000
0.00,0.0000
0.00,0.0000
0.00,0.0000
0.00,0.0000
0.00,0.0000
0.00,0.0000
0.00,0.0000
0.00,0.0000
0.00,0.0000
0.00,0.0000
0.00,0.0000
0.00,0.0000
0.00,0.0000
0.00,0.0000
0.00,0.0000
0.00,0.0000
0.00,0.0000
0.00,0.0000
0.00,0.0000
0.00,0.0000
0.00,0.0000
0.00,0.0000
0.00,0.0000
0.00,0.0000
0.00,0.0000
0.00,0.0000
0.00,0.0000
0.00,0.0000
0.00,0.0000
0.00,0.0000
0.00,0.0000
0.00,0.0000
0.00,0.0000
0.00,0.0000
0.00,0.0000
0.00,0.0000
0.00,0.0000
0.00,0.0000
0.00,0.0000
0.00,0.0000
0.00,0.0000
0.00,0.0000
0.00,0.0000
0.00,0.0000
0.00,0.0000
0.00,0.0000
0.00,0.0000
0.00,0.0000
0.00,0.0000
0.00,0.0000
0.00,0.0000
0.00,0.0000
0.00,0.0000
0.00,0.0000
0.00,0.0000
0.00,0.0000
0.00,0.0000
0.00,0.0000
0.00,0.0000
0.00,0.0000
0.00,0.0000
0.00,0.0000
0.00,0.0000
0.00,0.0000
0.00,0.0000
0.00,0.0000
0.00,0.0000
0.00,0.0000
0.00,0.0000
0.00,0.0000
0.00,0.0000
0.00,0.0000
0.00,0.0000
0.00,0.0000
0.00,0.0000
0.00,0.0000
0.00,0.0000
0.00,0.0000
0.00,0.0000
0.00,0.0000
0.00,0.0000
0.00,0.0000
0.00,0.0000
0.00,0.0000
0.00,0.0000
0.00,0.0000
0.00,0.0000
0.00,0.0000
0.00,0.0000
0.00,0.0000
0.00,0.0000
0.00,0.0000
0.00,0.0000
0.00,0.0000
0.00,0.0000
0.00,0.0000
0.00,0.0000
0.00,0.0000
0.00,0.0000
0.00,0.0000
0.00,0.0000
0.00,0.0000
0.00,0.0000
0.00,0.0000
0.00,0.0000
0.00,0.0000
0.00,0.0000
0.00,0.0000
0.00,0.0000
0.00,0.0000
0.00,0.0000
0.00,0.0000
0.00,0.0000
0.00,0.0000
0.00,0.0000
0.00,0.0000
0.00,0.0000
0.00,0.0000
0.00,0.0000
0.00,0.0000
0.00,0.0000
0.00,0.0000
0.00,0.0000
0.00,0.0000
0.00,0.0000
0.00,0.0000
0.00,0.0000
0.00,0.0000
0.00,0.0000
0.00,0.0000
0.00,0.0000
0.00,0.0000
0.00,0.0000
0.00,0.0000
0.00,0.0000
0.00,0.0000
0.00,0.0000
0.00,0.0000
0.00,0.0000
0.00,0.0000
0.00,0.0000
0.00,0.0000
0.00,0.0000
0.00,0.0000
0.00,0.0000
0.00,0.0000
0.00,0.0000
0.00,0.0000
0.00,0.0000
0.00,0.0000
0.00,0.0000
0.00,0.0000
0.00,0.0000
0.00,0.0000
0.00,0.0000
0.00,0.0000
0.00,0.0000
0.00,0.0000
0.00,0.0000
0.00,0.0000
0.00,0.0000
0.00,0.0000
0.00,0.0000
0.00,0.0000
0.00,0.0000
0.00,0.0000
0.00,0.0000
0.00,0.0000
0.00,0.0000
0.00,0.0000
0.00,0.0000
0.00,0.0000
0.00,0.0000
0.00,0.0000
0.00,0.0000
0.00,0.0000
0.00,0.0000
0.00,0.0000
0.00,0.0000
0.00,0.0000
0.00,0.0000
0.00,0.0000
0.00,0.0000
0.00,0.0000
0.00,0.0000
0.00,0.0000
0.00,0.0000
0.00,0.0000
0.00,0.0000
0.00,0.0000
0.00,0.0000
0.00,0.0000
0.00,0.0000
0.00,0.0000
0.00,0.0000
0.00,0.0000
0.00,0.0000
0.00,0.0000
0.00,0.0000
0.00,0.0000
0.00,0.0000
0.00,0.0000
0.00,0.0000
0.00,0.0000
0.00,0.0000
0.00,0.0000
0.00,0.0000
0.00,0.0000
0.00,0.0000
0.00,0.0000
0.00,0.0000
0.00,0.0000
0.00,0.0000
0.00,0.0000
0.00,0.0000
0.00,0.0000
0.00,0.0000
0.00,0.0000
0.00,0.0000
0.00,0.0000
0.00,0.0000
0.00,0.0000
0.00,0.0000
0.00,0.0000
0.00,0.0000
0.00,0.0000
0.00,0.0000
0.00,0.0000
0.00,0.0000
0.00,0.0000
0.00,0.0000
0.00,0.0000
0.00,0.0000
0.00,0.0000
0.00,0.0000
0.00,0.0000
0.00,0.0000
0.00,0.0000
0.00,0.0000
0.00,0.0000
0.00,0.0000
0.00,0.0000
0.00,0.0000
0.00,0.0000
0.00,0.0000
0.00,0.0000
0.00,0.0000
0.00,0.0000
0.00,0.0000
0.00,0.0000
0.00,0.0000
0.00,0.0000
0.00,0.0000
0.00,0.0000
0.00,0.0000
0.00,0.0000
0.00,0.0000
0.00,0.0000
0.00,0.0000
0.00,0.0000
0.00,0.0000
0.00,0.0000
0.00,0.0000
0.00,0.0000
0.00,0.0000
0.00,0.0000
0.00,0.0000
0.00,0.0000
0.00,0.0000
0.00,0.0000
0.00,0.0000
0.00,0.0000
0.00,0.0000
0.00,0.0000
0.00,0.0000
0.00,0.0000
0.00,0.0000
0.00,0.0000
0.00,0.0000
0.00,0.0000
0.00,0.0000
0.00,0.0000
0.00,0.0000
0.00,0.0000
0.00,0.0000
0.00,0.0000
0.00,0.0000
0.00,0.0000
0.00,0.0000
0.00,0.0000
0.00,0.0000
0.00,0.0000
0.00,0.0000
0.00,0.0000
0.00,0.0000
0.00,0.0000
0.00,0.0000
0.00,0.0000
0.00,0.0000
0.00,0.0000
0.00,0.0000
0.00,0.0000
0.00,0.0000
0.00,0.0000
0.00,0.0000
0.00,0.0000
0.00,0.0000
0.00,0.0000
0.00,0.0000
0.00,0.0000
0.00,0.0000
0.00,0.0000
0.00,0.0000
0.00,0.0000
0.00,0.0000
0.00,0.0000
0.00,0.0000
0.00,0.0000
0.00,0.0000
0.00,0.0000
0.00,0.0000
0.00,0.0000
0.00,0.0000
0.00,0.0000
0.00,0.0000
0.00,0.0000
0.00,0.0000
0.00,0.0000
0.00,0.0000
0.00,0.0000
0.00,0.0000
0.00,0.0000
0.00,0.0000
0.00,0.0000
0.00,0.0000
0.00,0.0000
0.00,0.0000
0.00,0.0000
0.00,0.0000
0.00,0.0000
0.00,0.0000
0.00,0.0000
0.00,0.0000
0.00,0.0000
0.00,0.0000
0.00,0.0000
0.00,0.0000
0.00,0.0000
0.00,0.0000
0.00,0.0000
0.00,0.0000
0.00,0.0000
0.00,0.0000
0.00,0.0000
0.00,0.0000
0.00,0.0000
0.00,0.0000
0.00,0.0000
0.00,0.0000
0.00,0.0000
0.00,0.0000
0.00,0.0000
0.00,0.0000
0.00,0.0000
0.00,0.0000
0.00,0.0000
0.00,0.0000
0.00,0.0000
0.00,0.0000
0.00,0.0000
0.00,0.0000
0.00,0.0000
0.00,0.0000
0.00,0.0000
0.00,0.0000
0.00,0.0000
0.00,0.0000
0.00,0.0000
0.00,0.0000
0.00,0.0000
0.00,0.0000
0.00,0.0000
0.00,0.0000
0.00,0.0000
0.00,0.0000
0.00,0.0000
0.00,0.0000
0.00,0.0000
0.00,0.0000
0.00,0.0000
0.00,0.0000
0.00,0.0000
0.00,0.0000
0.00,0.0000
0.00,0.0000
0.00,0.0000
0.00,0.0000
0.00,0.0000
0.00,0.0000
0.00,0.0000
0.00,0.0000
0.00,0.0000
0.00,0.0000
0.00,0.0000
0.00,0.0000
0.00,0.0000
0.00,0.0000
0.00,0.0000
0.00,0.0000
0.00,0.0000
0.00,0.0000
0.00,0.0000
0.00,0.0000
0.00,0.0000
0.00,0.0000
0.00,0.0000
0.00,0.0000
0.00,0.0000
0.00,0.0000
0.00,0.0000
0.00,0.0000
0.00,0.0000
0.00,0.0000
0.00,0.0000
0.00,0.0000
0.00,0.0000
0.00,0.0000
0.00,0.0000
0.00,0.0000
0.00,0.0000
0.00,0.0000
0.00,0.0000
0.00,0.0000
0.00,0.0000
0.00,0.0000
0.00,0.0000
0.00,0.0000
0.00,0.0000
0.00,0.0000
0.00,0.0000
0.00,0.0000
0.00,0.0000
0.00,0.0000
0.00,0.0000
0.00,0.0000
0.00,0.0000
0.00,0.0000
0.00,0.0000
0.00,0.0000
0.00,0.0000
0.00,0.0000
0.00,0.0000
0.00,0.0000
0.00,0.0000
0.00,0.0000
0.00,0.0000
0.00,0.0000
0.00,0.0000
0.00,0.0000
0.00,0.0000
0.00,0.0000
0.00,0.0000
0.00,0.0000
0.00,0.0000
0.00,0.0000
0.00,0.0000
0.00,0.0000
0.00,0.0000
0.00,0.0000
0.00,0.0000
0.00,0.0000
0.00,0.0000
0.00,0.0000
0.00,0.0000
0.00,0.0000
0.00,0.0000
0.00,0.0000
0.00,0.0000
0.00,0.0000
0.00,0.0000

2
no area description
Mn2p
1,1
file#,17
672.00,8002.83
671.00,7999.67
670.00,7969.17
669.00,7925
668.00,8032.83
667.00,8112.67
666.00,8168
665.00,8109.83
664.00,7997.33
663.00,7818
662.00,7592.33
661.00,7452.5
660.00,7413.33
659.00,7570.67
658.00,7764
657.00,8256.83
656.00,8933.83
655.00,10451
654.00,12225.8
653.00,11352.3
652.00,8681.33
651.00,7001.33
650.00,6567
649.00,6269
648.00,6324.67
647.00,6527
646.00,7010
645.00,7909.83
644.00,9735.17
643.00,12858.2
642.00,15148.7
641.00,10098.5
640.00,5564.5
639.00,3669.17
638.00,3316.5
637.00,3202.83
636.00,3118.33
635.00,3053.5
634.00,3088.33
633.00,3098
632.00,3107.83
0.00,0.0000
0.00,0.0000
0.00,0.0000
0.00,0.0000
0.00,0.0000
0.00,0.0000
0.00,0.0000
0.00,0.0000
0.00,0.0000
0.00,0.0000
0.00,0.0000
0.00,0.0000
0.00,0.0000
0.00,0.0000
0.00,0.0000
0.00,0.0000
0.00,0.0000
0.00,0.0000
0.00,0.0000
0.00,0.0000
0.00,0.0000
0.00,0.0000
0.00,0.0000
0.00,0.0000
0.00,0.0000
0.00,0.0000
0.00,0.0000
0.00,0.0000
0.00,0.0000
0.00,0.0000
0.00,0.0000
0.00,0.0000
0.00,0.0000
0.00,0.0000
0.00,0.0000
0.00,0.0000
0.00,0.0000
0.00,0.0000
0.00,0.0000
0.00,0.0000
0.00,0.0000
0.00,0.0000
0.00,0.0000
0.00,0.0000
0.00,0.0000
0.00,0.0000
0.00,0.0000
0.00,0.0000
0.00,0.0000
0.00,0.0000
0.00,0.0000
0.00,0.0000
0.00,0.0000
0.00,0.0000
0.00,0.0000
0.00,0.0000
0.00,0.0000
0.00,0.0000
0.00,0.0000
0.00,0.0000
0.00,0.0000
0.00,0.0000
0.00,0.0000
0.00,0.0000
0.00,0.0000
0.00,0.0000
0.00,0.0000
0.00,0.0000
0.00,0.0000
0.00,0.0000
0.00,0.0000
0.00,0.0000
0.00,0.0000
0.00,0.0000
0.00,0.0000
0.00,0.0000
0.00,0.0000
0.00,0.0000
0.00,0.0000
0.00,0.0000
0.00,0.0000
0.00,0.0000
0.00,0.0000
0.00,0.0000
0.00,0.0000
0.00,0.0000
0.00,0.0000
0.00,0.0000
0.00,0.0000
0.00,0.0000
0.00,0.0000
0.00,0.0000
0.00,0.0000
0.00,0.0000
0.00,0.0000
0.00,0.0000
0.00,0.0000
0.00,0.0000
0.00,0.0000
0.00,0.0000
0.00,0.0000
0.00,0.0000
0.00,0.0000
0.00,0.0000
0.00,0.0000
0.00,0.0000
0.00,0.0000
0.00,0.0000
0.00,0.0000
0.00,0.0000
0.00,0.0000
0.00,0.0000
0.00,0.0000
0.00,0.0000
0.00,0.0000
0.00,0.0000
0.00,0.0000
0.00,0.0000
0.00,0.0000
0.00,0.0000
0.00,0.0000
0.00,0.0000
0.00,0.0000
0.00,0.0000
0.00,0.0000
0.00,0.0000
0.00,0.0000
0.00,0.0000
0.00,0.0000
0.00,0.0000
0.00,0.0000
0.00,0.0000
0.00,0.0000
0.00,0.0000
0.00,0.0000
0.00,0.0000
0.00,0.0000
0.00,0.0000
0.00,0.0000
0.00,0.0000
0.00,0.0000
0.00,0.0000
0.00,0.0000
0.00,0.0000
0.00,0.0000
0.00,0.0000
0.00,0.0000
0.00,0.0000
0.00,0.0000
0.00,0.0000
0.00,0.0000
0.00,0.0000
0.00,0.0000
0.00,0.0000
0.00,0.0000
0.00,0.0000
0.00,0.0000
0.00,0.0000
0.00,0.0000
0.00,0.0000
0.00,0.0000
0.00,0.0000
0.00,0.0000
0.00,0.0000
0.00,0.0000
0.00,0.0000
0.00,0.0000
0.00,0.0000
0.00,0.0000
0.00,0.0000
0.00,0.0000
0.00,0.0000
0.00,0.0000
0.00,0.0000
0.00,0.0000
0.00,0.0000
0.00,0.0000
0.00,0.0000
0.00,0.0000
0.00,0.0000
0.00,0.0000
0.00,0.0000
0.00,0.0000
0.00,0.0000
0.00,0.0000
0.00,0.0000
0.00,0.0000
0.00,0.0000
0.00,0.0000
0.00,0.0000
0.00,0.0000
0.00,0.0000
0.00,0.0000
0.00,0.0000
0.00,0.0000
0.00,0.0000
0.00,0.0000
0.00,0.0000
0.00,0.0000
0.00,0.0000
0.00,0.0000
0.00,0.0000
0.00,0.0000
0.00,0.0000
0.00,0.0000
0.00,0.0000
0.00,0.0000
0.00,0.0000
0.00,0.0000
0.00,0.0000
0.00,0.0000
0.00,0.0000
0.00,0.0000
0.00,0.0000
0.00,0.0000
0.00,0.0000
0.00,0.0000
0.00,0.0000
0.00,0.0000
0.00,0.0000
0.00,0.0000
0.00,0.0000
0.00,0.0000
0.00,0.0000
0.00,0.0000
0.00,0.0000
0.00,0.0000
0.00,0.0000
0.00,0.0000
0.00,0.0000
0.00,0.0000
0.00,0.0000
0.00,0.0000
0.00,0.0000
0.00,0.0000
0.00,0.0000
0.00,0.0000
0.00,0.0000
0.00,0.0000
0.00,0.0000
0.00,0.0000
0.00,0.0000
0.00,0.0000
0.00,0.0000
0.00,0.0000
0.00,0.0000
0.00,0.0000
0.00,0.0000
0.00,0.0000
0.00,0.0000
0.00,0.0000
0.00,0.0000
0.00,0.0000
0.00,0.0000
0.00,0.0000
0.00,0.0000
0.00,0.0000
0.00,0.0000
0.00,0.0000
0.00,0.0000
0.00,0.0000
0.00,0.0000
0.00,0.0000
0.00,0.0000
0.00,0.0000
0.00,0.0000
0.00,0.0000
0.00,0.0000
0.00,0.0000
0.00,0.0000
0.00,0.0000
0.00,0.0000
0.00,0.0000
0.00,0.0000
0.00,0.0000
0.00,0.0000
0.00,0.0000
0.00,0.0000
0.00,0.0000
0.00,0.0000
0.00,0.0000
0.00,0.0000
0.00,0.0000
0.00,0.0000
0.00,0.0000
0.00,0.0000
0.00,0.0000
0.00,0.0000
0.00,0.0000
0.00,0.0000
0.00,0.0000
0.00,0.0000
0.00,0.0000
0.00,0.0000
0.00,0.0000
0.00,0.0000
0.00,0.0000
0.00,0.0000
0.00,0.0000
0.00,0.0000
0.00,0.0000
0.00,0.0000
0.00,0.0000
0.00,0.0000
0.00,0.0000
0.00,0.0000
0.00,0.0000
0.00,0.0000
0.00,0.0000
0.00,0.0000
0.00,0.0000
0.00,0.0000
0.00,0.0000
0.00,0.0000
0.00,0.0000
0.00,0.0000
0.00,0.0000
0.00,0.0000
0.00,0.0000
0.00,0.0000
0.00,0.0000
0.00,0.0000
0.00,0.0000
0.00,0.0000
0.00,0.0000
0.00,0.0000
0.00,0.0000
0.00,0.0000
0.00,0.0000
0.00,0.0000
0.00,0.0000
0.00,0.0000
0.00,0.0000
0.00,0.0000
0.00,0.0000
0.00,0.0000
0.00,0.0000
0.00,0.0000
0.00,0.0000
0.00,0.0000
0.00,0.0000
0.00,0.0000
0.00,0.0000
0.00,0.0000
0.00,0.0000
0.00,0.0000
0.00,0.0000
0.00,0.0000
0.00,0.0000
0.00,0.0000
0.00,0.0000
0.00,0.0000
0.00,0.0000
0.00,0.0000
0.00,0.0000
0.00,0.0000
0.00,0.0000
0.00,0.0000
0.00,0.0000
0.00,0.0000
0.00,0.0000
0.00,0.0000
0.00,0.0000
0.00,0.0000
0.00,0.0000
0.00,0.0000
0.00,0.0000
0.00,0.0000
0.00,0.0000
0.00,0.0000
0.00,0.0000
0.00,0.0000
0.00,0.0000
0.00,0.0000
0.00,0.0000
0.00,0.0000
0.00,0.0000
0.00,0.0000
0.00,0.0000
0.00,0.0000
0.00,0.0000
0.00,0.0000
0.00,0.0000
0.00,0.0000
0.00,0.0000
0.00,0.0000
0.00,0.0000
0.00,0.0000
0.00,0.0000
0.00,0.0000
0.00,0.0000
0.00,0.0000
0.00,0.0000
0.00,0.0000
0.00,0.0000
0.00,0.0000
0.00,0.0000
0.00,0.0000
0.00,0.0000
0.00,0.0000
0.00,0.0000
0.00,0.0000
0.00,0.0000
0.00,0.0000
0.00,0.0000
0.00,0.0000
0.00,0.0000
0.00,0.0000
0.00,0.0000
0.00,0.0000
0.00,0.0000
0.00,0.0000
0.00,0.0000
0.00,0.0000
0.00,0.0000
0.00,0.0000
0.00,0.0000
0.00,0.0000
0.00,0.0000
0.00,0.0000
0.00,0.0000
0.00,0.0000
0.00,0.0000
0.00,0.0000
0.00,0.0000
0.00,0.0000
0.00,0.0000
0.00,0.0000
0.00,0.0000
0.00,0.0000
0.00,0.0000
0.00,0.0000
0.00,0.0000
0.00,0.0000
0.00,0.0000
0.00,0.0000
0.00,0.0000
0.00,0.0000
0.00,0.0000
0.00,0.0000
0.00,0.0000
0.00,0.0000
0.00,0.0000
0.00,0.0000
0.00,0.0000
0.00,0.0000
0.00,0.0000
0.00,0.0000
0.00,0.0000
0.00,0.0000
0.00,0.0000
0.00,0.0000
0.00,0.0000
0.00,0.0000
0.00,0.0000
0.00,0.0000
0.00,0.0000
0.00,0.0000
0.00,0.0000
0.00,0.0000
0.00,0.0000
0.00,0.0000
0.00,0.0000
0.00,0.0000
0.00,0.0000
0.00,0.0000
0.00,0.0000
0.00,0.0000
0.00,0.0000
0.00,0.0000
0.00,0.0000
0.00,0.0000
0.00,0.0000
0.00,0.0000
0.00,0.0000
0.00,0.0000
0.00,0.0000
0.00,0.0000
0.00,0.0000
0.00,0.0000
0.00,0.0000
0.00,0.0000
0.00,0.0000
0.00,0.0000
0.00,0.0000
0.00,0.0000
0.00,0.0000
0.00,0.0000
0.00,0.0000
0.00,0.0000
0.00,0.0000
0.00,0.0000
0.00,0.0000
0.00,0.0000
0.00,0.0000
0.00,0.0000
0.00,0.0000
0.00,0.0000
0.00,0.0000
0.00,0.0000
0.00,0.0000
0.00,0.0000
0.00,0.0000
0.00,0.0000
0.00,0.0000
0.00,0.0000
0.00,0.0000
0.00,0.0000
0.00,0.0000
0.00,0.0000
0.00,0.0000
0.00,0.0000
0.00,0.0000
0.00,0.0000
0.00,0.0000
0.00,0.0000
0.00,0.0000
0.00,0.0000
0.00,0.0000
0.00,0.0000
0.00,0.0000
0.00,0.0000
0.00,0.0000
0.00,0.0000
0.00,0.0000
0.00,0.0000
0.00,0.0000
0.00,0.0000
0.00,0.0000
0.00,0.0000
0.00,0.0000
0.00,0.0000
0.00,0.0000
0.00,0.0000
0.00,0.0000
0.00,0.0000
0.00,0.0000
0.00,0.0000
0.00,0.0000
0.00,0.0000
0.00,0.0000
0.00,0.0000
0.00,0.0000
0.00,0.0000
0.00,0.0000
0.00,0.0000
0.00,0.0000
0.00,0.0000
0.00,0.0000
0.00,0.0000
0.00,0.0000
0.00,0.0000
0.00,0.0000
0.00,0.0000
0.00,0.0000
0.00,0.0000
0.00,0.0000
0.00,0.0000
0.00,0.0000
0.00,0.0000
0.00,0.0000
0.00,0.0000
0.00,0.0000
0.00,0.0000
0.00,0.0000
0.00,0.0000
0.00,0.0000
0.00,0.0000
0.00,0.0000
0.00,0.0000
0.00,0.0000
0.00,0.0000
0.00,0.0000
0.00,0.0000
0.00,0.0000
0.00,0.0000
0.00,0.0000
0.00,0.0000
0.00,0.0000
0.00,0.0000
0.00,0.0000
0.00,0.0000
0.00,0.0000
0.00,0.0000
0.00,0.0000
0.00,0.0000
0.00,0.0000
0.00,0.0000
0.00,0.0000
0.00,0.0000
0.00,0.0000
0.00,0.0000
0.00,0.0000
0.00,0.0000
0.00,0.0000
0.00,0.0000
0.00,0.0000
0.00,0.0000
0.00,0.0000
0.00,0.0000
0.00,0.0000
0.00,0.0000
0.00,0.0000
0.00,0.0000
0.00,0.0000
0.00,0.0000
0.00,0.0000
0.00,0.0000
0.00,0.0000
0.00,0.0000
0.00,0.0000
0.00,0.0000
0.00,0.0000
0.00,0.0000
0.00,0.0000
0.00,0.0000
0.00,0.0000
0.00,0.0000
0.00,0.0000
0.00,0.0000
0.00,0.0000
0.00,0.0000
0.00,0.0000
0.00,0.0000
0.00,0.0000
0.00,0.0000
0.00,0.0000
0.00,0.0000
0.00,0.0000
0.00,0.0000
0.00,0.0000
0.00,0.0000
0.00,0.0000
0.00,0.0000
0.00,0.0000
0.00,0.0000
0.00,0.0000
0.00,0.0000
0.00,0.0000
0.00,0.0000
0.00,0.0000
0.00,0.0000
0.00,0.0000
0.00,0.0000
0.00,0.0000
0.00,0.0000
0.00,0.0000
0.00,0.0000
0.00,0.0000
0.00,0.0000
0.00,0.0000
0.00,0.0000
0.00,0.0000
0.00,0.0000
0.00,0.0000
0.00,0.0000
0.00,0.0000
0.00,0.0000
0.00,0.0000
0.00,0.0000
0.00,0.0000
0.00,0.0000
0.00,0.0000
0.00,0.0000
0.00,0.0000
0.00,0.0000
0.00,0.0000
0.00,0.0000
0.00,0.0000
0.00,0.0000
0.00,0.0000
0.00,0.0000
0.00,0.0000
0.00,0.0000
0.00,0.0000
0.00,0.0000
0.00,0.0000
0.00,0.0000
0.00,0.0000
0.00,0.0000
0.00,0.0000
0.00,0.0000
0.00,0.0000
0.00,0.0000
0.00,0.0000
0.00,0.0000
0.00,0.0000
0.00,0.0000
0.00,0.0000
0.00,0.0000
0.00,0.0000
0.00,0.0000
0.00,0.0000
0.00,0.0000
0.00,0.0000
0.00,0.0000
0.00,0.0000
0.00,0.0000
0.00,0.0000
0.00,0.0000
0.00,0.0000
0.00,0.0000
0.00,0.0000
0.00,0.0000
0.00,0.0000
0.00,0.0000
0.00,0.0000
0.00,0.0000
0.00,0.0000
0.00,0.0000
0.00,0.0000
0.00,0.0000
0.00,0.0000
0.00,0.0000
0.00,0.0000
0.00,0.0000
0.00,0.0000
0.00,0.0000
0.00,0.0000
0.00,0.0000
0.00,0.0000
0.00,0.0000
0.00,0.0000
0.00,0.0000
0.00,0.0000
0.00,0.0000
0.00,0.0000
0.00,0.0000
0.00,0.0000
0.00,0.0000
0.00,0.0000
0.00,0.0000
0.00,0.0000
0.00,0.0000
0.00,0.0000
0.00,0.0000
0.00,0.0000
0.00,0.0000
0.00,0.0000
0.00,0.0000
0.00,0.0000
0.00,0.0000
0.00,0.0000
0.00,0.0000
0.00,0.0000
0.00,0.0000
0.00,0.0000
0.00,0.0000
0.00,0.0000
0.00,0.0000
0.00,0.0000
0.00,0.0000
0.00,0.0000
0.00,0.0000
0.00,0.0000
0.00,0.0000
0.00,0.0000
0.00,0.0000
0.00,0.0000
0.00,0.0000
0.00,0.0000
0.00,0.0000
0.00,0.0000
0.00,0.0000
0.00,0.0000
0.00,0.0000
0.00,0.0000
0.00,0.0000
0.00,0.0000
0.00,0.0000
0.00,0.0000
0.00,0.0000
0.00,0.0000
0.00,0.0000
0.00,0.0000
0.00,0.0000
0.00,0.0000
0.00,0.0000
0.00,0.0000
0.00,0.0000
0.00,0.0000
0.00,0.0000
0.00,0.0000
0.00,0.0000
0.00,0.0000
0.00,0.0000
0.00,0.0000
0.00,0.0000
0.00,0.0000
0.00,0.0000
0.00,0.0000
0.00,0.0000
0.00,0.0000
0.00,0.0000
0.00,0.0000
0.00,0.0000
0.00,0.0000
0.00,0.0000
0.00,0.0000
0.00,0.0000
0.00,0.0000
0.00,0.0000
0.00,0.0000
0.00,0.0000
0.00,0.0000
0.00,0.0000
0.00,0.0000
0.00,0.0000
0.00,0.0000
0.00,0.0000
0.00,0.0000
0.00,0.0000
0.00,0.0000
0.00,0.0000
0.00,0.0000
0.00,0.0000
0.00,0.0000
0.00,0.0000
0.00,0.0000
0.00,0.0000
0.00,0.0000
0.00,0.0000
0.00,0.0000
0.00,0.0000
0.00,0.0000
0.00,0.0000
0.00,0.0000
0.00,0.0000
0.00,0.0000
0.00,0.0000
0.00,0.0000
0.00,0.0000
0.00,0.0000
0.00,0.0000
0.00,0.0000
0.00,0.0000
0.00,0.0000
0.00,0.0000
0.00,0.0000
0.00,0.0000
0.00,0.0000
0.00,0.0000
0.00,0.0000
0.00,0.0000
0.00,0.0000
0.00,0.0000
0.00,0.0000
0.00,0.0000
0.00,0.0000
0.00,0.0000
0.00,0.0000
0.00,0.0000
0.00,0.0000
0.00,0.0000
0.00,0.0000
0.00,0.0000
0.00,0.0000
0.00,0.0000
0.00,0.0000
0.00,0.0000
0.00,0.0000
0.00,0.0000
0.00,0.0000
0.00,0.0000
0.00,0.0000
0.00,0.0000
0.00,0.0000
0.00,0.0000
0.00,0.0000
0.00,0.0000
0.00,0.0000
0.00,0.0000
0.00,0.0000
0.00,0.0000
0.00,0.0000
0.00,0.0000
0.00,0.0000
0.00,0.0000
0.00,0.0000
0.00,0.0000
0.00,0.0000
0.00,0.0000
0.00,0.0000
0.00,0.0000
0.00,0.0000
0.00,0.0000
0.00,0.0000
0.00,0.0000
0.00,0.0000
0.00,0.0000
0.00,0.0000
0.00,0.0000
0.00,0.0000
0.00,0.0000
0.00,0.0000
0.00,0.0000
0.00,0.0000
0.00,0.0000
0.00,0.0000
0.00,0.0000
0.00,0.0000
0.00,0.0000
0.00,0.0000
0.00,0.0000
0.00,0.0000
0.00,0.0000
0.00,0.0000
0.00,0.0000
0.00,0.0000
0.00,0.0000
0.00,0.0000
0.00,0.0000
0.00,0.0000
0.00,0.0000
0.00,0.0000
0.00,0.0000
0.00,0.0000
0.00,0.0000
0.00,0.0000
0.00,0.0000
0.00,0.0000
0.00,0.0000
0.00,0.0000
0.00,0.0000
0.00,0.0000
0.00,0.0000
0.00,0.0000
0.00,0.0000
0.00,0.0000
0.00,0.0000
0.00,0.0000
0.00,0.0000
0.00,0.0000
0.00,0.0000
0.00,0.0000
0.00,0.0000
0.00,0.0000
0.00,0.0000
0.00,0.0000
0.00,0.0000
0.00,0.0000
0.00,0.0000
0.00,0.0000
0.00,0.0000
0.00,0.0000
0.00,0.0000
0.00,0.0000
0.00,0.0000
0.00,0.0000
0.00,0.0000
0.00,0.0000
0.00,0.0000
0.00,0.0000
0.00,0.0000
0.00,0.0000
0.00,0.0000
0.00,0.0000
0.00,0.0000
0.00,0.0000
0.00,0.0000
0.00,0.0000
0.00,0.0000
0.00,0.0000
0.00,0.0000
0.00,0.0000
0.00,0.0000
0.00,0.0000
0.00,0.0000
0.00,0.0000
0.00,0.0000
0.00,0.0000
0.00,0.0000
0.00,0.0000
0.00,0.0000
0.00,0.0000
0.00,0.0000
0.00,0.0000
0.00,0.0000
0.00,0.0000
0.00,0.0000
0.00,0.0000
0.00,0.0000
0.00,0.0000
0.00,0.0000
0.00,0.0000
0.00,0.0000
0.00,0.0000
0.00,0.0000
0.00,0.0000
0.00,0.0000
0.00,0.0000
0.00,0.0000
0.00,0.0000
0.00,0.0000
0.00,0.0000
0.00,0.0000
0.00,0.0000
0.00,0.0000
0.00,0.0000
0.00,0.0000
0.00,0.0000
0.00,0.0000
0.00,0.0000
0.00,0.0000
0.00,0.0000
0.00,0.0000
0.00,0.0000
0.00,0.0000
0.00,0.0000
0.00,0.0000
0.00,0.0000
0.00,0.0000
0.00,0.0000
0.00,0.0000
0.00,0.0000
0.00,0.0000
0.00,0.0000
0.00,0.0000
0.00,0.0000
0.00,0.0000
0.00,0.0000
0.00,0.0000
0.00,0.0000
0.00,0.0000
0.00,0.0000
0.00,0.0000
0.00,0.0000
0.00,0.0000
0.00,0.0000
0.00,0.0000
0.00,0.0000
0.00,0.0000
0.00,0.0000
0.00,0.0000
0.00,0.0000
0.00,0.0000
0.00,0.0000
0.00,0.0000
0.00,0.0000
0.00,0.0000
0.00,0.0000
0.00,0.0000
0.00,0.0000
0.00,0.0000
0.00,0.0000
0.00,0.0000
0.00,0.0000
0.00,0.0000
0.00,0.0000
0.00,0.0000
0.00,0.0000
0.00,0.0000
0.00,0.0000
0.00,0.0000
0.00,0.0000
0.00,0.0000
0.00,0.0000
0.00,0.0000
0.00,0.0000
0.00,0.0000
0.00,0.0000
0.00,0.0000
0.00,0.0000
0.00,0.0000
0.00,0.0000
0.00,0.0000
0.00,0.0000
0.00,0.0000
0.00,0.0000
0.00,0.0000
0.00,0.0000
0.00,0.0000
0.00,0.0000
0.00,0.0000
0.00,0.0000
0.00,0.0000
0.00,0.0000
0.00,0.0000
0.00,0.0000
0.00,0.0000
0.00,0.0000
0.00,0.0000
0.00,0.0000
0.00,0.0000
0.00,0.0000
0.00,0.0000
0.00,0.0000
0.00,0.0000
0.00,0.0000
0.00,0.0000
0.00,0.0000
0.00,0.0000
0.00,0.0000
0.00,0.0000
0.00,0.0000
0.00,0.0000
0.00,0.0000
0.00,0.0000
0.00,0.0000
0.00,0.0000
0.00,0.0000
0.00,0.0000
0.00,0.0000
0.00,0.0000
0.00,0.0000
0.00,0.0000
0.00,0.0000
0.00,0.0000
0.00,0.0000
0.00,0.0000
0.00,0.0000
0.00,0.0000
0.00,0.0000
0.00,0.0000
0.00,0.0000
0.00,0.0000
0.00,0.0000
0.00,0.0000
0.00,0.0000
0.00,0.0000
0.00,0.0000
0.00,0.0000
0.00,0.0000
0.00,0.0000
0.00,0.0000
0.00,0.0000
0.00,0.0000
0.00,0.0000
0.00,0.0000
0.00,0.0000
0.00,0.0000
0.00,0.0000
0.00,0.0000
0.00,0.0000
0.00,0.0000
0.00,0.0000
0.00,0.0000
0.00,0.0000
0.00,0.0000
0.00,0.0000
0.00,0.0000
0.00,0.0000
0.00,0.0000
0.00,0.0000
0.00,0.0000
0.00,0.0000
0.00,0.0000
0.00,0.0000
0.00,0.0000
0.00,0.0000
0.00,0.0000
0.00,0.0000
0.00,0.0000
0.00,0.0000
0.00,0.0000
0.00,0.0000
0.00,0.0000
0.00,0.0000
0.00,0.0000
0.00,0.0000
0.00,0.0000
0.00,0.0000
0.00,0.0000
0.00,0.0000
0.00,0.0000
0.00,0.0000
0.00,0.0000
0.00,0.0000
0.00,0.0000
0.00,0.0000
0.00,0.0000
0.00,0.0000
0.00,0.0000
0.00,0.0000
0.00,0.0000
0.00,0.0000
0.00,0.0000
0.00,0.0000
0.00,0.0000
0.00,0.0000
0.00,0.0000
0.00,0.0000
0.00,0.0000
0.00,0.0000
0.00,0.0000
0.00,0.0000
0.00,0.0000
0.00,0.0000
0.00,0.0000
0.00,0.0000
0.00,0.0000
0.00,0.0000
0.00,0.0000
0.00,0.0000
0.00,0.0000
0.00,0.0000
0.00,0.0000
0.00,0.0000
0.00,0.0000
0.00,0.0000
0.00,0.0000
0.00,0.0000
0.00,0.0000
0.00,0.0000
0.00,0.0000
0.00,0.0000
0.00,0.0000
0.00,0.0000
0.00,0.0000
0.00,0.0000

2
no area description
Su1s
1,1
file#,17
1000.00,42960
999.20,41300
998.40,43860
997.60,43800
996.80,43450
996.00,43020
995.20,45420
994.40,44470
993.60,45080
992.80,46240
992.00,42540
991.20,44440
990.40,44310
989.60,43110
988.80,42190
988.00,42930
987.20,41810
986.40,42990
985.60,40940
984.80,43150
984.00,41520
983.20,42090
982.40,41250
981.60,42390
980.80,42900
980.00,42480
979.20,44150
978.40,44280
977.60,44010
976.80,46060
976.00,46650
975.20,47690
974.40,47220
973.60,47000
972.80,46690
972.00,45770
971.20,44260
970.40,43950
969.60,42220
968.80,41670
968.00,41160
967.20,40210
966.40,40240
965.60,41270
964.80,40310
964.00,40470
963.20,38770
962.40,39870
961.60,38280
960.80,39450
960.00,38250
959.20,38010
958.40,38610
957.60,37410
956.80,38560
956.00,39300
955.20,39020
954.40,38340
953.60,38790
952.80,38890
952.00,38240
951.20,39340
950.40,38950
949.60,38080
948.80,38130
948.00,38320
947.20,39420
946.40,38340
945.60,38160
944.80,36580
944.00,36450
943.20,34220
942.40,34200
941.60,32320
940.80,33020
940.00,32360
939.20,31620
938.40,32070
937.60,33000
936.80,33350
936.00,32430
935.20,32210
934.40,31640
933.60,33190
932.80,31180
932.00,31760
931.20,31150
930.40,31200
929.60,31760
928.80,32500
928.00,32310
927.20,32830
926.40,31160
925.60,32490
924.80,31230
924.00,31990
923.20,31350
922.40,32520
921.60,31380
920.80,31280
920.00,31440
919.20,31780
918.40,32110
917.60,31630
916.80,31840
916.00,31990
915.20,31220
914.40,31510
913.60,32440
912.80,31760
912.00,32010
911.20,32190
910.40,32560
909.60,32020
908.80,32380
908.00,33680
907.20,33440
906.40,35070
905.60,35010
904.80,35810
904.00,34420
903.20,35820
902.40,36610
901.60,35250
900.80,35660
900.00,35000
899.20,34210
898.40,34990
897.60,32740
896.80,31950
896.00,31410
895.20,31390
894.40,29680
893.60,29610
892.80,28900
892.00,29090
891.20,28110
890.40,27730
889.60,27850
888.80,27880
888.00,27940
887.20,27280
886.40,26720
885.60,28090
884.80,28340
884.00,26530
883.20,26510
882.40,27960
881.60,26510
880.80,26990
880.00,27020
879.20,26150
878.40,26450
877.60,27240
876.80,26850
876.00,27560
875.20,27050
874.40,27300
873.60,26770
872.80,27070
872.00,27480
871.20,27630
870.40,26530
869.60,28550
868.80,27250
868.00,27140
867.20,27300
866.40,27830
865.60,27560
864.80,26600
864.00,27360
863.20,27060
862.40,27850
861.60,27410
860.80,27610
860.00,28780
859.20,27680
858.40,28290
857.60,28340
856.80,29230
856.00,29600
855.20,29750
854.40,29580
853.60,30140
852.80,28440
852.00,29250
851.20,30080
850.40,28930
849.60,29760
848.80,29350
848.00,28390
847.20,29190
846.40,28160
845.60,28670
844.80,28220
844.00,26630
843.20,27060
842.40,27250
841.60,26640
840.80,27340
840.00,26090
839.20,26440
838.40,26580
837.60,25750
836.80,26180
836.00,26800
835.20,26050
834.40,26050
833.60,26770
832.80,25840
832.00,26440
831.20,25980
830.40,26470
829.60,26900
828.80,25660
828.00,26480
827.20,25830
826.40,27200
825.60,26240
824.80,27380
824.00,26380
823.20,27240
822.40,26480
821.60,25810
820.80,26630
820.00,26170
819.20,26640
818.40,27540
817.60,26850
816.80,26820
816.00,26800
815.20,26640
814.40,26740
813.60,27360
812.80,26380
812.00,26410
811.20,26830
810.40,27690
809.60,26630
808.80,27800
808.00,27790
807.20,27010
806.40,26470
805.60,27460
804.80,27060
804.00,27910
803.20,27710
802.40,27270
801.60,27410
800.80,26200
800.00,27460
799.20,26470
798.40,28070
797.60,26300
796.80,26430
796.00,28020
795.20,27800
794.40,27190
793.60,27340
792.80,28050
792.00,26880
791.20,27300
790.40,26910
789.60,28500
788.80,27340
788.00,27590
787.20,28240
786.40,27920
785.60,28210
784.80,28120
784.00,27780
783.20,27140
782.40,27670
781.60,28130
780.80,27570
780.00,28720
779.20,27880
778.40,28160
777.60,28640
776.80,28140
776.00,28910
775.20,28570
774.40,29490
773.60,29160
772.80,28990
772.00,29670
771.20,29300
770.40,28600
769.60,29100
768.80,28680
768.00,27240
767.20,26380
766.40,27130
765.60,26290
764.80,25470
764.00,25670
763.20,25310
762.40,25560
761.60,23890
760.80,25900
760.00,25100
759.20,25980
758.40,24280
757.60,25850
756.80,25090
756.00,24460
755.20,24750
754.40,25560
753.60,25170
752.80,24990
752.00,24500
751.20,25310
750.40,25060
749.60,25110
748.80,25640
748.00,26240
747.20,25030
746.40,26360
745.60,25320
744.80,25390
744.00,25050
743.20,25670
742.40,25340
741.60,25820
740.80,25470
740.00,25250
739.20,24740
738.40,25710
737.60,24630
736.80,25100
736.00,25420
735.20,26330
734.40,24620
733.60,25920
732.80,25990
732.00,24750
731.20,25780
730.40,25260
729.60,25220
728.80,24890
728.00,25880
727.20,25410
726.40,25800
725.60,26120
724.80,25870
724.00,25850
723.20,25820
722.40,26280
721.60,26810
720.80,25980
720.00,26580
719.20,25010
718.40,25570
717.60,25470
716.80,26050
716.00,25940
715.20,25760
714.40,26370
713.60,25880
712.80,25410
712.00,26540
711.20,26450
710.40,26510
709.60,26810
708.80,26800
708.00,26430
707.20,26520
706.40,27210
705.60,26690
704.80,25610
704.00,27010
703.20,25760
702.40,27250
701.60,25870
700.80,26640
700.00,25670
699.20,26470
698.40,26880
697.60,26720
696.80,26400
696.00,27080
695.20,27570
694.40,28010
693.60,26710
692.80,26750
692.00,26680
691.20,26480
690.40,27280
689.60,26110
688.80,26750
688.00,27450
687.20,27610
686.40,27180
685.60,27400
684.80,27410
684.00,27500
683.20,27680
682.40,28400
681.60,26850
680.80,28080
680.00,28080
679.20,27610
678.40,27170
677.60,27790
676.80,27470
676.00,26890
675.20,27600
674.40,27360
673.60,26370
672.80,27800
672.00,27930
671.20,28610
670.40,28350
669.60,28380
668.80,27930
668.00,28430
667.20,27730
666.40,28390
665.60,28840
664.80,29110
664.00,27560
663.20,28290
662.40,26420
661.60,26830
660.80,26340
660.00,26560
659.20,27190
658.40,26420
657.60,28780
656.80,29380
656.00,32080
655.20,35400
654.40,36270
653.60,38710
652.80,35250
652.00,29940
651.20,27310
650.40,25580
649.60,23440
648.80,24020
648.00,23170
647.20,23960
646.40,24900
645.60,27390
644.80,30120
644.00,35180
643.20,41020
642.40,43470
641.60,40260
640.80,31290
640.00,22550
639.20,16450
638.40,12970
637.60,12610
636.80,12140
636.00,11600
635.20,11570
634.40,12250
633.60,12250
632.80,11850
632.00,11420
631.20,11480
630.40,11060
629.60,11470
628.80,11240
628.00,10930
627.20,11300
626.40,11170
625.60,11190
624.80,11360
624.00,11020
623.20,11510
622.40,11170
621.60,10830
620.80,10830
620.00,10610
619.20,11200
618.40,10850
617.60,11190
616.80,11430
616.00,10760
615.20,10790
614.40,10930
613.60,11270
612.80,11440
612.00,10850
611.20,11230
610.40,10790
609.60,11810
608.80,10930
608.00,11770
607.20,11810
606.40,11180
605.60,11220
604.80,11610
604.00,11060
603.20,10960
602.40,10710
601.60,11010
600.80,11010
600.00,11330
599.20,10630
598.40,11670
597.60,10970
596.80,11240
596.00,11590
595.20,10910
594.40,11390
593.60,10770
592.80,11540
592.00,12040
591.20,10890
590.40,10910
589.60,11640
588.80,11200
588.00,11780
587.20,11020
586.40,11480
585.60,10930
584.80,11110
584.00,11430
583.20,11500
582.40,11300
581.60,11540
580.80,11240
580.00,11460
579.20,10780
578.40,11530
577.60,11060
576.80,11800
576.00,11230
575.20,11500
574.40,11260
573.60,12100
572.80,11110
572.00,11950
571.20,10950
570.40,11270
569.60,11160
568.80,11220
568.00,10830
567.20,11700
566.40,11520
565.60,11760
564.80,11050
564.00,11230
563.20,11990
562.40,11770
561.60,11390
560.80,12020
560.00,11000
559.20,11780
558.40,11600
557.60,11560
556.80,11620
556.00,11590
555.20,10960
554.40,11460
553.60,11300
552.80,11840
552.00,11420
551.20,11200
550.40,10680
549.60,10810
548.80,10670
548.00,10200
547.20,10720
546.40,10530
545.60,10360
544.80,10950
544.00,10830
543.20,10700
542.40,10810
541.60,11190
540.80,10770
540.00,10770
539.20,10350
538.40,9490
537.60,9570
536.80,9480
536.00,10140
535.20,10050
534.40,10500
533.60,11730
532.80,14030
532.00,19010
531.20,23320
530.40,32090
529.60,33640
528.80,27260
528.00,14730
527.20,8050
526.40,6050
525.60,5730
524.80,5280
524.00,5020
523.20,4680
522.40,4610
521.60,4560
520.80,4640
520.00,4620
519.20,4800
518.40,4260
517.60,4330
516.80,4680
516.00,3930
515.20,4590
514.40,4500
513.60,4420
512.80,4630
512.00,4590
511.20,4680
510.40,4410
509.60,4440
508.80,4190
508.00,4350
507.20,4910
506.40,4760
505.60,4400
504.80,4370
504.00,4240
503.20,4550
502.40,4560
501.60,4710
500.80,4230
500.00,4120
499.20,4640
498.40,4460
497.60,4620
496.80,4770
496.00,4340
495.20,4460
494.40,4520
493.60,4220
492.80,4580
492.00,4330
491.20,4550
490.40,4570
489.60,4380
488.80,4560
488.00,4110
487.20,4470
486.40,4220
485.60,4070
484.80,4460
484.00,4430
483.20,4590
482.40,4600
481.60,4770
480.80,4380
480.00,4480
479.20,4100
478.40,4100
477.60,4280
476.80,4740
476.00,4190
475.20,4660
474.40,4120
473.60,4320
472.80,4140
472.00,4270
471.20,4680
470.40,4620
469.60,4410
468.80,4700
468.00,4170
467.20,4860
466.40,4290
465.60,4260
464.80,4130
464.00,4490
463.20,4450
462.40,4750
461.60,4790
460.80,4700
460.00,4510
459.20,4980
458.40,4530
457.60,5110
456.80,4750
456.00,4650
455.20,4620
454.40,4660
453.60,4190
452.80,4860
452.00,4440
451.20,4670
450.40,4670
449.60,4900
448.80,4810
448.00,4770
447.20,4440
446.40,4400
445.60,4860
444.80,4950
444.00,4780
443.20,4400
442.40,4500
441.60,4660
440.80,4970
440.00,4950
439.20,4740
438.40,4830
437.60,4980
436.80,4790
436.00,4570
435.20,5150
434.40,4830
433.60,4680
432.80,4840
432.00,4450
431.20,4640
430.40,4570
429.60,4710
428.80,4600
428.00,4800
427.20,4660
426.40,4750
425.60,5150
424.80,4840
424.00,4930
423.20,4510
422.40,4490
421.60,4370
420.80,4700
420.00,4920
419.20,5090
418.40,5080
417.60,4910
416.80,5110
416.00,4670
415.20,4880
414.40,4340
413.60,4810
412.80,4960
412.00,4720
411.20,5080
410.40,4980
409.60,4700
408.80,5070
408.00,4660
407.20,4710
406.40,5100
405.60,5260
404.80,5150
404.00,4960
403.20,4670
402.40,4650
401.60,4960
400.80,4750
400.00,5260
399.20,4820
398.40,4990
397.60,4660
396.80,4800
396.00,4420
395.20,4850
394.40,4300
393.60,4910
392.80,4600
392.00,5030
391.20,4880
390.40,4490
389.60,4650
388.80,5130
388.00,5090
387.20,4740
386.40,4950
385.60,4950
384.80,5130
384.00,5480
383.20,5250
382.40,4850
381.60,5120
380.80,4980
380.00,4880
379.20,4460
378.40,5190
377.60,5580
376.80,5450
376.00,5680
375.20,5540
374.40,5310
373.60,4960
372.80,5190
372.00,4820
371.20,4770
370.40,5120
369.60,4720
368.80,4670
368.00,4810
367.20,4890
366.40,4490
365.60,4600
364.80,4780
364.00,4650
363.20,4820
362.40,5280
361.60,5220
360.80,5000
360.00,4970
359.20,4850
358.40,4740
357.60,4970
356.80,4720
356.00,5250
355.20,4610
354.40,4990
353.60,4960
352.80,4980
352.00,4720
351.20,4860
350.40,5470
349.60,5310
348.80,5110
348.00,5240
347.20,5290
346.40,5190
345.60,5100
344.80,4970
344.00,4660
343.20,5400
342.40,4750
341.60,4880
340.80,5040
340.00,4840
339.20,5140
338.40,5510
337.60,4920
336.80,5350
336.00,5150
335.20,5230
334.40,5050
333.60,4880
332.80,4920
332.00,5320
331.20,5270
330.40,4980
329.60,5180
328.80,4880
328.00,5460
327.20,5300
326.40,5620
325.60,5340
324.80,5120
324.00,5650
323.20,5370
322.40,4590
321.60,5330
320.80,5330
320.00,5090
319.20,4870
318.40,5480
317.60,5690
316.80,5120
316.00,5170
315.20,5190
314.40,5570
313.60,5290
312.80,5470
312.00,5310
311.20,5600
310.40,5490
309.60,5060
308.80,5080
308.00,4990
307.20,5080
306.40,5280
305.60,5400
304.80,4990
304.00,5520
303.20,5350
302.40,5490
301.60,4950
300.80,5080
300.00,5110
299.20,4680
298.40,4520
297.60,4710
296.80,5020
296.00,5850
295.20,5430
294.40,6010
293.60,5950
292.80,6360
292.00,6970
291.20,6900
290.40,6100
289.60,5340
288.80,5050
288.00,5780
287.20,5910
286.40,7970
285.60,10230
284.80,12970
284.00,11690
283.20,7720
282.40,4910
281.60,4020
280.80,4060
280.00,4050
279.20,3800
278.40,3730
277.60,3970
276.80,4100
276.00,3910
275.20,3700
274.40,4040
273.60,3460
272.80,3640
272.00,3780
271.20,3510
270.40,3910
269.60,3800
268.80,3590
268.00,4090
267.20,3640
266.40,3820
265.60,3870
264.80,3820
264.00,3730
263.20,3860
262.40,3490
261.60,3640
260.80,3620
260.00,3970
259.20,3700
258.40,3680
257.60,3840
256.80,3750
256.00,4010
255.20,3510
254.40,3540
253.60,3500
252.80,3700
252.00,4020
251.20,3520
250.40,3760
249.60,3820
248.80,3770
248.00,3880
247.20,3680
246.40,3880
245.60,3950
244.80,3960
244.00,3650
243.20,4030
242.40,3730
241.60,3990
240.80,3560
240.00,3960
239.20,4070
238.40,3890
237.60,3590
236.80,3850
236.00,3790
235.20,4260
234.40,4160
233.60,3990
232.80,3750
232.00,4030
231.20,3830
230.40,3820
229.60,3820
228.80,3760
228.00,3990
227.20,4150
226.40,3900
225.60,3890
224.80,3880
224.00,3860
223.20,3900
222.40,3920
221.60,4090
220.80,4020
220.00,4190
219.20,4200
218.40,3690
217.60,3730
216.80,4070
216.00,3770
215.20,4280
214.40,3660
213.60,3680
212.80,4470
212.00,3450
211.20,4350
210.40,4050
209.60,3880
208.80,3790
208.00,3870
207.20,3950
206.40,3820
205.60,4120
204.80,3970
204.00,3880
203.20,4230
202.40,3850
201.60,3710
200.80,4060
200.00,4010
199.20,3880
198.40,4110
197.60,4210
196.80,3880
196.00,3990
195.20,4320
194.40,3890
193.60,3790
192.80,3940
192.00,4060
191.20,4020
190.40,4440
189.60,4080
188.80,3940
188.00,3790
187.20,4090
186.40,3910
185.60,4200
184.80,3940
184.00,4420
183.20,4030
182.40,4130
181.60,4180
180.80,3940
180.00,3690
179.20,4060
178.40,4080
177.60,3940
176.80,3930
176.00,3700
175.20,3970
174.40,4040
173.60,4510
172.80,3990
172.00,3540
171.20,4060
170.40,4110
169.60,4060
168.80,4250
168.00,4270
167.20,4310
166.40,4300
165.60,4370
164.80,4390
164.00,4030
163.20,4340
162.40,4030
161.60,4460
160.80,4370
160.00,4670
159.20,4060
158.40,4440
157.60,4430
156.80,4280
156.00,3930
155.20,3640
154.40,4380
153.60,4480
152.80,4480
152.00,4590
151.20,4240
150.40,4170
149.60,4300
148.80,4170
148.00,4170
147.20,4140
146.40,3990
145.60,4000
144.80,4200
144.00,4030
143.20,4420
142.40,4170
141.60,4300
140.80,4330
140.00,4510
139.20,3710
138.40,4250
137.60,4200
136.80,4640
136.00,4030
135.20,4100
134.40,4650
133.60,4510
132.80,4450
132.00,4730
131.20,4510
130.40,4060
129.60,4580
128.80,4120
128.00,4320
127.20,4900
126.40,4520
125.60,4770
124.80,4750
124.00,4650
123.20,4250
122.40,4230
121.60,4330
120.80,4330
120.00,4500
119.20,4470
118.40,4680
117.60,4340
116.80,4600
116.00,4690
115.20,4390
114.40,4490
113.60,4460
112.80,4240
112.00,4410
111.20,4330
110.40,4380
109.60,4500
108.80,4680
108.00,4660
107.20,4790
106.40,4590
105.60,4460
104.80,4770
104.00,4180
103.20,4760
102.40,4620
101.60,5030
100.80,4670
100.00,4850
99.20,4400
98.40,4860
97.60,4310
96.80,4400
96.00,4250
95.20,4340
94.40,4690
93.60,4450
92.80,5150
92.00,4610
91.20,5230
90.40,4970
89.60,5020
88.80,5380
88.00,5370
87.20,5390
86.40,5200
85.60,5580
84.80,5700
84.00,5950
83.20,5470
82.40,5120
81.60,4610
80.80,4390
80.00,4400
79.20,3480
78.40,3960
77.60,3940
76.80,3720
76.00,4000
75.20,3850
74.40,3910
73.60,4260
72.80,3960
72.00,3620
71.20,3950
70.40,3670
69.60,3940
68.80,4250
68.00,3820
67.20,3530
66.40,3880
65.60,3900
64.80,3960
64.00,4210
63.20,4090
62.40,4190
61.60,4310
60.80,3520
60.00,3800
59.20,3920
58.40,3710
57.60,3600
56.80,3750
56.00,3360
55.20,3500
54.40,3930
53.60,4010
52.80,4500
52.00,4720
51.20,6590
50.40,7290
49.60,8160
48.80,7600
48.00,5080
47.20,4000
46.40,2080
45.60,1700
44.80,1430
44.00,1320
43.20,1390
42.40,1090
41.60,1120
40.80,1200
40.00,1170
39.20,1070
38.40,1170
37.60,1130
36.80,1020
36.00,910.0000
35.20,1190
34.40,1000
33.60,1020
32.80,1160
32.00,1370
31.20,1270
30.40,1230
29.60,1100
28.80,1010
28.00,1140
27.20,1120
26.40,1240
25.60,1380
24.80,1280
24.00,1480
23.20,1550
22.40,1960
21.60,2230
20.80,1930
20.00,1670
19.20,1050
18.40,870.0000
17.60,810.0000
16.80,970.0000
16.00,1180
15.20,1000
14.40,900.0000
13.60,760.0000
12.80,840.0000
12.00,560.0000
11.20,710.0000
10.40,700.0000
9.60,710.0000
8.80,670.0000
8.00,1020
7.20,1110
6.40,1180
5.60,1300
4.80,1500
4.00,1300
3.20,1250
2.40,790.0000
1.60,700.0000
0.80,270.0000
0.00,200.0000