File: ACS_Catal_2026/Figures_Na_K/main_figures/data/EC/20251112_2-148_alpha_reproducibility/20251112_2-148_004_Na_first_2_Na1_02_PEIS_C02.mpt
EC-Lab ASCII FILE
Nb header lines : 63

Potentio Electrochemical Impedance Spectroscopy

Run on channel : 2 (SN 69290)
User :
CE vs. WE compliance from -10 V to 10 V
Electrode connection : standard
Potential control : Ewe
Ewe ctrl range : min = -1.00 V, max = 1.00 V
Safety Limits :
	Do not start on E overload
Acquisition started on : 11/12/2025 15:49:31.265
Loaded Setting File :  C:\Users\User\Documents\EC-Lab\Data\Yatsuzuka\20251112_2-148_alpha_reproducibility\20251112_2-148_002_alpha_reproducibility_2_K1.mps
Saved on :
	File : 20251112_2-148_004_Na_first_2_Na1_02_PEIS_C02.mpr
	Directory : C:\Users\User\Documents\EC-Lab\Data\Yatsuzuka\20251112_2-148_alpha_reproducibility\
	Host : 192.109.209.127
Device : SP-150e (SN .003883)
Address : 192.109.209.128
EC-Lab for windows v11.52 (software)
Internet server v11.52 (firmware)
Command interpretor v11.50 (firmware)
Electrode material :
Initial state :
Electrolyte :
Comments :
Electrode surface area : 0.001 cm2
Characteristic mass : 0.001 g
Equivalent Weight : 0.000 g/eq.
Density : 0.000 g/cm3
Volume (V) : 0.001 cm3
Cycle Definition : Charge/Discharge alternance
Mode                Single sine
E (V)               0.4500
vs.                 Ref
tE (h:m:s)          0:00:0.0000
record              0
dI                  0.000
unit dI             mA
dt (s)              0.000
fi                  500.000
unit fi             kHz
ff                  1.000
unit ff             Hz
Nd                  6
Points              per decade
spacing             Logarithmic
Va (mV)             10.0
pw                  0.10
Na                  2
corr                0
E range min (V)     -1.000
E range max (V)     1.000
I Range             Auto
Bandwidth           5
nc cycles           0
goto Ns'            0
nr cycles           0
inc. cycle          0

freq/Hz	Re(Z)/Ohm	-Im(Z)/Ohm	|Z|/Ohm	Phase(Z)/deg	time/s	<Ewe>/V	<I>/mA	Cs/uF	Cp/uF	cycle number	I Range	|Ewe|/V	|I|/A	Ns	(Q-Qo)/mA.h	Re(Y)/Ohm-1	Im(Y)/Ohm-1	|Y|/Ohm-1	Phase(Y)/deg	Re(C)/nF	Im(C)/nF	|C|/nF	Phase(C)/deg	Re(M)	Im(M)	|M|	Phase(M)/deg	Re(Permittivity)	Im(Permittivity)	|Permittivity|	Phase(Permittivity)/deg	Re(Resistivity)/Ohm.cm	Im(Resistivity)/Ohm.cm	|Resistivity|/Ohm.cm	Phase(Resistivity)/deg	Re(Conductivity)/mS/cm	Im(Conductivity)/mS/cm	|Conductivity|/mS/cm	Phase(Conductivity)/deg	Tan(Delta)	Loss Angle(Delta)/deg	dq/mA.h
500019	13.4587	-4.1099	14.0723	16.9811	201.614	0.449781	0.024172	-0.0774467	-0.00660598	1	10	0.00457658	0.00032522	0	3.56354e-05	0.0679635	-0.0207541	0.0710618	-16.9811	-6.60598	21.6327	22.6188	-106.981	0.0000000E+000	0.0000000E+000	0.0000000E+000	106.981	0.0000000E+000	0.0000000E+000	0.0000000E+000	-106.981	0.0000000E+000	0.0000000E+000	0.0000000E+000	16.9811	0.0000000E+000	0.0000000E+000	0.0000000E+000	-16.9811	3.27471	73.0189	3.56354e-05
339899	8.88881	-2.36072	9.19695	14.8735	202.036	0.44969	0.0221509	-0.198346	-0.0130685	1	10	0.00684076	0.000743807	0	3.8889e-05	0.105089	-0.0279099	0.108732	-14.8735	-13.0685	49.2068	50.9127	-104.873	0.0000000E+000	0.0000000E+000	0.0000000E+000	104.873	0.0000000E+000	0.0000000E+000	0.0000000E+000	-104.873	0.0000000E+000	0.0000000E+000	0.0000000E+000	14.8735	0.0000000E+000	0.0000000E+000	0.0000000E+000	-14.8735	3.76529	75.1265	3.25358e-06
231063	7.35399	-1.2666	7.46227	9.77236	202.458	0.449554	0.0236313	-0.543814	-0.0156671	1	10	0.0100595	0.00134805	0	3.89197e-05	0.132063	-0.0227457	0.134008	-9.77236	-15.6671	90.9645	92.3039	-99.7724	0.0000000E+000	0.0000000E+000	0.0000000E+000	99.7724	0.0000000E+000	0.0000000E+000	0.0000000E+000	-99.7724	0.0000000E+000	0.0000000E+000	0.0000000E+000	9.77236	0.0000000E+000	0.0000000E+000	0.0000000E+000	-9.77236	5.80608	80.2276	3.06839e-08
157076	6.86945	-0.644118	6.89959	5.35671	202.88	0.449521	0.0269427	-1.57306	-0.0137098	1	10	0.0108684	0.00157522	0	4.05451e-05	0.144303	-0.0135307	0.144936	-5.35671	-13.7098	146.213	146.855	-95.3567	0.0000000E+000	0.0000000E+000	0.0000000E+000	95.3567	0.0000000E+000	0.0000000E+000	0.0000000E+000	-95.3567	0.0000000E+000	0.0000000E+000	0.0000000E+000	5.35671	0.0000000E+000	0.0000000E+000	0.0000000E+000	-5.35671	10.6649	84.6433	1.62539e-06
106786	6.7438	-0.339816	6.75235	2.88466	203.302	0.449538	0.0278936	-4.38593	-0.011108	1	10	0.0108637	0.00160888	0	4.59645e-05	0.147909	-0.00745303	0.148097	-2.88466	-11.108	220.444	220.724	-92.8847	0.0000000E+000	0.0000000E+000	0.0000000E+000	92.8847	0.0000000E+000	0.0000000E+000	0.0000000E+000	-92.8847	0.0000000E+000	0.0000000E+000	0.0000000E+000	2.88466	0.0000000E+000	0.0000000E+000	0.0000000E+000	-2.88466	19.8455	87.1153	5.41942e-06
72595	6.71204	-0.188193	6.71468	1.60605	203.724	0.449542	0.0248041	-11.6496	-0.00915096	1	10	0.0106902	0.00159206	0	4.8122e-05	0.148869	-0.00417401	0.148927	-1.60605	-9.15097	326.375	326.504	-91.606	0.0000000E+000	0.0000000E+000	0.0000000E+000	91.606	0.0000000E+000	0.0000000E+000	0.0000000E+000	-91.606	0.0000000E+000	0.0000000E+000	0.0000000E+000	1.60605	0.0000000E+000	0.0000000E+000	0.0000000E+000	-1.60605	35.6657	88.394	2.1575e-06
49352.4	6.70116	-0.113212	6.70212	0.967882	204.147	0.449553	0.0215263	-28.4853	-0.00812791	1	10	0.0105921	0.00158041	0	4.98625e-05	0.149185	-0.00252039	0.149207	-0.967882	-8.1279	481.103	481.172	-90.9679	0.0000000E+000	0.0000000E+000	0.0000000E+000	90.9679	0.0000000E+000	0.0000000E+000	0.0000000E+000	-90.9679	0.0000000E+000	0.0000000E+000	0.0000000E+000	0.967882	0.0000000E+000	0.0000000E+000	0.0000000E+000	-0.967882	59.1915	89.0321	1.74054e-06
33551.1	6.6933	-0.0714578	6.69368	0.611667	204.57	0.449547	0.0204952	-66.3841	-0.00756542	1	10	0.0105256	0.00157247	0	5.37541e-05	0.149386	-0.00159485	0.149395	-0.611667	-7.56538	708.637	708.677	-90.6117	0.0000000E+000	0.0000000E+000	0.0000000E+000	90.6117	0.0000000E+000	0.0000000E+000	0.0000000E+000	-90.6117	0.0000000E+000	0.0000000E+000	0.0000000E+000	0.611667	0.0000000E+000	0.0000000E+000	0.0000000E+000	-0.611667	93.6679	89.3883	3.89158e-06
22806.6	6.69651	-0.0427195	6.69665	0.365506	204.992	0.449556	0.023898	-163.356	-0.0066477	1	10	0.010529	0.00157227	0	5.49752e-05	0.149325	-0.000952601	0.149328	-0.365506	-6.64776	1042.06	1042.08	-90.3655	0.0000000E+000	0.0000000E+000	0.0000000E+000	90.3655	0.0000000E+000	0.0000000E+000	0.0000000E+000	-90.3655	0.0000000E+000	0.0000000E+000	0.0000000E+000	0.365506	0.0000000E+000	0.0000000E+000	0.0000000E+000	-0.365506	156.755	89.6345	1.2211e-06
15504.4	6.69641	-0.0206518	6.69644	0.1767	205.414	0.449556	0.0267525	-497.058	-0.00472755	1	10	0.0104493	0.00156043	0	6.02129e-05	0.149332	-0.000460543	0.149333	-0.1767	-4.72745	1532.92	1532.93	-90.1767	0.0000000E+000	0.0000000E+000	0.0000000E+000	90.1767	0.0000000E+000	0.0000000E+000	0.0000000E+000	-90.1767	0.0000000E+000	0.0000000E+000	0.0000000E+000	0.1767	0.0000000E+000	0.0000000E+000	0.0000000E+000	-0.1767	324.253	89.8233	5.23773e-06
10540.4	6.68531	-0.00940172	6.68531	0.0805765	205.836	0.449558	0.0257923	-1606.04	-0.00317634	1	10	0.0103843	0.0015533	0	6.10825e-05	0.149581	-0.00021036	0.149582	-0.0805765	-3.17625	2258.61	2258.61	-90.0806	0.0000000E+000	0.0000000E+000	0.0000000E+000	90.0806	0.0000000E+000	0.0000000E+000	0.0000000E+000	-90.0806	0.0000000E+000	0.0000000E+000	0.0000000E+000	0.0805765	0.0000000E+000	0.0000000E+000	0.0000000E+000	-0.0805765	711.073	89.9194	8.69549e-07
7163.78	6.69419	0.00350013	6.69419	-0.0299577	206.36	0.449535	0.0204784	6347.36	0.00173527	1	10	0.0102762	0.00153509	0	6.54878e-05	0.149383	7.81067e-05	0.149383	0.0299577	1.73543	3318.79	3318.79	-89.97	0.0000000E+000	0.0000000E+000	0.0000000E+000	89.97	0.0000000E+000	0.0000000E+000	0.0000000E+000	-89.97	0.0000000E+000	0.0000000E+000	0.0000000E+000	-0.0299577	0.0000000E+000	0.0000000E+000	0.0000000E+000	0.0299577	1912.55	89.97	4.40526e-06
4871.56	6.69906	0.00878776	6.69907	-0.0751599	207.049	0.449542	0.0220465	3717.7	0.00639737	1	10	0.0101181	0.00151037	0	7.28615e-05	0.149274	0.000195816	0.149275	0.0751599	6.39713	4876.83	4876.83	-89.9248	0.0000000E+000	0.0000000E+000	0.0000000E+000	89.9248	0.0000000E+000	0.0000000E+000	0.0000000E+000	-89.9248	0.0000000E+000	0.0000000E+000	0.0000000E+000	-0.0751599	0.0000000E+000	0.0000000E+000	0.0000000E+000	0.0751599	762.318	89.9248	7.3738e-06
3311.06	6.70112	0.029673	6.70119	-0.253707	207.514	0.449545	0.0225015	1619.92	0.0317622	1	10	0.0108881	0.0016248	0	7.60676e-05	0.149226	0.000660781	0.149227	0.253707	31.7623	7172.94	7173.01	-89.7463	0.0000000E+000	0.0000000E+000	0.0000000E+000	89.7463	0.0000000E+000	0.0000000E+000	0.0000000E+000	-89.7463	0.0000000E+000	0.0000000E+000	0.0000000E+000	-0.253707	0.0000000E+000	0.0000000E+000	0.0000000E+000	0.253707	225.833	89.7463	3.20603e-06
2250.72	6.70568	0.0447149	6.70582	-0.382055	208.201	0.449551	0.0224884	1581.42	0.0703148	1	10	0.0101369	0.00151166	0	8.02294e-05	0.149121	0.00099437	0.149124	0.382055	70.3151	10544.8	10545	-89.6179	0.0000000E+000	0.0000000E+000	0.0000000E+000	89.6179	0.0000000E+000	0.0000000E+000	0.0000000E+000	-89.6179	0.0000000E+000	0.0000000E+000	0.0000000E+000	-0.382055	0.0000000E+000	0.0000000E+000	0.0000000E+000	0.382055	149.965	89.6179	4.16185e-06
1530.49	6.70999	0.0584449	6.71025	-0.499041	208.666	0.449547	0.02142	1779.27	0.134977	1	10	0.0103335	0.00153996	0	8.39749e-05	0.14902	0.00129798	0.149026	0.499041	134.976	15496.5	15497.1	-89.501	0.0000000E+000	0.0000000E+000	0.0000000E+000	89.501	0.0000000E+000	0.0000000E+000	0.0000000E+000	-89.501	0.0000000E+000	0.0000000E+000	0.0000000E+000	-0.499041	0.0000000E+000	0.0000000E+000	0.0000000E+000	0.499041	114.809	89.501	3.74544e-06
1040.33	6.71089	0.0847434	6.71142	-0.723478	209.131	0.449544	0.0234896	1805.27	0.287822	1	10	0.0104226	0.00155297	0	8.63942e-05	0.148988	0.00188138	0.149	0.723478	287.823	22792.8	22794.7	-89.2765	0.0000000E+000	0.0000000E+000	0.0000000E+000	89.2765	0.0000000E+000	0.0000000E+000	0.0000000E+000	-89.2765	0.0000000E+000	0.0000000E+000	0.0000000E+000	-0.723478	0.0000000E+000	0.0000000E+000	0.0000000E+000	0.723478	79.1907	89.2765	2.41935e-06
707.036	6.72049	0.127198	6.7217	-1.0843	209.596	0.449544	0.0201633	1769.69	0.633725	1	10	0.0104742	0.00155827	0	9.00045e-05	0.148745	0.00281529	0.148772	1.0843	633.727	33482.8	33488.8	-88.9157	0.0000000E+000	0.0000000E+000	0.0000000E+000	88.9157	0.0000000E+000	0.0000000E+000	0.0000000E+000	-88.9157	0.0000000E+000	0.0000000E+000	0.0000000E+000	-1.0843	0.0000000E+000	0.0000000E+000	0.0000000E+000	1.0843	52.8349	88.9157	3.61028e-06
480.769	6.73425	0.175533	6.73654	-1.49311	210.061	0.449542	0.0225052	1885.93	1.28047	1	10	0.0105062	0.00155958	0	9.3069e-05	0.148394	0.00386798	0.148444	1.49311	1280.46	49124.6	49141.3	-88.5069	0.0000000E+000	0.0000000E+000	0.0000000E+000	88.5069	0.0000000E+000	0.0000000E+000	0.0000000E+000	-88.5069	0.0000000E+000	0.0000000E+000	0.0000000E+000	-1.49311	0.0000000E+000	0.0000000E+000	0.0000000E+000	1.49311	38.3647	88.5069	3.06452e-06
326.778	6.74097	0.254973	6.7458	-2.16614	210.524	0.449538	0.0209371	1910.18	2.72894	1	10	0.0105106	0.00155809	0	9.67202e-05	0.148135	0.00560308	0.14824	2.16614	2728.94	72148	72199.6	-87.8339	0.0000000E+000	0.0000000E+000	0.0000000E+000	87.8339	0.0000000E+000	0.0000000E+000	0.0000000E+000	-87.8339	0.0000000E+000	0.0000000E+000	0.0000000E+000	-2.16614	0.0000000E+000	0.0000000E+000	0.0000000E+000	2.16614	26.438	87.8339	3.65119e-06
222.061	6.75202	0.357714	6.76149	-3.03262	210.985	0.449548	0.02131	2003.61	5.60788	1	10	0.0105151	0.00155514	0	9.77972e-05	0.147689	0.00782439	0.147896	3.03262	5607.88	105852	106000	-86.9674	0.0000000E+000	0.0000000E+000	0.0000000E+000	86.9674	0.0000000E+000	0.0000000E+000	0.0000000E+000	-86.9674	0.0000000E+000	0.0000000E+000	0.0000000E+000	-3.03262	0.0000000E+000	0.0000000E+000	0.0000000E+000	3.03262	18.8755	86.9674	1.07703e-06
151.015	6.77499	0.500565	6.79345	-4.22558	211.447	0.449544	0.0224847	2105.43	11.4309	1	10	0.0105234	0.00154906	0	0.000100987	0.1468	0.0108462	0.147201	4.22558	11430.9	154713	155135	-85.7744	0.0000000E+000	0.0000000E+000	0.0000000E+000	85.7744	0.0000000E+000	0.0000000E+000	0.0000000E+000	-85.7744	0.0000000E+000	0.0000000E+000	0.0000000E+000	-4.22558	0.0000000E+000	0.0000000E+000	0.0000000E+000	4.22558	13.5347	85.7744	3.18961e-06
102.667	6.79761	0.711084	6.8347	-5.97188	211.922	0.449542	0.020581	2180.05	23.5977	1	10	0.0105239	0.00153977	0	0.000104153	0.145518	0.0152224	0.146312	5.97188	23597.7	225582	226813	-84.0281	0.0000000E+000	0.0000000E+000	0.0000000E+000	84.0281	0.0000000E+000	0.0000000E+000	0.0000000E+000	-84.0281	0.0000000E+000	0.0000000E+000	0.0000000E+000	-5.97188	0.0000000E+000	0.0000000E+000	0.0000000E+000	5.97188	9.5595	84.0281	3.16659e-06
69.7545	6.83521	1.01037	6.90948	-8.40844	212.389	0.449539	0.0231391	2258.24	48.2876	1	10	0.0105308	0.0015241	0	0.000106429	0.143173	0.0211635	0.144729	8.40844	48287.6	326670	330219	-81.5916	0.0000000E+000	0.0000000E+000	0.0000000E+000	81.5916	0.0000000E+000	0.0000000E+000	0.0000000E+000	-81.5916	0.0000000E+000	0.0000000E+000	0.0000000E+000	-8.40844	0.0000000E+000	0.0000000E+000	0.0000000E+000	8.40844	6.76509	81.5916	2.2756e-06
47.4443	6.87991	1.44969	7.03099	-11.8989	212.833	0.449536	0.0208886	2313.99	98.3735	1	10	0.0105347	0.00149832	0	0.00010931	0.139171	0.0293253	0.142228	11.8989	98373.6	466859	477111	-78.1011	0.0000000E+000	0.0000000E+000	0.0000000E+000	78.1011	0.0000000E+000	0.0000000E+000	0.0000000E+000	-78.1011	0.0000000E+000	0.0000000E+000	0.0000000E+000	-11.8989	0.0000000E+000	0.0000000E+000	0.0000000E+000	11.8989	4.74578	78.1011	2.8807e-06
32.2387	6.93531	2.04664	7.231	-16.4415	213.27	0.449529	0.0195648	2412.14	193.236	1	10	0.0105436	0.00145812	0	0.000112466	0.132639	0.0391422	0.138294	16.4415	193236	654807	682724	-73.5585	0.0000000E+000	0.0000000E+000	0.0000000E+000	73.5585	0.0000000E+000	0.0000000E+000	0.0000000E+000	-73.5585	0.0000000E+000	0.0000000E+000	0.0000000E+000	-16.4415	0.0000000E+000	0.0000000E+000	0.0000000E+000	16.4415	3.38864	73.5585	3.15591e-06
21.9144	6.98999	2.95314	7.58822	-22.9031	213.701	0.449532	0.0201279	2459.27	372.472	1	10	0.010551	0.00139044	0	0.000115901	0.121394	0.0512866	0.131783	22.9031	372472	881631	957084	-67.0969	0.0000000E+000	0.0000000E+000	0.0000000E+000	67.0969	0.0000000E+000	0.0000000E+000	0.0000000E+000	-67.0969	0.0000000E+000	0.0000000E+000	0.0000000E+000	-22.9031	0.0000000E+000	0.0000000E+000	0.0000000E+000	22.9031	2.36697	67.0969	3.43511e-06
14.9093	7.10392	4.31425	8.31135	-31.2705	214.171	0.449545	0.0205474	2474.32	666.69	1	10	0.0105593	0.00127046	0	0.000117602	0.102838	0.0624543	0.120317	31.2705	666690	1.09778e+06	1.28437e+06	-58.7295	0.0000000E+000	0.0000000E+000	0.0000000E+000	58.7295	0.0000000E+000	0.0000000E+000	0.0000000E+000	-58.7295	0.0000000E+000	0.0000000E+000	0.0000000E+000	-31.2705	0.0000000E+000	0.0000000E+000	0.0000000E+000	31.2705	1.64662	58.7295	1.70114e-06
10.1329	7.22448	6.18547	9.51068	-40.5696	214.63	0.449538	0.0218078	2539.29	1074.07	1	10	0.0105638	0.00111073	0	0.000112637	0.0798699	0.0683832	0.105145	40.5696	1.07407e+06	1.25449e+06	1.65148e+06	-49.4304	0.0000000E+000	0.0000000E+000	0.0000000E+000	49.4304	0.0000000E+000	0.0000000E+000	0.0000000E+000	-49.4304	0.0000000E+000	0.0000000E+000	0.0000000E+000	-40.5696	0.0000000E+000	0.0000000E+000	0.0000000E+000	40.5696	1.16798	49.4304	-4.96496e-06
6.88933	7.34586	8.87924	11.524	-50.3988	215.183	0.449543	0.00453005	2601.76	1544.59	1	11	0.0105824	0.000918296	0	0.00011287	0.0553141	0.0668605	0.0867754	50.3988	1.54459e+06	1.27785e+06	2.00466e+06	-39.6012	0.0000000E+000	0.0000000E+000	0.0000000E+000	39.6012	0.0000000E+000	0.0000000E+000	0.0000000E+000	-39.6012	0.0000000E+000	0.0000000E+000	0.0000000E+000	-50.3988	0.0000000E+000	0.0000000E+000	0.0000000E+000	50.3988	0.827307	39.6012	2.33152e-07
4.68375	7.57157	12.9406	14.9929	-59.668	215.68	0.449558	0.00544048	2625.87	1956.18	1	11	0.0105781	0.000705541	0	0.00012001	0.0336833	0.0575682	0.0666983	59.668	1.95618e+06	1.14457e+06	2.26642e+06	-30.332	0.0000000E+000	0.0000000E+000	0.0000000E+000	30.332	0.0000000E+000	0.0000000E+000	0.0000000E+000	-30.332	0.0000000E+000	0.0000000E+000	0.0000000E+000	-59.668	0.0000000E+000	0.0000000E+000	0.0000000E+000	59.668	0.585103	30.332	7.14007e-06
3.18099	7.87879	18.7358	20.325	-67.1923	216.382	0.449553	0.00546897	2670.46	2269.18	1	11	0.0105791	0.000520495	0	0.00012543	0.0190721	0.0453535	0.0492005	67.1923	2.26918e+06	954237	2.46166e+06	-22.8077	0.0000000E+000	0.0000000E+000	0.0000000E+000	22.8077	0.0000000E+000	0.0000000E+000	0.0000000E+000	-22.8077	0.0000000E+000	0.0000000E+000	0.0000000E+000	-67.1923	0.0000000E+000	0.0000000E+000	0.0000000E+000	67.1923	0.42052	22.8077	5.41959e-06
2.16533	8.182	27.2735	28.4743	-73.3008	217.393	0.449559	0.0065961	2694.98	2472.46	1	11	0.0105795	0.000371546	0	0.000120098	0.0100914	0.0336383	0.0351194	73.3008	2.47246e+06	741735	2.58133e+06	-16.6992	0.0000000E+000	0.0000000E+000	0.0000000E+000	16.6992	0.0000000E+000	0.0000000E+000	0.0000000E+000	-16.6992	0.0000000E+000	0.0000000E+000	0.0000000E+000	-73.3008	0.0000000E+000	0.0000000E+000	0.0000000E+000	73.3008	0.299998	16.6992	-5.33157e-06
1.46962	8.78232	39.7775	40.7354	-77.5496	219.593	0.449564	0.00449294	2722.56	2596.02	1	12	0.0105819	0.000259772	0	0.0001176	0.00529254	0.0239713	0.0245486	77.5496	2.59602e+06	573165	2.65854e+06	-12.4504	0.0000000E+000	0.0000000E+000	0.0000000E+000	12.4504	0.0000000E+000	0.0000000E+000	0.0000000E+000	-12.4504	0.0000000E+000	0.0000000E+000	0.0000000E+000	-77.5496	0.0000000E+000	0.0000000E+000	0.0000000E+000	77.5496	0.220786	12.4504	-2.4985e-06
1.00006	9.70894	57.9344	58.7423	-80.4865	221.733	0.449564	0.0044477	2746.98	2671.94	1	12	0.0105819	0.000180141	0	0.000123992	0.00281365	0.0167894	0.0170235	80.4865	2.67194e+06	447777	2.7092e+06	-9.51351	0.0000000E+000	0.0000000E+000	0.0000000E+000	9.51351	0.0000000E+000	0.0000000E+000	0.0000000E+000	-9.51351	0.0000000E+000	0.0000000E+000	0.0000000E+000	-80.4865	0.0000000E+000	0.0000000E+000	0.0000000E+000	80.4865	0.167585	9.51352	6.39281e-06