File: ACS_Catal_2026/Figures_Na_K/main_figures/data/EC/20251112_2-148_alpha_reproducibility/20251112_2-148_006_gamma_reproducibility_2_Na2_stopped_01_CVA_C02.mpt
EC-Lab ASCII FILE
Nb header lines : 66

Cyclic Voltammetry Advanced

Run on channel : 2 (SN 69290)
User :
CE vs. WE compliance from -10 V to 10 V
Electrode connection : standard
Potential control : Ewe
Ewe ctrl range : min = -1.00 V, max = 1.00 V
Safety Limits :
	Do not start on E overload
Acquisition started on : 11/12/2025 20:59:02.055
Loaded Setting File :  C:\Users\User\Documents\EC-Lab\Data\Yatsuzuka\20251112_2-148_alpha_reproducibility\20251112_2-148_002_alpha_reproducibility_2_K1.mps
Saved on :
	File : 20251112_2-148_006_gamma_reproducibility_2_Na2_01_CVA_C02.mpr
	Directory : C:\Users\User\Documents\EC-Lab\Data\Yatsuzuka\20251112_2-148_alpha_reproducibility\
	Host : 192.109.209.127
Device : SP-150e (SN .003883)
Address : 192.109.209.128
EC-Lab for windows v11.52 (software)
Internet server v11.52 (firmware)
Command interpretor v11.50 (firmware)
Electrode material :
Initial state :
Electrolyte :
Comments :
Electrode surface area : 0.001 cm2
Characteristic mass : 0.001 g
Equivalent Weight : 0.000 g/eq.
Density : 0.000 g/cm3
Volume (V) : 0.001 cm3
Cycle Definition : Charge/Discharge alternance
Ei (V)              0.350
vs.                 Ref
ti (h:m:s)          0:00:10.0000
dti (s)             0.0000
dE/dt               10.000
dE/dt unit          mV/s
E1 (V)              0.450
vs.                 Ref
t1 (h:m:s)          0:00:0.0000
dt1 (s)             0.1000
Step percent        50
N                   10
E range min (V)     -1.000
E range max (V)     1.000
I Range             Auto
I Range min         Unset
I Range max         Unset
I Range init        Unset
Bandwidth           5
E2 (V)              0.350
vs.                 Ref
t2 (h:m:s)          0:00:0.0000
dt2 (s)             0.1000
nc cycles           9
nr                  1
Reverse Scan        0
Ef (V)              0.000
vs.                 Eoc
tf (h:m:s)          0:00:0.0000
dtf (s)             0.1000

mode	ox/red	error	control changes	Ns changes	counter inc.	time/s	control/V	Ewe/V	<I>/mA	cycle number	(Q-Qo)/C	I Range	Ns	step time/s	P/W
2	1	0	1	0	0	0.000000000000000E+000	0.349989	0.352376	23.2962	1	0.0000000E+000	9	0	0.000000000000000E+000	0.00820903
2	1	0	1	0	0	0.0775	0.350763	0.349828	3.89264	1	-0.000111806	9	0	0.000000000000000E+000	0.00136176
2	1	0	1	0	0	0.1774	0.351763	0.351249	3.61133	1	-7.44247e-05	9	0	0.000000000000000E+000	0.00126848
2	1	0	1	0	0	0.2773	0.352761	0.352318	3.62952	1	-6.33459e-05	9	0	0.000000000000000E+000	0.00127874
2	1	0	1	0	0	0.3771	0.35376	0.353883	3.71735	1	-5.30916e-05	9	0	0.000000000000000E+000	0.00131551
2	1	0	1	0	0	0.4771	0.354758	0.354799	3.5048	1	-6.25378e-06	9	0	0.1	0.0012435
2	1	0	1	0	0	0.5769	0.355757	0.354847	3.75225	1	3.28965e-06	9	0	0.000000000000000E+000	0.00133148
2	1	0	1	0	0	0.6768	0.356756	0.356601	3.68724	1	5.12173e-05	9	0	0.0999	0.00131487
2	1	0	1	0	0	0.7767	0.357755	0.357186	3.57888	1	7.58351e-05	9	0	0.1998	0.00127833
2	1	0	1	0	0	0.8765	0.358754	0.357928	3.54086	1	0.000118142	9	0	0.2996	0.00126738
2	1	0	1	0	0	0.9765	0.359752	0.359064	3.32884	1	0.000151993	9	0	0.000000000000000E+000	0.00119527
2	1	0	1	0	0	1.0763	0.360751	0.360203	3.44331	1	0.000186379	9	0	0.000000000000000E+000	0.00124029
2	1	0	1	0	0	1.1762	0.36175	0.361375	3.27036	1	0.000226685	9	0	0.000000000000000E+000	0.00118182
2	1	0	1	0	0	1.2761	0.362749	0.362727	3.18886	1	0.000247443	9	0	0.000000000000000E+000	0.00115668
2	1	0	1	0	0	1.3759	0.363748	0.363561	3.10692	1	0.000290912	9	0	0.000000000000000E+000	0.00112956
2	1	0	1	0	0	1.4759	0.364747	0.364962	3.12122	1	0.00031996	9	0	0.000000000000000E+000	0.00113913
2	1	0	1	0	0	1.5757	0.365745	0.365225	2.94619	1	0.000362869	9	0	0.000000000000000E+000	0.00107602
2	1	0	1	0	0	1.6756	0.366744	0.365637	2.65306	1	0.000394812	9	0	0.000000000000000E+000	0.000970056
2	1	0	1	0	0	1.7755	0.367743	0.366826	2.76915	1	0.000424123	9	0	0.000000000000000E+000	0.00101579
2	1	0	1	0	0	1.8753	0.368742	0.369594	2.70702	1	0.000462923	9	0	0.000000000000000E+000	0.0010005
2	1	0	1	0	0	1.9753	0.369741	0.369325	2.72832	1	0.000500518	9	0	0.000000000000000E+000	0.00100764
2	1	0	1	0	0	2.0751	0.370739	0.369831	2.61899	1	0.000554369	9	0	0.000000000000000E+000	0.000968585
2	1	0	1	0	0	2.175	0.371738	0.371359	2.36129	1	0.000595	9	0	0.000000000000000E+000	0.000876887
2	1	0	1	0	0	2.2749	0.372737	0.372637	2.70176	1	0.000666708	9	0	0.000000000000000E+000	0.00100677
2	1	0	1	0	0	2.3748	0.373737	0.373433	2.11528	1	0.000676876	9	0	0.000000000000000E+000	0.000789917
2	1	0	1	0	0	2.4747	0.374735	0.374744	2.19919	1	0.000721803	9	0	0.000000000000000E+000	0.000824132
2	1	0	1	0	0	2.5745	0.375733	0.375633	2.21916	1	0.000780075	9	0	0.000000000000000E+000	0.000833589
2	1	0	1	0	0	2.6744	0.376731	0.375572	2.20645	1	0.00084206	9	0	0.000000000000000E+000	0.000828681
2	1	0	1	0	0	2.7743	0.377731	0.376835	1.89393	1	0.000894095	9	0	0.000000000000000E+000	0.000713698
2	1	0	1	0	0	2.8742	0.37873	0.37763	1.64469	1	0.000932952	9	0	0.000000000000000E+000	0.000621086
2	1	0	1	0	0	2.9741	0.379729	0.379682	1.28754	1	0.00096632	9	0	0.000000000000000E+000	0.000488856
2	1	0	1	0	0	3.0739	0.380728	0.380028	1.54069	1	0.0010098	9	0	0.000000000000000E+000	0.000585505
2	1	0	1	0	0	3.1739	0.381726	0.381858	1.69055	1	0.00106429	9	0	0.000000000000000E+000	0.000645552
2	1	0	1	0	0	3.2737	0.382725	0.382797	1.41138	1	0.00112463	9	0	0.000000000000000E+000	0.000540272
2	1	0	1	0	0	3.3736	0.383724	0.382912	1.23749	1	0.00115803	9	0	0.000000000000000E+000	0.000473849
2	1	0	1	0	0	3.4735	0.384723	0.382707	1.21491	1	0.0012223	9	0	0.000000000000000E+000	0.000464953
2	1	0	1	0	0	3.5733	0.385722	0.385684	1.0263	1	0.00126953	9	0	0.000000000000000E+000	0.000395829
2	1	0	1	0	0	3.6733	0.38672	0.386711	1.14565	1	0.00132448	9	0	0.000000000000000E+000	0.000443037
2	1	0	1	0	0	3.7731	0.387719	0.387594	0.904234	1	0.00138232	9	0	0.000000000000000E+000	0.000350476
2	1	0	1	0	0	3.873	0.388718	0.387538	0.985312	1	0.00142572	9	0	0.000000000000000E+000	0.000381846
2	1	0	1	0	0	3.9729	0.389717	0.388695	0.812308	1	0.00149688	9	0	0.000000000000000E+000	0.00031574
2	0	0	1	0	0	4.0727	0.390716	0.390403	0.503127	1	0.00154199	9	0	0.000000000000000E+000	0.000196422
2	0	0	1	0	0	4.1727	0.391715	0.390365	0.70132	1	0.0016126	9	0	0.000000000000000E+000	0.000273771
2	0	0	1	0	0	4.2725	0.392713	0.392094	0.429355	1	0.00167141	9	0	0.000000000000000E+000	0.000168347
2	0	0	1	0	0	4.3724	0.393712	0.393045	0.24681	1	0.00172384	9	0	0.000000000000000E+000	9.70073e-05
2	0	0	1	0	0	4.4723	0.394711	0.393775	0.351448	1	0.00179968	9	0	0.000000000000000E+000	0.000138391
2	0	0	1	0	0	4.5721	0.39571	0.394507	0.17434	1	0.00184937	9	0	0.000000000000000E+000	6.87784e-05
2	0	0	1	0	0	4.6721	0.396709	0.395882	0.33543	1	0.00192959	9	0	0.000000000000000E+000	0.000132791
2	0	0	1	0	0	4.7719	0.397707	0.397125	0.091181	1	0.00199063	9	0	0.000000000000000E+000	3.62103e-05
2	0	0	1	0	0	4.8718	0.398706	0.397668	0.0201903	1	0.00205732	9	0	0.000000000000000E+000	8.02904e-06
2	0	0	1	0	0	4.9717	0.399705	0.399442	0.00369673	1	0.00213676	9	0	0.000000000000000E+000	1.47663e-06
2	0	0	1	0	0	5.0716	0.400705	0.398679	-0.0300011	1	0.00219342	9	0	0.000000000000000E+000	-1.19608e-05
2	0	0	1	0	0	5.1715	0.401703	0.400326	-0.0230662	1	0.00227948	9	0	0.000000000000000E+000	-9.23397e-06
2	0	0	1	0	0	5.2713	0.402702	0.401115	-0.259876	1	0.00234105	9	0	0.000000000000000E+000	-0.00010424
2	0	0	1	0	0	5.3712	0.403699	0.402783	-0.155732	1	0.00241872	9	0	0.000000000000000E+000	-6.27263e-05
2	0	0	1	0	0	5.4711	0.404699	0.403396	-0.338089	1	0.00250028	9	0	0.000000000000000E+000	-0.000136384
2	0	0	1	0	0	5.571	0.405698	0.40472	-0.40294	1	0.00256972	9	0	0.000000000000000E+000	-0.000163078
2	0	0	1	0	0	5.6709	0.406697	0.40571	-0.368542	1	0.00266074	9	0	0.000000000000000E+000	-0.000149521
2	0	0	1	0	0	5.7707	0.407696	0.406882	-0.528013	1	0.00272732	9	0	0.000000000000000E+000	-0.000214839
2	0	0	1	0	0	5.8707	0.408694	0.407772	-0.388971	1	0.00282029	9	0	0.000000000000000E+000	-0.000158611
2	0	0	1	0	0	5.9705	0.409693	0.40856	-0.626873	1	0.00289457	9	0	0.000000000000000E+000	-0.000256115
2	0	0	1	0	0	6.0704	0.410692	0.410115	-0.336343	1	0.00297923	9	0	0.000000000000000E+000	-0.000137939
2	0	0	1	0	0	6.1703	0.411691	0.41061	-0.681705	1	0.00307272	9	0	0.000000000000000E+000	-0.000279915
2	0	0	1	0	0	6.2701	0.41269	0.411686	-0.821069	1	0.00315129	9	0	0.000000000000000E+000	-0.000338022
2	0	0	1	0	0	6.3701	0.413688	0.413032	-0.725224	1	0.0032492	9	0	0.000000000000000E+000	-0.00029954
2	0	0	1	0	0	6.4699	0.414687	0.415228	-0.969488	1	0.00332718	9	0	0.000000000000000E+000	-0.000402559
2	0	0	1	0	0	6.5698	0.415686	0.41498	-0.941154	1	0.00342221	9	0	0.000000000000000E+000	-0.00039056
2	0	0	1	0	0	6.6697	0.416685	0.416229	-1.02938	1	0.00351754	9	0	0.000000000000000E+000	-0.000428457
2	0	0	1	0	0	6.7695	0.417684	0.416854	-1.16807	1	0.00361172	9	0	0.000000000000000E+000	-0.000486915
2	0	0	1	0	0	6.8695	0.418683	0.417591	-1.10967	1	0.0037145	9	0	0.000000000000000E+000	-0.000463387
2	0	0	1	0	0	6.9693	0.419681	0.419469	-1.27334	1	0.00380277	9	0	0.000000000000000E+000	-0.000534125
2	0	0	1	0	0	7.0692	0.42068	0.419448	-1.27819	1	0.00390683	9	0	0.000000000000000E+000	-0.000536136
2	0	0	1	0	0	7.1691	0.421679	0.420887	-1.38045	1	0.00400377	9	0	0.000000000000000E+000	-0.000581014
2	0	0	1	0	0	7.269	0.422679	0.421894	-1.17362	1	0.00410882	9	0	0.000000000000000E+000	-0.000495144
2	0	0	1	0	0	7.3689	0.423677	0.423405	-1.49562	1	0.00421954	9	0	0.000000000000000E+000	-0.000633253
2	0	0	1	0	0	7.4687	0.424675	0.425399	-1.57651	1	0.00432344	9	0	0.000000000000000E+000	-0.000670645
2	0	0	1	0	0	7.5686	0.425673	0.425564	-1.55754	1	0.00443416	9	0	0.000000000000000E+000	-0.000662833
2	0	0	1	0	0	7.6685	0.426673	0.425304	-1.73014	1	0.00453694	9	0	0.000000000000000E+000	-0.000735834
2	0	0	1	0	0	7.7684	0.427672	0.426794	-1.72242	1	0.00465171	9	0	0.000000000000000E+000	-0.000735119
2	0	0	1	0	0	7.8683	0.428671	0.428822	-1.87713	1	0.00476175	9	0	0.000000000000000E+000	-0.000804953
2	0	0	1	0	0	7.9681	0.42967	0.429378	-1.87253	1	0.00488029	9	0	0.000000000000000E+000	-0.000804022
2	0	0	1	0	0	8.0681	0.430668	0.429441	-1.91021	1	0.004998	9	0	0.000000000000000E+000	-0.000820322
2	0	0	1	0	0	8.1679	0.431667	0.431924	-2.06127	1	0.00510917	9	0	0.000000000000000E+000	-0.000890313
2	0	0	1	0	0	8.2678	0.432666	0.432979	-2.09191	1	0.00523068	9	0	0.000000000000000E+000	-0.000905753
2	0	0	1	0	0	8.3677	0.433665	0.433851	-2.231	1	0.00534333	9	0	0.000000000000000E+000	-0.00096792
2	0	0	1	0	0	8.4675	0.434664	0.433295	-2.21249	1	0.00547373	9	0	0.000000000000000E+000	-0.000958659
2	0	0	1	0	0	8.5675	0.435662	0.434856	-2.29581	1	0.00559052	9	0	0.000000000000000E+000	-0.000998344
2	0	0	1	0	0	8.6673	0.436661	0.436648	-2.36071	1	0.00571809	9	0	0.000000000000000E+000	-0.0010308
2	0	0	1	0	0	8.7672	0.43766	0.438255	-2.32768	1	0.00584409	9	0	0.000000000000000E+000	-0.00102012
2	0	0	1	0	0	8.8671	0.438659	0.43805	-2.50315	1	0.00596844	9	0	0.000000000000000E+000	-0.0010965
2	0	0	1	0	0	8.9669	0.439658	0.438151	-2.59569	1	0.00610713	9	0	0.000000000000000E+000	-0.0011373
2	0	0	1	0	0	9.0669	0.440657	0.43991	-2.62685	1	0.00622505	9	0	0.000000000000000E+000	-0.00115558
2	0	0	1	0	0	9.1667	0.441655	0.44152	-2.63193	1	0.00636602	9	0	0.000000000000000E+000	-0.00116205
2	0	0	1	0	0	9.2666	0.442654	0.442381	-2.7316	1	0.00649243	9	0	0.000000000000000E+000	-0.00120841
2	0	0	1	0	0	9.3665	0.443653	0.442076	-2.6729	1	0.00663265	9	0	0.000000000000000E+000	-0.00118163
2	0	0	1	0	0	9.4664	0.444653	0.444048	-2.63959	1	0.00677174	9	0	0.000000000000000E+000	-0.0011721
2	0	0	1	0	0	9.5663	0.445651	0.44565	-2.7661	1	0.00690588	9	0	0.000000000000000E+000	-0.00123271
2	0	0	1	0	0	9.6661	0.446649	0.445793	-2.77158	1	0.00705633	9	0	0.000000000000000E+000	-0.00123555
2	0	0	1	0	0	9.766	0.447648	0.446995	-2.89468	1	0.00718376	9	0	0.000000000000000E+000	-0.00129391
2	0	0	1	0	0	9.8659	0.448647	0.448322	-2.75999	1	0.00733566	9	0	0.000000000000000E+000	-0.00123736
2	0	0	1	0	0	9.9658	0.449647	0.449123	-2.5679	1	0.00747494	9	0	0.000000000000000E+000	-0.0011533
2	0	0	0	0	0	9.999	0.450021	0.45148	-4.22216	1	0.00776809	9	0	0.0033	-0.00190622
2	1	0	1	0	0	10.0763	0.449246	0.449436	5.1757	1	0.00783578	9	0	0.000000000000000E+000	0.00232615
2	1	0	1	0	0	10.1763	0.448247	0.448617	5.06345	1	0.00797006	9	0	0.000000000000000E+000	0.00227155
2	1	0	1	0	0	10.2761	0.447249	0.447433	5.18911	1	0.00810622	9	0	0.000000000000000E+000	0.00232178
2	1	0	1	0	0	10.376	0.44625	0.445763	4.80213	1	0.0082414	9	0	0.000000000000000E+000	0.00214061
2	1	0	1	0	0	10.4759	0.445251	0.444133	5.12943	1	0.00836449	9	0	0.000000000000000E+000	0.00227815
2	1	0	1	0	0	10.5757	0.444252	0.443803	5.13076	1	0.00849701	9	0	0.000000000000000E+000	0.00227705
2	1	0	1	0	0	10.6757	0.443253	0.442715	5.06189	1	0.0086189	9	0	0.000000000000000E+000	0.00224097
2	1	0	1	0	0	10.7755	0.442255	0.441727	5.09709	1	0.00874977	9	0	0.000000000000000E+000	0.00225152
2	1	0	1	0	0	10.8754	0.441256	0.440763	5.08366	1	0.00886942	9	0	0.000000000000000E+000	0.00224069
2	1	0	1	0	0	10.9753	0.440257	0.439981	5.05192	1	0.0089911	9	0	0.000000000000000E+000	0.00222275
2	1	0	1	0	0	11.0752	0.439258	0.43808	4.72353	1	0.00911306	9	0	0.000000000000000E+000	0.00206928
2	1	0	1	0	0	11.1751	0.438259	0.436396	5.05478	1	0.00922236	9	0	0.000000000000000E+000	0.00220589
2	1	0	1	0	0	11.2749	0.437261	0.435403	4.99039	1	0.00934165	9	0	0.000000000000000E+000	0.00217283
2	1	0	1	0	0	11.3748	0.436263	0.435587	4.94278	1	0.00944925	9	0	0.000000000000000E+000	0.00215301
2	1	0	1	0	0	11.4747	0.435263	0.43522	5.02304	1	0.00956817	9	0	0.000000000000000E+000	0.00218613
2	1	0	1	0	0	11.5746	0.434264	0.433246	4.77319	1	0.00967596	9	0	0.000000000000000E+000	0.00206797
2	1	0	1	0	0	11.6745	0.433265	0.432397	5.00584	1	0.00978383	9	0	0.000000000000000E+000	0.00216451
2	1	0	1	0	0	11.7743	0.432266	0.432346	4.87776	1	0.00988829	9	0	0.000000000000000E+000	0.00210888
2	1	0	1	0	0	11.8743	0.431268	0.431207	4.93757	1	0.00999087	9	0	0.000000000000000E+000	0.00212911
2	1	0	1	0	0	11.9741	0.430269	0.429	4.86996	1	0.010099	9	0	0.000000000000000E+000	0.00208922
2	1	0	1	0	0	12.074	0.42927	0.428155	4.90752	1	0.010195	9	0	0.000000000000000E+000	0.00210118
2	1	0	1	0	0	12.1739	0.428271	0.427064	4.83341	1	0.0103017	9	0	0.000000000000000E+000	0.00206417
2	1	0	1	0	0	12.2737	0.427272	0.427373	4.65025	1	0.0103921	9	0	0.000000000000000E+000	0.00198739
2	1	0	1	0	0	12.3737	0.426274	0.426624	4.69079	1	0.0104938	9	0	0.000000000000000E+000	0.0020012
2	1	0	1	0	0	12.4735	0.425275	0.425015	4.47871	1	0.0105875	9	0	0.0998	0.00190352
2	1	0	1	0	0	12.5734	0.424276	0.423687	4.26188	1	0.010675	9	0	0.1997	0.00180571
2	1	0	1	0	0	12.6733	0.423277	0.423756	4.35876	1	0.0107734	9	0	0.2996	0.00184705
2	1	0	1	0	0	12.7731	0.422278	0.421495	4.21457	1	0.0108502	9	0	0.3994	0.00177642
2	1	0	1	0	0	12.8731	0.42128	0.420733	4.22338	1	0.0109521	9	0	0.4994	0.00177691
2	1	0	1	0	0	12.9729	0.420281	0.419921	3.94056	1	0.0110318	9	0	0.5992	0.00165472
2	1	0	1	0	0	13.0728	0.419282	0.418359	3.76233	1	0.0111187	9	0	0.6991	0.00157401
2	1	0	1	0	0	13.1727	0.418283	0.418329	3.73554	1	0.011206	9	0	0.799	0.00156268
2	1	0	1	0	0	13.2726	0.417283	0.416438	3.72772	1	0.0112806	9	0	0.8989	0.00155236
2	1	0	1	0	0	13.3725	0.416285	0.415758	3.55879	1	0.0113717	9	0	0.9988	0.00147959
2	1	0	1	0	0	13.4723	0.415287	0.415122	3.23986	1	0.0114389	9	0	0.000000000000000E+000	0.00134494
2	1	0	1	0	0	13.5722	0.414288	0.414055	3.23089	1	0.0115272	9	0	0.000000000000000E+000	0.00133777
2	1	0	1	0	0	13.6721	0.413289	0.412928	2.93341	1	0.0116022	9	0	0.000000000000000E+000	0.00121129
2	1	0	1	0	0	13.772	0.412289	0.411779	2.64544	1	0.0116778	9	0	0.000000000000000E+000	0.00108934
2	1	0	1	0	0	13.8719	0.411291	0.410792	2.60251	1	0.0117577	9	0	0.000000000000000E+000	0.00106909
2	1	0	1	0	0	13.9717	0.410293	0.410539	2.29499	1	0.0118179	9	0	0.000000000000000E+000	0.000942183
2	1	0	1	0	0	14.0717	0.409294	0.409687	2.32397	1	0.0119045	9	0	0.000000000000000E+000	0.000952099
2	1	0	1	0	0	14.1715	0.408295	0.407284	1.93048	1	0.0119621	9	0	0.000000000000000E+000	0.000786256
2	1	0	1	0	0	14.2714	0.407296	0.406774	1.80029	1	0.0120405	9	0	0.000000000000000E+000	0.000732309
2	1	0	1	0	0	14.3713	0.406297	0.405682	1.538	1	0.0121084	9	0	0.000000000000000E+000	0.000623939
2	1	0	1	0	0	14.4711	0.405298	0.40468	1.34969	1	0.0121731	9	0	0.000000000000000E+000	0.000546193
2	1	0	1	0	0	14.5711	0.4043	0.404553	1.25515	1	0.0122489	9	0	0.000000000000000E+000	0.000507775
2	1	0	1	0	0	14.6709	0.403301	0.402732	0.942341	1	0.0123011	9	0	0.000000000000000E+000	0.000379511
2	1	0	1	0	0	14.7708	0.402302	0.401242	0.742828	1	0.0123729	9	0	0.000000000000000E+000	0.000298054
2	0	0	1	0	0	14.8707	0.401303	0.401407	0.563662	1	0.0124277	9	0	0.000000000000000E+000	0.000226258
2	0	0	1	0	0	14.9705	0.400304	0.398448	0.436288	1	0.0124964	9	0	0.000000000000000E+000	0.000173838
2	0	0	1	0	0	15.0705	0.399306	0.397589	0.290098	1	0.0125576	9	0	0.000000000000000E+000	0.00011534
2	0	0	1	0	0	15.1703	0.398307	0.397519	0.0989738	1	0.0126148	9	0	0.000000000000000E+000	3.9344e-05
2	0	0	1	0	0	15.2702	0.397308	0.396605	-0.196291	1	0.0126757	9	0	0.000000000000000E+000	-7.78498e-05
2	0	0	1	0	0	15.3701	0.396309	0.395363	-0.193928	1	0.0127277	9	0	0.000000000000000E+000	-7.66719e-05
2	0	0	1	0	0	15.47	0.395309	0.393694	-0.0204972	1	0.012791	9	0	0.000000000000000E+000	-8.06964e-06
2	0	0	1	0	0	15.5699	0.394311	0.393329	-0.458053	1	0.012841	9	0	0.000000000000000E+000	-0.000180165
2	0	0	1	0	0	15.6697	0.393313	0.393232	-0.56403	1	0.0129039	9	0	0.000000000000000E+000	-0.000221795
2	0	0	1	0	0	15.7696	0.392315	0.391903	-0.838545	1	0.0129517	9	0	0.000000000000000E+000	-0.000328629
2	0	0	1	0	0	15.8695	0.391315	0.390596	-0.791063	1	0.0130107	9	0	0.000000000000000E+000	-0.000308986
2	0	0	1	0	0	15.9694	0.390316	0.389518	-0.862074	1	0.0130655	9	0	0.000000000000000E+000	-0.000335794
2	0	0	1	0	0	16.0693	0.389317	0.388447	-1.10641	1	0.0131135	9	0	0.000000000000000E+000	-0.000429781
2	0	0	1	0	0	16.1691	0.388319	0.387154	-1.25844	1	0.0131744	9	0	0.000000000000000E+000	-0.000487211
2	0	0	1	0	0	16.269	0.387321	0.386088	-1.41753	1	0.0132104	9	0	0.000000000000000E+000	-0.000547293
2	0	0	1	0	0	16.3689	0.386321	0.386244	-1.48601	1	0.0132748	9	0	0.000000000000000E+000	-0.000573962
2	0	0	1	0	0	16.4688	0.385322	0.384678	-1.76373	1	0.0133156	9	0	0.000000000000000E+000	-0.000678468
2	0	0	1	0	0	16.5687	0.384323	0.384326	-1.79077	1	0.0133705	9	0	0.000000000000000E+000	-0.000688239
2	0	0	1	0	0	16.6685	0.383325	0.382854	-2.02676	1	0.0134256	9	0	0.000000000000000E+000	-0.000775954
2	0	0	1	0	0	16.7685	0.382326	0.381001	-2.22225	1	0.0134602	9	0	0.000000000000000E+000	-0.000846678
2	0	0	1	0	0	16.8683	0.381327	0.381368	-2.14682	1	0.0135175	9	0	0.000000000000000E+000	-0.000818728
2	0	0	1	0	0	16.9682	0.380328	0.379837	-2.64336	1	0.0135551	9	0	0.000000000000000E+000	-0.00100405
2	0	0	1	0	0	17.0681	0.379329	0.378794	-2.39629	1	0.0136093	9	0	0.000000000000000E+000	-0.000907702
2	0	0	1	0	0	17.1679	0.37833	0.378594	-2.75697	1	0.0136578	9	0	0.000000000000000E+000	-0.00104377
2	0	0	1	0	0	17.2679	0.377332	0.377029	-2.64551	1	0.0137044	9	0	0.000000000000000E+000	-0.000997432
2	0	0	1	0	0	17.3677	0.376333	0.375989	-2.91972	1	0.0137515	9	0	0.000000000000000E+000	-0.00109778
2	0	0	1	0	0	17.4676	0.375334	0.374185	-2.7803	1	0.0137864	9	0	0.000000000000000E+000	-0.00104035
2	0	0	1	0	0	17.5675	0.374335	0.373976	-3.43787	1	0.0138305	9	0	0.000000000000000E+000	-0.00128568
2	0	0	1	0	0	17.6673	0.373336	0.373004	-3.51027	1	0.0138654	9	0	0.000000000000000E+000	-0.00130935
2	0	0	1	0	0	17.7673	0.372338	0.373245	-3.33068	1	0.0139198	9	0	0.000000000000000E+000	-0.00124316
2	0	0	1	0	0	17.8671	0.371339	0.369875	-3.8239	1	0.0139697	9	0	0.000000000000000E+000	-0.00141436
2	0	0	1	0	0	17.967	0.37034	0.369928	-2.68333	1	0.0140407	9	0	0.000000000000000E+000	-0.000992638
2	0	0	1	0	0	18.0669	0.369341	0.369207	-4.10357	1	0.0140797	9	0	0.000000000000000E+000	-0.00151507
2	0	0	1	0	0	18.1668	0.368341	0.368742	-3.40707	1	0.014111	9	0	0.000000000000000E+000	-0.00125633
2	0	0	1	0	0	18.2667	0.367343	0.3671	-3.51735	1	0.0141846	9	0	0.000000000000000E+000	-0.00129122
2	0	0	1	0	0	18.3665	0.366345	0.365479	-3.97144	1	0.0142253	9	0	0.000000000000000E+000	-0.00145148
2	0	0	1	0	0	18.4664	0.365347	0.364198	-2.07309	1	0.0143211	9	0	0.000000000000000E+000	-0.000755016
2	0	0	1	0	0	18.5663	0.364347	0.362947	-3.72937	1	0.0144006	9	0	0.000000000000000E+000	-0.00135356
2	0	0	1	0	0	18.6662	0.363347	0.362395	-3.47965	1	0.0144588	9	0	0.000000000000000E+000	-0.00126101
2	0	0	1	0	0	18.7661	0.362349	0.362179	-3.99977	1	0.0145061	9	0	0.000000000000000E+000	-0.00144863
2	0	0	1	0	0	18.8659	0.361351	0.360449	-4.06506	1	0.0145238	9	0	0.000000000000000E+000	-0.00146524
2	0	0	1	0	0	18.9659	0.360352	0.359434	-3.75492	1	0.0145596	9	0	0.000000000000000E+000	-0.00134965
2	0	0	1	0	0	19.0657	0.359353	0.358974	-3.86546	1	0.0145908	9	0	0.000000000000000E+000	-0.0013876
2	0	0	1	0	0	19.1656	0.358354	0.358477	-3.68268	1	0.014623	9	0	0.000000000000000E+000	-0.00132015
2	0	0	1	0	0	19.2655	0.357355	0.356808	-3.71881	1	0.0146461	9	0	0.000000000000000E+000	-0.0013269
2	0	0	1	0	0	19.3653	0.356356	0.355817	-3.46843	1	0.0146861	9	0	0.000000000000000E+000	-0.00123413
2	0	0	1	0	0	19.4653	0.355358	0.355697	-3.58191	1	0.0147133	9	0	0.000000000000000E+000	-0.00127408
2	0	0	1	0	0	19.5651	0.354359	0.35358	-3.30104	1	0.0147417	9	0	0.000000000000000E+000	-0.00116718
2	0	0	1	0	0	19.665	0.35336	0.35334	-3.23421	1	0.0147782	9	0	0.000000000000000E+000	-0.00114277
2	0	0	1	0	0	19.7649	0.352361	0.351496	-3.24444	1	0.0147973	9	0	0.000000000000000E+000	-0.00114041
2	0	0	1	0	0	19.8647	0.351362	0.351449	-3.00668	1	0.0148359	9	0	0.000000000000000E+000	-0.00105669
2	0	0	1	0	0	19.9647	0.350364	0.350064	-3.13259	1	0.0148516	9	0	0.000000000000000E+000	-0.00109661
2	1	0	0	0	0	19.9986	0.349989	0.348542	4.59849	1	0.0150405	9	0	0.0039	0.00160277
2	0	0	1	0	1	20.0311	0.350314	0.349351	-0.344331	2	0.0147917	9	0	0.0275	-0.000120292
2	0	0	1	0	1	20.1311	0.351312	0.350055	-0.483926	2	0.0148039	9	0	0.000000000000000E+000	-0.000169401
2	0	0	1	0	1	20.2309	0.352311	0.351916	-0.564752	2	0.0148319	9	0	0.000000000000000E+000	-0.000198745
2	0	0	1	0	1	20.3308	0.35331	0.352631	-0.594856	2	0.0148415	9	0	0.000000000000000E+000	-0.000209765
2	0	0	1	0	1	20.4307	0.354309	0.35338	-0.83638	2	0.0148688	9	0	0.000000000000000E+000	-0.00029556
2	0	0	1	0	1	20.5305	0.355308	0.353835	-1.07875	2	0.0148915	9	0	0.000000000000000E+000	-0.000381702
2	0	0	1	0	1	20.6305	0.356307	0.355245	-1.05059	2	0.0149076	9	0	0.000000000000000E+000	-0.000373217
2	0	0	1	0	1	20.7303	0.357305	0.357314	-1.17558	2	0.01494	9	0	0.000000000000000E+000	-0.000420052
2	0	0	1	0	1	20.8302	0.358304	0.356826	-1.25558	2	0.014947	9	0	0.000000000000000E+000	-0.000448023
2	0	0	1	0	1	20.9301	0.359303	0.358824	-1.32048	2	0.0149925	9	0	0.000000000000000E+000	-0.000473821
2	0	0	1	0	1	21.0299	0.360302	0.359618	-1.64812	2	0.0150126	9	0	0.000000000000000E+000	-0.000592692
2	0	0	1	0	1	21.1299	0.361301	0.360439	-1.53991	2	0.0150497	9	0	0.000000000000000E+000	-0.000555043
2	0	0	1	0	1	21.2297	0.362299	0.361307	-1.82365	2	0.0150738	9	0	0.000000000000000E+000	-0.000658896
2	0	0	1	0	1	21.3296	0.363298	0.362383	-1.93098	2	0.0151003	9	0	0.000000000000000E+000	-0.000699754
2	0	0	1	0	1	21.4295	0.364297	0.363509	-2.27289	2	0.0151221	9	0	0.000000000000000E+000	-0.000826215
2	0	0	1	0	1	21.5294	0.365297	0.364753	-1.70107	2	0.0151513	9	0	0.000000000000000E+000	-0.000620471
2	0	0	1	0	1	21.6293	0.366295	0.366121	-1.63011	2	0.0152361	9	0	0.000000000000000E+000	-0.000596817
2	0	0	1	0	1	21.7291	0.367293	0.366613	-1.98744	2	0.0152983	9	0	0.000000000000000E+000	-0.00072862
2	0	0	1	0	1	21.829	0.368291	0.367534	-1.03563	2	0.0153757	9	0	0.000000000000000E+000	-0.000380628
2	0	0	1	0	1	21.9289	0.369291	0.36892	-2.45179	2	0.0154653	9	0	0.000000000000000E+000	-0.000904513
2	0	0	1	0	1	22.0288	0.37029	0.370916	-2.86902	2	0.0154559	9	0	0.000000000000000E+000	-0.00106416
2	0	0	1	0	1	22.1287	0.371289	0.370371	-3.12546	2	0.0155033	9	0	0.000000000000000E+000	-0.00115758
2	0	0	1	0	1	22.2285	0.372288	0.37146	-1.86403	2	0.015555	9	0	0.000000000000000E+000	-0.000692413
2	0	0	1	0	1	22.3285	0.373286	0.372658	-0.465724	2	0.015751	9	0	0.000000000000000E+000	-0.000173556
2	0	0	1	0	1	22.4283	0.374285	0.374638	-1.6186	2	0.0159584	9	0	0.000000000000000E+000	-0.000606387
2	0	0	1	0	1	22.5282	0.375284	0.375196	-3.1416	2	0.0160389	9	0	0.000000000000000E+000	-0.00117872
2	0	0	1	0	1	22.6281	0.376283	0.376131	-3.28046	2	0.0160756	9	0	0.000000000000000E+000	-0.00123388
2	0	0	1	0	1	22.7279	0.377282	0.376454	-3.32132	2	0.0161141	9	0	0.000000000000000E+000	-0.00125032
2	0	0	1	0	1	22.8279	0.37828	0.378325	-3.18724	2	0.0161543	9	0	0.000000000000000E+000	-0.00120581
2	0	0	1	0	1	22.9277	0.379279	0.378631	-3.45736	2	0.0161887	9	0	0.000000000000000E+000	-0.00130906
2	0	0	1	0	1	23.0276	0.380278	0.379596	-3.37872	2	0.0162135	9	0	0.000000000000000E+000	-0.00128255
2	0	0	1	0	1	23.1275	0.381277	0.380495	-3.59979	2	0.0162455	9	0	0.000000000000000E+000	-0.0013697
2	0	0	1	0	1	23.2273	0.382276	0.382098	-3.62878	2	0.0162957	9	0	0.000000000000000E+000	-0.00138655
2	0	0	1	0	1	23.3273	0.383275	0.382542	-3.75093	2	0.0163267	9	0	0.000000000000000E+000	-0.00143489
2	0	0	1	0	1	23.4271	0.384273	0.38234	-3.55522	2	0.0163832	9	0	0.000000000000000E+000	-0.0013593
2	0	0	1	0	1	23.527	0.385272	0.384007	-3.69022	2	0.0164302	9	0	0.000000000000000E+000	-0.00141707
2	0	0	1	0	1	23.6269	0.386271	0.385439	-3.65897	2	0.0164757	9	0	0.000000000000000E+000	-0.00141031
2	0	0	1	0	1	23.7268	0.387271	0.386617	-3.57312	2	0.016524	9	0	0.000000000000000E+000	-0.00138143
2	0	0	1	0	1	23.8267	0.388269	0.388184	-3.46689	2	0.0165773	9	0	0.000000000000000E+000	-0.00134579
2	0	0	1	0	1	23.9265	0.389267	0.388436	-3.31874	2	0.0166498	9	0	0.000000000000000E+000	-0.00128912
2	0	0	1	0	1	24.0264	0.390266	0.38929	-3.23583	2	0.016706	9	0	0.000000000000000E+000	-0.00125968
2	0	0	1	0	1	24.1263	0.391265	0.39115	-3.10356	2	0.0167873	9	0	0.000000000000000E+000	-0.00121395
2	0	0	1	0	1	24.2262	0.392265	0.391247	-3.1148	2	0.0168321	9	0	0.000000000000000E+000	-0.00121866
2	0	0	1	0	1	24.3261	0.393263	0.392554	-2.90576	2	0.016898	9	0	0.000000000000000E+000	-0.00114067
2	0	0	1	0	1	24.4259	0.394262	0.393482	-2.88382	2	0.0169647	9	0	0.000000000000000E+000	-0.00113473
2	0	0	1	0	1	24.5258	0.395259	0.394232	-3.62617	2	0.0169979	9	0	0.000000000000000E+000	-0.00142955
2	0	0	1	0	1	24.6257	0.396259	0.395231	-3.61328	2	0.0170168	9	0	0.000000000000000E+000	-0.00142808
2	0	0	1	0	1	24.7256	0.397258	0.397254	-2.65318	2	0.0170712	9	0	0.000000000000000E+000	-0.00105399
2	0	0	1	0	1	24.8255	0.398257	0.398441	-1.16007	2	0.0172012	9	0	0.05	-0.000462221
2	0	0	1	0	1	24.9253	0.399256	0.399214	-3.22298	2	0.0173671	9	0	0.000000000000000E+000	-0.00128666
2	0	0	1	0	1	25.0253	0.400254	0.399859	-2.57632	2	0.0174024	9	0	0.000000000000000E+000	-0.00103016
2	0	0	1	0	1	25.1251	0.401253	0.40051	-2.56874	2	0.0174554	9	0	0.000000000000000E+000	-0.00102881
2	0	0	1	0	1	25.225	0.402252	0.401841	-2.3569	2	0.017507	9	0	0.0499	-0.000947101
2	0	0	1	0	1	25.3249	0.403251	0.403203	-2.23904	2	0.0175663	9	0	0.1498	-0.000902786
2	0	0	1	0	1	25.4247	0.40425	0.403502	-1.99114	2	0.0176274	9	0	0.2496	-0.00080343
2	0	0	1	0	1	25.5247	0.405248	0.405358	-1.97488	2	0.0176932	9	0	0.3496	-0.000800532
2	0	0	1	0	1	25.6245	0.406247	0.407276	-1.863	2	0.0177513	9	0	0.4494	-0.000758755
2	0	0	1	0	1	25.7244	0.407246	0.407817	-1.46969	2	0.0178255	9	0	0.5493	-0.000599364
2	0	0	1	0	1	25.8243	0.408245	0.407585	-1.58173	2	0.0178807	9	0	0.000000000000000E+000	-0.000644692
2	0	0	1	0	1	25.9241	0.409244	0.408914	-1.22197	2	0.0179576	9	0	0.000000000000000E+000	-0.00049968
2	0	0	1	0	1	26.0241	0.410243	0.40962	-1.46904	2	0.0180246	9	0	0.000000000000000E+000	-0.000601748
2	0	0	1	0	1	26.1239	0.411241	0.410394	-1.12043	2	0.0180899	9	0	0.000000000000000E+000	-0.000459817
2	0	0	1	0	1	26.2238	0.41224	0.412863	-1.07839	2	0.0181667	9	0	0.000000000000000E+000	-0.000445229
2	0	0	1	0	1	26.3237	0.413239	0.41302	-0.937623	2	0.0182284	9	0	0.000000000000000E+000	-0.000387257
2	0	0	1	0	1	26.4236	0.414239	0.41391	-0.780017	2	0.0183121	9	0	0.000000000000000E+000	-0.000322857
2	0	0	1	0	1	26.5235	0.415237	0.415093	-0.77955	2	0.0183795	9	0	0.000000000000000E+000	-0.000323586
2	0	0	1	0	1	26.6233	0.416236	0.416422	-0.424097	2	0.0184695	9	0	0.000000000000000E+000	-0.000176603
2	0	0	1	0	1	26.7232	0.417233	0.417119	-0.401008	2	0.0185586	9	0	0.000000000000000E+000	-0.000167268
2	0	0	1	0	1	26.8231	0.418233	0.417293	-0.153176	2	0.0186454	9	0	0.000000000000000E+000	-6.39193e-05
2	0	0	1	0	1	26.923	0.419232	0.419568	0.0448225	2	0.0187382	9	0	0.000000000000000E+000	1.88061e-05
2	0	0	1	0	1	26.9894	0.419906	0.417104	-47.415	2	0.0185226	9	0	0.0215	-0.019777