File: ACS_Catal_2026/Figures_Na_K/main_figures/data/EC/20251112_2-148_alpha_reproducibility/20251112_2-148_004_Na_first_2_K2_02_PEIS_C02.mpt
EC-Lab ASCII FILE
Nb header lines : 63

Potentio Electrochemical Impedance Spectroscopy

Run on channel : 2 (SN 69290)
User :
CE vs. WE compliance from -10 V to 10 V
Electrode connection : standard
Potential control : Ewe
Ewe ctrl range : min = -1.00 V, max = 1.00 V
Safety Limits :
	Do not start on E overload
Acquisition started on : 11/12/2025 17:44:04.753
Loaded Setting File :  C:\Users\User\Documents\EC-Lab\Data\Yatsuzuka\20251112_2-148_alpha_reproducibility\20251112_2-148_002_alpha_reproducibility_2_K1.mps
Saved on :
	File : 20251112_2-148_004_Na_first_2_K2_02_PEIS_C02.mpr
	Directory : C:\Users\User\Documents\EC-Lab\Data\Yatsuzuka\20251112_2-148_alpha_reproducibility\
	Host : 192.109.209.127
Device : SP-150e (SN .003883)
Address : 192.109.209.128
EC-Lab for windows v11.52 (software)
Internet server v11.52 (firmware)
Command interpretor v11.50 (firmware)
Electrode material :
Initial state :
Electrolyte :
Comments :
Electrode surface area : 0.001 cm2
Characteristic mass : 0.001 g
Equivalent Weight : 0.000 g/eq.
Density : 0.000 g/cm3
Volume (V) : 0.001 cm3
Cycle Definition : Charge/Discharge alternance
Mode                Single sine
E (V)               0.4500
vs.                 Ref
tE (h:m:s)          0:00:0.0000
record              0
dI                  0.000
unit dI             mA
dt (s)              0.000
fi                  500.000
unit fi             kHz
ff                  1.000
unit ff             Hz
Nd                  6
Points              per decade
spacing             Logarithmic
Va (mV)             10.0
pw                  0.10
Na                  2
corr                0
E range min (V)     -1.000
E range max (V)     1.000
I Range             Auto
Bandwidth           5
nc cycles           0
goto Ns'            0
nr cycles           0
inc. cycle          0

freq/Hz	Re(Z)/Ohm	-Im(Z)/Ohm	|Z|/Ohm	Phase(Z)/deg	time/s	<Ewe>/V	<I>/mA	Cs/uF	Cp/uF	cycle number	I Range	|Ewe|/V	|I|/A	Ns	(Q-Qo)/mA.h	Re(Y)/Ohm-1	Im(Y)/Ohm-1	|Y|/Ohm-1	Phase(Y)/deg	Re(C)/nF	Im(C)/nF	|C|/nF	Phase(C)/deg	Re(M)	Im(M)	|M|	Phase(M)/deg	Re(Permittivity)	Im(Permittivity)	|Permittivity|	Phase(Permittivity)/deg	Re(Resistivity)/Ohm.cm	Im(Resistivity)/Ohm.cm	|Resistivity|/Ohm.cm	Phase(Resistivity)/deg	Re(Conductivity)/mS/cm	Im(Conductivity)/mS/cm	|Conductivity|/mS/cm	Phase(Conductivity)/deg	Tan(Delta)	Loss Angle(Delta)/deg	dq/mA.h
500019	11.9318	-2.85402	12.2684	13.4521	201.943	0.449791	0.0190185	-0.111526	-0.00603553	1	10	0.00438919	0.000357764	0	3.2596e-05	0.079274	-0.0189619	0.0815102	-13.4521	-6.03553	25.2328	25.9445	-103.452	0.0000000E+000	0.0000000E+000	0.0000000E+000	103.452	0.0000000E+000	0.0000000E+000	0.0000000E+000	-103.452	0.0000000E+000	0.0000000E+000	0.0000000E+000	13.4521	0.0000000E+000	0.0000000E+000	0.0000000E+000	-13.4521	4.18071	76.5479	3.2596e-05
339899	7.61324	-1.74417	7.81048	12.9036	202.365	0.449683	0.0180378	-0.268461	-0.0133876	1	10	0.00647899	0.000829525	0	3.43226e-05	0.1248	-0.0285912	0.128033	-12.9036	-13.3876	58.4365	59.9504	-102.904	0.0000000E+000	0.0000000E+000	0.0000000E+000	102.904	0.0000000E+000	0.0000000E+000	0.0000000E+000	-102.904	0.0000000E+000	0.0000000E+000	0.0000000E+000	12.9036	0.0000000E+000	0.0000000E+000	0.0000000E+000	-12.9036	4.36497	77.0964	1.72653e-06
231063	6.09209	-0.952454	6.1661	8.88585	202.651	0.449556	0.0177637	-0.72318	-0.017255	1	10	0.0109228	0.00177143	0	3.43519e-05	0.160231	-0.0250509	0.162177	-8.88585	-17.255	110.366	111.707	-98.8858	0.0000000E+000	0.0000000E+000	0.0000000E+000	98.8858	0.0000000E+000	0.0000000E+000	0.0000000E+000	-98.8858	0.0000000E+000	0.0000000E+000	0.0000000E+000	8.88585	0.0000000E+000	0.0000000E+000	0.0000000E+000	-8.88585	6.3962	81.1142	2.93082e-08
157076	5.56195	-0.470848	5.58185	4.83884	203.209	0.449536	0.0176518	-2.15194	-0.0153121	1	10	0.0101044	0.00181022	0	4.13844e-05	0.178514	-0.0151121	0.179152	-4.83884	-15.3121	180.877	181.524	-94.8388	0.0000000E+000	0.0000000E+000	0.0000000E+000	94.8388	0.0000000E+000	0.0000000E+000	0.0000000E+000	-94.8388	0.0000000E+000	0.0000000E+000	0.0000000E+000	4.83884	0.0000000E+000	0.0000000E+000	0.0000000E+000	-4.83884	11.8126	85.1612	7.03248e-06
106786	5.42227	-0.233527	5.42729	2.4661	203.631	0.44954	0.017072	-6.38216	-0.0118161	1	10	0.0108581	0.00200065	0	4.3839e-05	0.184083	-0.00792812	0.184254	-2.4661	-11.8161	274.359	274.613	-92.4661	0.0000000E+000	0.0000000E+000	0.0000000E+000	92.4661	0.0000000E+000	0.0000000E+000	0.0000000E+000	-92.4661	0.0000000E+000	0.0000000E+000	0.0000000E+000	2.4661	0.0000000E+000	0.0000000E+000	0.0000000E+000	-2.4661	23.219	87.5339	2.45459e-06
72595	5.37662	-0.125532	5.37808	1.33748	204.053	0.44955	0.0163541	-17.4646	-0.00951508	1	10	0.0107596	0.00200065	0	4.78579e-05	0.185889	-0.00434009	0.18594	-1.33748	-9.51509	407.537	407.649	-91.3375	0.0000000E+000	0.0000000E+000	0.0000000E+000	91.3375	0.0000000E+000	0.0000000E+000	0.0000000E+000	-91.3375	0.0000000E+000	0.0000000E+000	0.0000000E+000	1.33748	0.0000000E+000	0.0000000E+000	0.0000000E+000	-1.33748	42.8307	88.6625	4.019e-06
49352.4	5.36267	-0.0698569	5.36313	0.746321	204.475	0.449546	0.0157836	-46.164	-0.00783222	1	10	0.0106229	0.00198072	0	4.97819e-05	0.186442	-0.00242869	0.186458	-0.746321	-7.83223	601.253	601.304	-90.7463	0.0000000E+000	0.0000000E+000	0.0000000E+000	90.7463	0.0000000E+000	0.0000000E+000	0.0000000E+000	-90.7463	0.0000000E+000	0.0000000E+000	0.0000000E+000	0.746321	0.0000000E+000	0.0000000E+000	0.0000000E+000	-0.746321	76.7666	89.2537	1.92399e-06
33551.1	5.34908	-0.0403487	5.34923	0.43218	204.897	0.449558	0.0153939	-117.567	-0.00668899	1	10	0.0105587	0.00197387	0	4.82123e-05	0.186937	-0.00141009	0.186943	-0.43218	-6.68902	886.768	886.793	-90.4322	0.0000000E+000	0.0000000E+000	0.0000000E+000	90.4322	0.0000000E+000	0.0000000E+000	0.0000000E+000	-90.4322	0.0000000E+000	0.0000000E+000	0.0000000E+000	0.43218	0.0000000E+000	0.0000000E+000	0.0000000E+000	-0.43218	132.571	89.5678	-1.56964e-06
22806.6	5.34931	-0.0187118	5.34935	0.200418	205.319	0.449556	0.0156699	-372.946	-0.00456324	1	10	0.0104964	0.00196219	0	4.99347e-05	0.186938	-0.000653902	0.186939	-0.200418	-4.5632	1304.54	1304.55	-90.2004	0.0000000E+000	0.0000000E+000	0.0000000E+000	90.2004	0.0000000E+000	0.0000000E+000	0.0000000E+000	-90.2004	0.0000000E+000	0.0000000E+000	0.0000000E+000	0.200418	0.0000000E+000	0.0000000E+000	0.0000000E+000	-0.200418	285.88	89.7996	1.72243e-06
15504.4	5.3482	-0.00130149	5.3482	0.013943	205.741	0.449557	0.0154834	-7887.24	-0.00046708	1	10	0.0103914	0.00194297	0	4.76518e-05	0.186979	-4.55014e-05	0.186979	-0.013943	-0.467199	1919.37	1919.37	-90.0139	0.0000000E+000	0.0000000E+000	0.0000000E+000	90.0139	0.0000000E+000	0.0000000E+000	0.0000000E+000	-90.0139	0.0000000E+000	0.0000000E+000	0.0000000E+000	0.013943	0.0000000E+000	0.0000000E+000	0.0000000E+000	-0.013943	4109.29	89.9861	-2.28292e-06
10540.4	5.35126	0.00431071	5.35126	-0.0461546	206.163	0.449557	0.0148196	3502.8	0.002273	1	10	0.0103156	0.00192769	0	5.04647e-05	0.186872	0.000150534	0.186872	0.0461546	2.27316	2821.68	2821.68	-89.9538	0.0000000E+000	0.0000000E+000	0.0000000E+000	89.9538	0.0000000E+000	0.0000000E+000	0.0000000E+000	-89.9538	0.0000000E+000	0.0000000E+000	0.0000000E+000	-0.0461546	0.0000000E+000	0.0000000E+000	0.0000000E+000	0.0461546	1241.39	89.9538	2.81286e-06
7163.78	5.35402	0.0151402	5.35404	-0.162021	206.687	0.449543	0.0130428	1467.39	0.011734	1	10	0.0102071	0.00190644	0	5.44617e-05	0.186774	0.000528162	0.186775	0.162021	11.7337	4149.49	4149.5	-89.838	0.0000000E+000	0.0000000E+000	0.0000000E+000	89.838	0.0000000E+000	0.0000000E+000	0.0000000E+000	-89.838	0.0000000E+000	0.0000000E+000	0.0000000E+000	-0.162021	0.0000000E+000	0.0000000E+000	0.0000000E+000	0.162021	353.63	89.838	3.99704e-06
4871.56	5.35384	0.0307514	5.35393	-0.329092	207.375	0.449554	0.0171391	1062.4	0.0350487	1	10	0.0101471	0.00189526	0	6.14102e-05	0.186776	0.0010728	0.186779	0.329092	35.0489	6102.01	6102.11	-89.6709	0.0000000E+000	0.0000000E+000	0.0000000E+000	89.6709	0.0000000E+000	0.0000000E+000	0.0000000E+000	-89.6709	0.0000000E+000	0.0000000E+000	0.0000000E+000	-0.329092	0.0000000E+000	0.0000000E+000	0.0000000E+000	0.329092	174.101	89.6709	6.94849e-06
3311.06	5.36517	0.0414536	5.36533	-0.442682	207.84	0.449545	0.0176146	1159.56	0.0692184	1	10	0.0107684	0.00200703	0	6.53043e-05	0.186376	0.00144002	0.186382	0.442682	69.2181	8958.67	8958.94	-89.5573	0.0000000E+000	0.0000000E+000	0.0000000E+000	89.5573	0.0000000E+000	0.0000000E+000	0.0000000E+000	-89.5573	0.0000000E+000	0.0000000E+000	0.0000000E+000	-0.442682	0.0000000E+000	0.0000000E+000	0.0000000E+000	0.442682	129.426	89.5573	3.89414e-06
2250.72	5.36563	0.0564872	5.36593	-0.603165	208.527	0.449556	0.0158302	1251.84	0.138726	1	10	0.0101366	0.00188908	0	6.4653e-05	0.186351	0.00196183	0.186361	0.603165	138.726	13177.4	13178.1	-89.3968	0.0000000E+000	0.0000000E+000	0.0000000E+000	89.3968	0.0000000E+000	0.0000000E+000	0.0000000E+000	-89.3968	0.0000000E+000	0.0000000E+000	0.0000000E+000	-0.603165	0.0000000E+000	0.0000000E+000	0.0000000E+000	0.603165	94.9884	89.3968	-6.5128e-07
1530.49	5.37424	0.0792823	5.37482	-0.845182	208.992	0.449549	0.018241	1311.64	0.285389	1	10	0.0102895	0.00191439	0	6.70165e-05	0.186032	0.0027444	0.186053	0.845182	285.39	19345.4	19347.5	-89.1548	0.0000000E+000	0.0000000E+000	0.0000000E+000	89.1548	0.0000000E+000	0.0000000E+000	0.0000000E+000	-89.1548	0.0000000E+000	0.0000000E+000	0.0000000E+000	-0.845182	0.0000000E+000	0.0000000E+000	0.0000000E+000	0.845182	67.7861	89.1548	2.36344e-06
1040.33	5.3753	0.108247	5.37639	-1.15366	209.457	0.449551	0.0159831	1413.29	0.572907	1	10	0.0103535	0.00192573	0	7.01731e-05	0.185961	0.00374487	0.185998	1.15366	572.907	28449.1	28454.9	-88.8463	0.0000000E+000	0.0000000E+000	0.0000000E+000	88.8463	0.0000000E+000	0.0000000E+000	0.0000000E+000	-88.8463	0.0000000E+000	0.0000000E+000	0.0000000E+000	-1.15366	0.0000000E+000	0.0000000E+000	0.0000000E+000	1.15366	49.6575	88.8463	3.1566e-06
707.036	5.38268	0.153994	5.38488	-1.63873	209.922	0.449546	0.0183641	1461.76	1.19544	1	10	0.0103859	0.00192872	0	7.20903e-05	0.185629	0.00531069	0.185705	1.63873	1195.44	41785.4	41802.5	-88.3613	0.0000000E+000	0.0000000E+000	0.0000000E+000	88.3613	0.0000000E+000	0.0000000E+000	0.0000000E+000	-88.3613	0.0000000E+000	0.0000000E+000	0.0000000E+000	-1.63873	0.0000000E+000	0.0000000E+000	0.0000000E+000	1.63873	34.9539	88.3613	1.91725e-06
480.769	5.39318	0.221697	5.39773	-2.35393	210.387	0.449547	0.015049	1493.22	2.51896	1	10	0.0104079	0.00192819	0	7.37436e-05	0.185107	0.00760917	0.185263	2.35393	2518.96	61278.1	61329.9	-87.6461	0.0000000E+000	0.0000000E+000	0.0000000E+000	87.6461	0.0000000E+000	0.0000000E+000	0.0000000E+000	-87.6461	0.0000000E+000	0.0000000E+000	0.0000000E+000	-2.35393	0.0000000E+000	0.0000000E+000	0.0000000E+000	2.35393	24.3268	87.6461	1.65328e-06
326.778	5.40277	0.31357	5.41186	-3.32165	210.85	0.449542	0.0179166	1553.22	5.21446	1	10	0.0104137	0.00192424	0	7.64899e-05	0.184469	0.0107064	0.184779	3.32165	5214.47	89844.4	89995.6	-86.6783	0.0000000E+000	0.0000000E+000	0.0000000E+000	86.6783	0.0000000E+000	0.0000000E+000	0.0000000E+000	-86.6783	0.0000000E+000	0.0000000E+000	0.0000000E+000	-3.32165	0.0000000E+000	0.0000000E+000	0.0000000E+000	3.32165	17.2299	86.6783	2.74627e-06
222.061	5.41626	0.445129	5.43452	-4.69823	211.311	0.449547	0.0158116	1610.14	10.8022	1	10	0.0104163	0.00191669	0	7.72978e-05	0.183391	0.0150718	0.184009	4.69823	10802.2	131439	131883	-85.3018	0.0000000E+000	0.0000000E+000	0.0000000E+000	85.3018	0.0000000E+000	0.0000000E+000	0.0000000E+000	-85.3018	0.0000000E+000	0.0000000E+000	0.0000000E+000	-4.69823	0.0000000E+000	0.0000000E+000	0.0000000E+000	4.69823	12.1678	85.3018	8.07938e-07
151.015	5.43705	0.633671	5.47385	-6.64765	211.773	0.449545	0.0172584	1663.17	22.2884	1	10	0.0104194	0.00190348	0	8.02615e-05	0.181458	0.0211484	0.182687	6.64765	22288.4	191240	192534	-83.3523	0.0000000E+000	0.0000000E+000	0.0000000E+000	83.3523	0.0000000E+000	0.0000000E+000	0.0000000E+000	-83.3523	0.0000000E+000	0.0000000E+000	0.0000000E+000	-6.64765	0.0000000E+000	0.0000000E+000	0.0000000E+000	6.64765	8.58024	83.3523	2.96366e-06
102.667	5.46466	0.904173	5.53896	-9.39494	212.248	0.449558	0.016466	1714.49	45.686	1	10	0.0104236	0.00188188	0	8.39318e-05	0.178118	0.029471	0.180539	9.39494	45686	276118	279872	-80.6051	0.0000000E+000	0.0000000E+000	0.0000000E+000	80.6051	0.0000000E+000	0.0000000E+000	0.0000000E+000	-80.6051	0.0000000E+000	0.0000000E+000	0.0000000E+000	-9.39494	0.0000000E+000	0.0000000E+000	0.0000000E+000	9.39494	6.04382	80.6051	3.67027e-06
69.7545	5.49968	1.29697	5.65054	-13.2695	212.715	0.449543	0.0176798	1759.21	92.6828	1	10	0.0104273	0.00184536	0	8.67872e-05	0.172249	0.0406211	0.176974	13.2695	92682.9	393012	403792	-76.7305	0.0000000E+000	0.0000000E+000	0.0000000E+000	76.7305	0.0000000E+000	0.0000000E+000	0.0000000E+000	-76.7305	0.0000000E+000	0.0000000E+000	0.0000000E+000	-13.2695	0.0000000E+000	0.0000000E+000	0.0000000E+000	13.2695	4.24039	76.7305	2.85543e-06
47.4443	5.54185	1.85816	5.84507	-18.5361	213.159	0.449546	0.0152373	1805.31	182.448	1	10	0.0104286	0.00178416	0	9.02259e-05	0.162209	0.0543881	0.171084	18.5361	182448	544140	573913	-71.4639	0.0000000E+000	0.0000000E+000	0.0000000E+000	71.4639	0.0000000E+000	0.0000000E+000	0.0000000E+000	-71.4639	0.0000000E+000	0.0000000E+000	0.0000000E+000	-18.5361	0.0000000E+000	0.0000000E+000	0.0000000E+000	18.5361	2.98243	71.4639	3.43872e-06
32.2387	5.59642	2.67281	6.20192	-25.5288	213.596	0.449535	0.0135014	1847.04	343.051	1	10	0.0104398	0.00168332	0	9.14821e-05	0.145498	0.0694888	0.16124	25.5288	343051	718292	796007	-64.4712	0.0000000E+000	0.0000000E+000	0.0000000E+000	64.4712	0.0000000E+000	0.0000000E+000	0.0000000E+000	-64.4712	0.0000000E+000	0.0000000E+000	0.0000000E+000	-25.5288	0.0000000E+000	0.0000000E+000	0.0000000E+000	25.5288	2.09384	64.4712	1.25618e-06
21.9144	5.66349	3.87008	6.85949	-34.3463	214.027	0.449534	0.0131546	1876.59	597.346	1	10	0.0104497	0.00152339	0	9.73874e-05	0.120365	0.0822501	0.145783	34.3463	597346	874158	1.05876e+06	-55.6537	0.0000000E+000	0.0000000E+000	0.0000000E+000	55.6537	0.0000000E+000	0.0000000E+000	0.0000000E+000	-55.6537	0.0000000E+000	0.0000000E+000	0.0000000E+000	-34.3463	0.0000000E+000	0.0000000E+000	0.0000000E+000	34.3463	1.4634	55.6537	5.90533e-06
14.9093	5.74238	5.61145	8.0289	-44.3393	214.495	0.449548	0.0190111	1902.33	929.232	1	10	0.0104503	0.00130158	0	0.000100187	0.0890799	0.0870488	0.12455	44.3393	929232	950914	1.32955e+06	-45.6607	0.0000000E+000	0.0000000E+000	0.0000000E+000	45.6607	0.0000000E+000	0.0000000E+000	0.0000000E+000	-45.6607	0.0000000E+000	0.0000000E+000	0.0000000E+000	-44.3393	0.0000000E+000	0.0000000E+000	0.0000000E+000	44.3393	1.02333	45.6607	2.79986e-06
10.1329	5.90532	8.1514	10.0657	-54.0784	214.954	0.449551	0.0148923	1926.87	1263.66	1	10	0.0104452	0.0010377	0	9.73255e-05	0.0582849	0.0804535	0.0993474	54.0784	1.26366e+06	915462	1.56042e+06	-35.9216	0.0000000E+000	0.0000000E+000	0.0000000E+000	35.9216	0.0000000E+000	0.0000000E+000	0.0000000E+000	-35.9216	0.0000000E+000	0.0000000E+000	0.0000000E+000	-54.0784	0.0000000E+000	0.0000000E+000	0.0000000E+000	54.0784	0.724454	35.9216	-2.86177e-06
6.88933	5.99574	11.8605	13.2899	-63.1824	215.507	0.449547	0.000997288	1947.78	1551.33	1	11	0.0104624	0.000787247	0	9.82745e-05	0.033947	0.0671525	0.0752453	63.1824	1.55133e+06	784232	1.73829e+06	-26.8176	0.0000000E+000	0.0000000E+000	0.0000000E+000	26.8176	0.0000000E+000	0.0000000E+000	0.0000000E+000	-26.8176	0.0000000E+000	0.0000000E+000	0.0000000E+000	-63.1824	0.0000000E+000	0.0000000E+000	0.0000000E+000	63.1824	0.505521	26.8176	9.48979e-07
4.68375	6.31199	17.0716	18.2011	-69.7088	216.004	0.449556	0.00180881	1990.45	1751.07	1	11	0.0104621	0.000574802	0	0.000106811	0.0190533	0.0515321	0.0549416	69.7088	1.75107e+06	647434	1.86693e+06	-20.2912	0.0000000E+000	0.0000000E+000	0.0000000E+000	20.2912	0.0000000E+000	0.0000000E+000	0.0000000E+000	-20.2912	0.0000000E+000	0.0000000E+000	0.0000000E+000	-69.7088	0.0000000E+000	0.0000000E+000	0.0000000E+000	69.7088	0.369736	20.2912	8.53694e-06
3.18099	6.7451	25.0085	25.9022	-74.9058	216.706	0.449554	0.00171176	2000.65	1864.98	1	11	0.0104553	0.000403647	0	0.000103566	0.0100535	0.0372748	0.0386068	74.9058	1.86498e+06	503007	1.93162e+06	-15.0942	0.0000000E+000	0.0000000E+000	0.0000000E+000	15.0942	0.0000000E+000	0.0000000E+000	0.0000000E+000	-15.0942	0.0000000E+000	0.0000000E+000	0.0000000E+000	-74.9058	0.0000000E+000	0.0000000E+000	0.0000000E+000	74.9058	0.269712	15.0942	-3.24567e-06
2.16533	7.25128	36.1929	36.9122	-78.6707	217.717	0.449568	0.00203305	2030.83	1952.45	1	11	0.0104566	0.000283283	0	9.83066e-05	0.005322	0.0265634	0.0270913	78.6707	1.95245e+06	391176	1.99126e+06	-11.3293	0.0000000E+000	0.0000000E+000	0.0000000E+000	11.3293	0.0000000E+000	0.0000000E+000	0.0000000E+000	-11.3293	0.0000000E+000	0.0000000E+000	0.0000000E+000	-78.6707	0.0000000E+000	0.0000000E+000	0.0000000E+000	78.6707	0.200351	11.3293	-5.25911e-06
1.46962	7.97711	52.8557	53.4543	-81.4175	219.917	0.449568	0.000293333	2048.91	2003.28	1	12	0.0104598	0.000195678	0	9.99327e-05	0.00279178	0.0184981	0.0187076	81.4175	2.00328e+06	302340	2.02597e+06	-8.58245	0.0000000E+000	0.0000000E+000	0.0000000E+000	8.58245	0.0000000E+000	0.0000000E+000	0.0000000E+000	-8.58245	0.0000000E+000	0.0000000E+000	0.0000000E+000	-81.4175	0.0000000E+000	0.0000000E+000	0.0000000E+000	81.4175	0.150923	8.58246	1.62604e-06
1.00006	9.02351	76.9431	77.4704	-83.3112	222.057	0.449567	0.000217713	2068.34	2040.28	1	12	0.0104566	0.000134976	0	0.000105178	0.0015035	0.0128203	0.0129082	83.3112	2.04028e+06	239274	2.05427e+06	-6.68881	0.0000000E+000	0.0000000E+000	0.0000000E+000	6.68881	0.0000000E+000	0.0000000E+000	0.0000000E+000	-6.68881	0.0000000E+000	0.0000000E+000	0.0000000E+000	-83.3112	0.0000000E+000	0.0000000E+000	0.0000000E+000	83.3112	0.117275	6.68881	5.24498e-06