File: ACS_Catal_2026/Figures_Na_K/main_figures/data/EC/20251112_2-148_alpha_reproducibility/20251112_2-148_003_alpha_Na_first_1_Na2_02_PEIS_C01.mpt
EC-Lab ASCII FILE
Nb header lines : 63

Potentio Electrochemical Impedance Spectroscopy

Run on channel : 1 (SN 69187)
User :
CE vs. WE compliance from -10 V to 10 V
Electrode connection : standard
Potential control : Ewe
Ewe ctrl range : min = -1.00 V, max = 1.00 V
Safety Limits :
	Do not start on E overload
Acquisition started on : 11/12/2025 17:08:42.026
Loaded Setting File :  C:\Users\User\Documents\EC-Lab\Data\Yatsuzuka\20251030_2-147_gamma_reproducibility\20251030_2-147_001_gamma1_K_1.mps
Saved on :
	File : 20251112_2-148_003_alpha_Na_first_1_Na2_02_PEIS_C01.mpr
	Directory : C:\Users\User\Documents\EC-Lab\Data\Yatsuzuka\20251112_2-148_alpha_reproducibility\
	Host : 192.109.209.127
Device : SP-150e (SN .003883)
Address : 192.109.209.128
EC-Lab for windows v11.52 (software)
Internet server v11.52 (firmware)
Command interpretor v11.50 (firmware)
Electrode material :
Initial state :
Electrolyte :
Comments :
Electrode surface area : 0.001 cm2
Characteristic mass : 0.001 g
Equivalent Weight : 0.000 g/eq.
Density : 0.000 g/cm3
Volume (V) : 0.001 cm3
Cycle Definition : Charge/Discharge alternance
Mode                Single sine
E (V)               0.4500
vs.                 Ref
tE (h:m:s)          0:00:0.0000
record              0
dI                  0.000
unit dI             mA
dt (s)              0.000
fi                  500.000
unit fi             kHz
ff                  1.000
unit ff             Hz
Nd                  6
Points              per decade
spacing             Logarithmic
Va (mV)             10.0
pw                  0.10
Na                  2
corr                0
E range min (V)     -1.000
E range max (V)     1.000
I Range             Auto
Bandwidth           5
nc cycles           0
goto Ns'            0
nr cycles           0
inc. cycle          0

freq/Hz	Re(Z)/Ohm	-Im(Z)/Ohm	|Z|/Ohm	Phase(Z)/deg	time/s	<Ewe>/V	<I>/mA	Cs/uF	Cp/uF	cycle number	I Range	|Ewe|/V	|I|/A	Ns	(Q-Qo)/mA.h	Re(Y)/Ohm-1	Im(Y)/Ohm-1	|Y|/Ohm-1	Phase(Y)/deg	Re(C)/nF	Im(C)/nF	|C|/nF	Phase(C)/deg	Re(M)	Im(M)	|M|	Phase(M)/deg	Re(Permittivity)	Im(Permittivity)	|Permittivity|	Phase(Permittivity)/deg	Re(Resistivity)/Ohm.cm	Im(Resistivity)/Ohm.cm	|Resistivity|/Ohm.cm	Phase(Resistivity)/deg	Re(Conductivity)/mS/cm	Im(Conductivity)/mS/cm	|Conductivity|/mS/cm	Phase(Conductivity)/deg	Tan(Delta)	Loss Angle(Delta)/deg	dq/mA.h
500019	17.9272	-2.76401	18.139	8.76481	201.599	0.450131	0.0135076	-0.115158	-0.0026739	1	10	0.00574493	0.000316716	0	2.16e-05	0.0544859	-0.00840061	0.0551297	-8.76481	-2.6739	17.3428	17.5477	-98.7648	0.0000000E+000	0.0000000E+000	0.0000000E+000	98.7648	0.0000000E+000	0.0000000E+000	0.0000000E+000	-98.7648	0.0000000E+000	0.0000000E+000	0.0000000E+000	8.76481	0.0000000E+000	0.0000000E+000	0.0000000E+000	-8.76481	6.48595	81.2352	2.16e-05
339899	12.7815	-1.84307	12.9137	8.20539	201.885	0.449996	0.013597	-0.254055	-0.00517499	1	10	0.00935985	0.000724799	0	2.23061e-05	0.0766443	-0.011052	0.077437	-8.20539	-5.17499	35.888	36.2592	-98.2054	0.0000000E+000	0.0000000E+000	0.0000000E+000	98.2054	0.0000000E+000	0.0000000E+000	0.0000000E+000	-98.2054	0.0000000E+000	0.0000000E+000	0.0000000E+000	8.20539	0.0000000E+000	0.0000000E+000	0.0000000E+000	-8.20539	6.9349	81.7946	7.06112e-07
231063	10.9099	-1.08267	10.9635	5.66734	202.307	0.449806	0.0150431	-0.636201	-0.00620428	1	10	0.0105326	0.000960697	0	2.49717e-05	0.0907662	-0.00900743	0.0912121	-5.66734	-6.20428	62.5194	62.8265	-95.6673	0.0000000E+000	0.0000000E+000	0.0000000E+000	95.6673	0.0000000E+000	0.0000000E+000	0.0000000E+000	-95.6673	0.0000000E+000	0.0000000E+000	0.0000000E+000	5.66734	0.0000000E+000	0.0000000E+000	0.0000000E+000	-5.66734	10.0768	84.3327	2.66558e-06
157076	10.206	-0.585522	10.2228	3.28347	202.865	0.449769	0.0127753	-1.73048	-0.00567692	1	10	0.0101087	0.000988835	0	2.49612e-05	0.0976598	-0.00560276	0.0978204	-3.28347	-5.67692	98.9525	99.1152	-93.2835	0.0000000E+000	0.0000000E+000	0.0000000E+000	93.2835	0.0000000E+000	0.0000000E+000	0.0000000E+000	-93.2835	0.0000000E+000	0.0000000E+000	0.0000000E+000	3.28347	0.0000000E+000	0.0000000E+000	0.0000000E+000	-3.28347	17.4307	86.7165	-1.05436e-08
106786	9.98248	-0.295343	9.98684	1.69467	203.287	0.449768	0.0109361	-5.04636	-0.00441341	1	10	0.0107675	0.00107817	0	2.72895e-05	0.100088	-0.00296121	0.100132	-1.69467	-4.41341	149.172	149.237	-91.6947	0.0000000E+000	0.0000000E+000	0.0000000E+000	91.6947	0.0000000E+000	0.0000000E+000	0.0000000E+000	-91.6947	0.0000000E+000	0.0000000E+000	0.0000000E+000	1.69467	0.0000000E+000	0.0000000E+000	0.0000000E+000	-1.69467	33.7996	88.3053	2.32833e-06
72595	9.91863	-0.162555	9.91996	0.938929	203.709	0.449759	0.0110479	-13.4869	-0.00362155	1	10	0.0107226	0.00108091	0	2.71154e-05	0.100793	-0.00165189	0.100807	-0.938929	-3.62154	220.976	221.006	-90.9389	0.0000000E+000	0.0000000E+000	0.0000000E+000	90.9389	0.0000000E+000	0.0000000E+000	0.0000000E+000	-90.9389	0.0000000E+000	0.0000000E+000	0.0000000E+000	0.938929	0.0000000E+000	0.0000000E+000	0.0000000E+000	-0.938929	61.017	89.0611	-1.74046e-07
49352.4	9.88763	-0.0876008	9.88802	0.507606	204.131	0.44976	0.0127101	-36.8133	-0.00288936	1	10	0.0105842	0.00107041	0	2.93933e-05	0.101128	-0.000895961	0.101132	-0.507606	-2.88936	326.126	326.139	-90.5076	0.0000000E+000	0.0000000E+000	0.0000000E+000	90.5076	0.0000000E+000	0.0000000E+000	0.0000000E+000	-90.5076	0.0000000E+000	0.0000000E+000	0.0000000E+000	0.507606	0.0000000E+000	0.0000000E+000	0.0000000E+000	-0.507606	112.872	89.4924	2.27784e-06
33551.1	9.86941	-0.0503266	9.86954	0.292163	204.553	0.449758	0.0140256	-94.2576	-0.00245086	1	10	0.0105011	0.00106399	0	3.04315e-05	0.101321	-0.000516659	0.101322	-0.292163	-2.45083	480.631	480.637	-90.2922	0.0000000E+000	0.0000000E+000	0.0000000E+000	90.2922	0.0000000E+000	0.0000000E+000	0.0000000E+000	-90.2922	0.0000000E+000	0.0000000E+000	0.0000000E+000	0.292163	0.0000000E+000	0.0000000E+000	0.0000000E+000	-0.292163	196.107	89.7078	1.03825e-06
22806.6	9.86559	-0.0201529	9.86561	0.11704	204.975	0.449766	0.0151474	-346.277	-0.00144494	1	10	0.010455	0.00105974	0	3.11585e-05	0.101362	-0.000207056	0.101362	-0.11704	-1.44496	707.352	707.353	-90.117	0.0000000E+000	0.0000000E+000	0.0000000E+000	90.117	0.0000000E+000	0.0000000E+000	0.0000000E+000	-90.117	0.0000000E+000	0.0000000E+000	0.0000000E+000	0.11704	0.0000000E+000	0.0000000E+000	0.0000000E+000	-0.11704	489.538	89.883	7.26969e-07
15504.4	9.87051	-0.00642572	9.87052	0.0372997	205.397	0.449765	0.015112	-1597.51	-0.00067703	1	10	0.010383	0.00105192	0	3.09616e-05	0.101312	-6.59542e-05	0.101312	-0.0372997	-0.677038	1039.98	1039.98	-90.0373	0.0000000E+000	0.0000000E+000	0.0000000E+000	90.0373	0.0000000E+000	0.0000000E+000	0.0000000E+000	-90.0373	0.0000000E+000	0.0000000E+000	0.0000000E+000	0.0372997	0.0000000E+000	0.0000000E+000	0.0000000E+000	-0.0372997	1536.09	89.9627	-1.96888e-07
10540.4	9.86768	0.00424181	9.86768	-0.0246297	205.819	0.449762	0.0130939	3559.7	0.000657786	1	10	0.0102862	0.00104242	0	3.22012e-05	0.101341	4.35633e-05	0.101341	0.0246297	0.657733	1530.2	1530.2	-89.9754	0.0000000E+000	0.0000000E+000	0.0000000E+000	89.9754	0.0000000E+000	0.0000000E+000	0.0000000E+000	-89.9754	0.0000000E+000	0.0000000E+000	0.0000000E+000	-0.0246297	0.0000000E+000	0.0000000E+000	0.0000000E+000	0.0246297	2326.29	89.9754	1.23963e-06
7163.78	9.87109	0.0200135	9.87111	-0.116166	206.343	0.449743	0.0102745	1110.08	0.00456319	1	10	0.010118	0.00102501	0	3.19399e-05	0.101306	0.000205395	0.101306	0.116166	4.56315	2250.67	2250.67	-89.8838	0.0000000E+000	0.0000000E+000	0.0000000E+000	89.8838	0.0000000E+000	0.0000000E+000	0.0000000E+000	-89.8838	0.0000000E+000	0.0000000E+000	0.0000000E+000	-0.116166	0.0000000E+000	0.0000000E+000	0.0000000E+000	0.116166	493.222	89.8838	-2.61306e-07
4871.56	9.87883	0.0286058	9.87887	-0.165909	206.811	0.449764	0.0123709	1142.09	0.00957614	1	10	0.0108391	0.0010972	0	3.3074e-05	0.101226	0.000293115	0.101226	0.165909	9.57615	3307.07	3307.08	-89.8341	0.0000000E+000	0.0000000E+000	0.0000000E+000	89.8341	0.0000000E+000	0.0000000E+000	0.0000000E+000	-89.8341	0.0000000E+000	0.0000000E+000	0.0000000E+000	-0.165909	0.0000000E+000	0.0000000E+000	0.0000000E+000	0.165909	345.344	89.8341	1.1341e-06
3311.06	9.87392	0.0429613	9.87401	-0.249292	207.498	0.449764	0.0131703	1118.86	0.0211808	1	10	0.010156	0.00102856	0	3.46501e-05	0.101275	0.000440646	0.101276	0.249292	21.1807	4868.05	4868.1	-89.7507	0.0000000E+000	0.0000000E+000	0.0000000E+000	89.7507	0.0000000E+000	0.0000000E+000	0.0000000E+000	-89.7507	0.0000000E+000	0.0000000E+000	0.0000000E+000	-0.249292	0.0000000E+000	0.0000000E+000	0.0000000E+000	0.249292	229.833	89.7507	1.57608e-06
2250.72	9.88152	0.0565941	9.88169	-0.328144	207.963	0.449764	0.0125088	1249.47	0.0409834	1	10	0.0103406	0.00104644	0	3.53269e-05	0.101196	0.000579574	0.101197	0.328144	40.9838	7155.84	7155.95	-89.6719	0.0000000E+000	0.0000000E+000	0.0000000E+000	89.6719	0.0000000E+000	0.0000000E+000	0.0000000E+000	-89.6719	0.0000000E+000	0.0000000E+000	0.0000000E+000	-0.328144	0.0000000E+000	0.0000000E+000	0.0000000E+000	0.328144	174.603	89.6719	6.76839e-07
1530.49	9.88603	0.075247	9.88632	-0.436096	208.428	0.449763	0.0127809	1381.98	0.080059	1	10	0.0104211	0.00105409	0	3.60524e-05	0.101147	0.000769875	0.10115	0.436096	80.0591	10518.2	10518.5	-89.5639	0.0000000E+000	0.0000000E+000	0.0000000E+000	89.5639	0.0000000E+000	0.0000000E+000	0.0000000E+000	-89.5639	0.0000000E+000	0.0000000E+000	0.0000000E+000	-0.436096	0.0000000E+000	0.0000000E+000	0.0000000E+000	0.436096	131.381	89.5639	7.25495e-07
1040.33	9.90164	0.116602	9.90233	-0.674684	208.893	0.449758	0.012725	1312.03	0.181919	1	10	0.0104754	0.00105787	0	3.80967e-05	0.100979	0.00118913	0.100986	0.674684	181.919	15448.3	15449.4	-89.3253	0.0000000E+000	0.0000000E+000	0.0000000E+000	89.3253	0.0000000E+000	0.0000000E+000	0.0000000E+000	-89.3253	0.0000000E+000	0.0000000E+000	0.0000000E+000	-0.674684	0.0000000E+000	0.0000000E+000	0.0000000E+000	0.674684	84.9185	89.3253	2.04428e-06
707.036	9.90371	0.157941	9.90497	-0.913654	209.359	0.449762	0.0117802	1425.23	0.362382	1	10	0.0104919	0.00105926	0	3.90184e-05	0.100947	0.00160986	0.100959	0.913654	362.38	22723.2	22726.1	-89.0863	0.0000000E+000	0.0000000E+000	0.0000000E+000	89.0863	0.0000000E+000	0.0000000E+000	0.0000000E+000	-89.0863	0.0000000E+000	0.0000000E+000	0.0000000E+000	-0.913654	0.0000000E+000	0.0000000E+000	0.0000000E+000	0.913654	62.7053	89.0863	9.21628e-07
480.769	9.91057	0.216028	9.91293	-1.24872	209.824	0.449757	0.0130007	1532.41	0.727762	1	10	0.0105017	0.0010594	0	4.00325e-05	0.100854	0.0021984	0.100878	1.24872	727.761	33387.1	33395	-88.7513	0.0000000E+000	0.0000000E+000	0.0000000E+000	88.7513	0.0000000E+000	0.0000000E+000	0.0000000E+000	-88.7513	0.0000000E+000	0.0000000E+000	0.0000000E+000	-1.24872	0.0000000E+000	0.0000000E+000	0.0000000E+000	1.24872	45.8764	88.7513	1.01412e-06
326.778	9.92143	0.30828	9.92622	-1.77973	210.287	0.449754	0.0112025	1579.87	1.52386	1	10	0.0105038	0.00105819	0	4.08856e-05	0.100695	0.0031288	0.100743	1.77973	1523.86	49042.7	49066.4	-88.2203	0.0000000E+000	0.0000000E+000	0.0000000E+000	88.2203	0.0000000E+000	0.0000000E+000	0.0000000E+000	-88.2203	0.0000000E+000	0.0000000E+000	0.0000000E+000	-1.77973	0.0000000E+000	0.0000000E+000	0.0000000E+000	1.77973	32.1831	88.2203	8.53069e-07
222.061	9.93535	0.440352	9.9451	-2.53779	210.748	0.44976	0.0133958	1627.6	3.19102	1	10	0.0105055	0.00105635	0	4.32835e-05	0.100453	0.00445227	0.100552	2.53779	3191.02	71996.8	72067.4	-87.4622	0.0000000E+000	0.0000000E+000	0.0000000E+000	87.4622	0.0000000E+000	0.0000000E+000	0.0000000E+000	-87.4622	0.0000000E+000	0.0000000E+000	0.0000000E+000	-2.53779	0.0000000E+000	0.0000000E+000	0.0000000E+000	2.53779	22.5623	87.4622	2.39798e-06
151.015	9.95911	0.630269	9.97903	-3.62118	211.21	0.449756	0.010951	1672.15	6.67037	1	10	0.0105107	0.00105327	0	4.45061e-05	0.10001	0.00632921	0.10021	3.62118	6670.37	105401	105612	-86.3788	0.0000000E+000	0.0000000E+000	0.0000000E+000	86.3788	0.0000000E+000	0.0000000E+000	0.0000000E+000	-86.3788	0.0000000E+000	0.0000000E+000	0.0000000E+000	-3.62118	0.0000000E+000	0.0000000E+000	0.0000000E+000	3.62118	15.8014	86.3788	1.2226e-06
102.667	9.99283	0.89805	10.0331	-5.13534	211.685	0.449772	0.0124902	1726.19	13.8299	1	10	0.0105097	0.0010475	0	4.63333e-05	0.09927	0.00892134	0.0996701	5.13534	13829.9	153888	154509	-84.8647	0.0000000E+000	0.0000000E+000	0.0000000E+000	84.8647	0.0000000E+000	0.0000000E+000	0.0000000E+000	-84.8647	0.0000000E+000	0.0000000E+000	0.0000000E+000	-5.13534	0.0000000E+000	0.0000000E+000	0.0000000E+000	5.13534	11.1273	84.8647	1.82718e-06
69.7545	10.0323	1.2759	10.1131	-7.24791	212.152	0.449754	0.0111653	1788.26	28.4639	1	10	0.0105146	0.0010397	0	4.84057e-05	0.0980912	0.0124751	0.0988813	7.24791	28463.8	223809	225612	-82.7521	0.0000000E+000	0.0000000E+000	0.0000000E+000	82.7521	0.0000000E+000	0.0000000E+000	0.0000000E+000	-82.7521	0.0000000E+000	0.0000000E+000	0.0000000E+000	-7.24791	0.0000000E+000	0.0000000E+000	0.0000000E+000	7.24791	7.86293	82.7521	2.07243e-06
47.4443	10.0971	1.8463	10.2646	-10.3622	212.596	0.449757	0.010377	1816.91	58.7837	1	10	0.0105205	0.00102493	0	5.00713e-05	0.0958336	0.0175235	0.0974226	10.3622	58783.7	321480	326810	-79.6377	0.0000000E+000	0.0000000E+000	0.0000000E+000	79.6377	0.0000000E+000	0.0000000E+000	0.0000000E+000	-79.6377	0.0000000E+000	0.0000000E+000	0.0000000E+000	-10.3622	0.0000000E+000	0.0000000E+000	0.0000000E+000	10.3622	5.46886	79.6377	1.66552e-06
32.2387	10.1709	2.61786	10.5024	-14.434	213.033	0.44975	0.0111541	1885.8	117.17	1	10	0.0105216	0.00100183	0	5.04547e-05	0.0922112	0.0237341	0.0952167	14.434	117170	455226	470063	-75.566	0.0000000E+000	0.0000000E+000	0.0000000E+000	75.566	0.0000000E+000	0.0000000E+000	0.0000000E+000	-75.566	0.0000000E+000	0.0000000E+000	0.0000000E+000	-14.434	0.0000000E+000	0.0000000E+000	0.0000000E+000	14.434	3.88517	75.566	3.83463e-07
21.9144	10.2555	3.75983	10.9229	-20.1338	213.464	0.449744	0.0109528	1931.62	228.864	1	10	0.0105219	0.000963284	0	5.23688e-05	0.0859559	0.0315129	0.0915504	20.1338	228864	624259	664890	-69.8662	0.0000000E+000	0.0000000E+000	0.0000000E+000	69.8662	0.0000000E+000	0.0000000E+000	0.0000000E+000	-69.8662	0.0000000E+000	0.0000000E+000	0.0000000E+000	-20.1338	0.0000000E+000	0.0000000E+000	0.0000000E+000	20.1338	2.72764	69.8662	1.91406e-06
14.9093	10.5351	5.34494	11.8134	-26.9008	213.932	0.449758	0.0115901	1997.19	408.842	1	10	0.0105354	0.00089182	0	5.5036e-05	0.0754898	0.0382996	0.0846497	26.9008	408842	805842	903622	-63.0992	0.0000000E+000	0.0000000E+000	0.0000000E+000	63.0992	0.0000000E+000	0.0000000E+000	0.0000000E+000	-63.0992	0.0000000E+000	0.0000000E+000	0.0000000E+000	-26.9008	0.0000000E+000	0.0000000E+000	0.0000000E+000	26.9008	1.97104	63.0992	2.66726e-06
10.1329	10.6263	7.69722	13.1212	-35.9178	214.642	0.449759	0.00105351	2040.57	702.216	1	11	0.0105471	0.000803822	0	5.0031e-05	0.0617214	0.0447081	0.0762125	35.9178	702216	969438	1.19705e+06	-54.0822	0.0000000E+000	0.0000000E+000	0.0000000E+000	54.0822	0.0000000E+000	0.0000000E+000	0.0000000E+000	-54.0822	0.0000000E+000	0.0000000E+000	0.0000000E+000	-35.9178	0.0000000E+000	0.0000000E+000	0.0000000E+000	35.9178	1.38054	54.0822	-5.00503e-06
6.88933	10.8208	11.2484	15.6082	-46.1099	214.995	0.449748	5.41987e-05	2053.77	1066.66	1	11	0.0105459	0.000675664	0	5.747e-05	0.0444174	0.0461725	0.0640687	46.1099	1.06666e+06	1.02612e+06	1.48009e+06	-43.8901	0.0000000E+000	0.0000000E+000	0.0000000E+000	43.8901	0.0000000E+000	0.0000000E+000	0.0000000E+000	-43.8901	0.0000000E+000	0.0000000E+000	0.0000000E+000	-46.1099	0.0000000E+000	0.0000000E+000	0.0000000E+000	46.1099	0.961989	43.8901	7.43902e-06
4.68375	11.0625	16.1846	19.604	-55.6466	215.492	0.449761	0.000976155	2099.55	1430.99	1	11	0.0105505	0.000538182	0	5.09943e-05	0.0287847	0.0421124	0.0510099	55.6466	1.43099e+06	978110	1.73333e+06	-34.3534	0.0000000E+000	0.0000000E+000	0.0000000E+000	34.3534	0.0000000E+000	0.0000000E+000	0.0000000E+000	-34.3534	0.0000000E+000	0.0000000E+000	0.0000000E+000	-55.6466	0.0000000E+000	0.0000000E+000	0.0000000E+000	55.6466	0.68352	34.3534	-6.47572e-06
3.18099	11.5151	23.3834	26.0649	-63.7821	216.194	0.449755	0.0014594	2139.69	1722.08	1	11	0.0105511	0.000404802	0	5.0016e-05	0.0169495	0.0344187	0.0383657	63.7821	1.72208e+06	848036	1.91956e+06	-26.2179	0.0000000E+000	0.0000000E+000	0.0000000E+000	26.2179	0.0000000E+000	0.0000000E+000	0.0000000E+000	-26.2179	0.0000000E+000	0.0000000E+000	0.0000000E+000	-63.7821	0.0000000E+000	0.0000000E+000	0.0000000E+000	63.7821	0.49245	26.2179	-9.78267e-07
2.16533	11.8211	33.8759	35.8791	-70.7634	217.205	0.449769	0.00179724	2169.73	1934.21	1	11	0.0105485	0.000294001	0	5.69415e-05	0.00918275	0.0263152	0.0278713	70.7634	1.93421e+06	674947	2.04859e+06	-19.2366	0.0000000E+000	0.0000000E+000	0.0000000E+000	19.2366	0.0000000E+000	0.0000000E+000	0.0000000E+000	-19.2366	0.0000000E+000	0.0000000E+000	0.0000000E+000	-70.7634	0.0000000E+000	0.0000000E+000	0.0000000E+000	70.7634	0.348953	19.2366	6.92541e-06
1.46962	12.4541	49.4194	50.9645	-75.8555	219.405	0.449775	3.87839e-05	2191.38	2060.52	1	12	0.0105532	0.00020707	0	5.96027e-05	0.00479487	0.0190266	0.0196215	75.8555	2.06052e+06	519268	2.12494e+06	-14.1445	0.0000000E+000	0.0000000E+000	0.0000000E+000	14.1445	0.0000000E+000	0.0000000E+000	0.0000000E+000	-14.1445	0.0000000E+000	0.0000000E+000	0.0000000E+000	-75.8555	0.0000000E+000	0.0000000E+000	0.0000000E+000	75.8555	0.252008	14.1445	2.66129e-06
1.00006	13.4071	71.9135	73.1526	-79.4394	221.545	0.449778	0.00038817	2213	2138.67	1	12	0.0105517	0.000144243	0	5.53457e-05	0.00250539	0.0134385	0.01367	79.4394	2.13867e+06	398720	2.17552e+06	-10.5606	0.0000000E+000	0.0000000E+000	0.0000000E+000	10.5606	0.0000000E+000	0.0000000E+000	0.0000000E+000	-10.5606	0.0000000E+000	0.0000000E+000	0.0000000E+000	-79.4394	0.0000000E+000	0.0000000E+000	0.0000000E+000	79.4394	0.186434	10.5606	-4.25704e-06