File: ACS_Catal_2026/Figures_Na_K/main_figures/data/EC/20251112_2-148_alpha_reproducibility/20251112_2-148_001_alpha_reproducibility_1_K2_02_PEIS_C01.mpt
EC-Lab ASCII FILE
Nb header lines : 63

Potentio Electrochemical Impedance Spectroscopy

Run on channel : 1 (SN 69187)
User :
CE vs. WE compliance from -10 V to 10 V
Electrode connection : standard
Potential control : Ewe
Ewe ctrl range : min = -1.00 V, max = 1.00 V
Safety Limits :
	Do not start on E overload
Acquisition started on : 11/12/2025 14:40:36.984
Loaded Setting File :  C:\Users\User\Documents\EC-Lab\Data\Yatsuzuka\20251030_2-147_gamma_reproducibility\20251030_2-147_001_gamma1_K_1.mps
Saved on :
	File : 20251112_2-148_001_alpha_reproducibility_1_K2_02_PEIS_C01.mpr
	Directory : C:\Users\User\Documents\EC-Lab\Data\Yatsuzuka\20251112_2-148_alpha_reproducibility\
	Host : 192.109.209.127
Device : SP-150e (SN .003883)
Address : 192.109.209.128
EC-LAB for windows v11.52 (software)
Internet server v11.52 (firmware)
Command interpretor v11.50 (firmware)
Electrode material :
Initial state :
Electrolyte :
Comments :
Electrode surface area : 0.001 cm2
Characteristic mass : 0.001 g
Equivalent Weight : 0.000 g/eq.
Density : 0.000 g/cm3
Volume (V) : 0.001 cm3
Cycle Definition : Charge/Discharge alternance
Mode                Single sine
E (V)               0.4500
vs.                 Ref
tE (h:m:s)          0:00:0.0000
record              0
dI                  0.000
unit dI             mA
dt (s)              0.000
fi                  500.000
unit fi             kHz
ff                  1.000
unit ff             Hz
Nd                  6
Points              per decade
spacing             Logarithmic
Va (mV)             10.0
pw                  0.10
Na                  2
corr                0
E range min (V)     -1.000
E range max (V)     1.000
I Range             Auto
Bandwidth           5
nc cycles           0
goto Ns'            0
nr cycles           0
inc. cycle          0

freq/Hz	Re(Z)/Ohm	-Im(Z)/Ohm	|Z|/Ohm	Phase(Z)/deg	time/s	<Ewe>/V	<I>/mA	Cs/uF	Cp/uF	cycle number	I Range	|Ewe|/V	|I|/A	Ns	(Q-Qo)/mA.h	Re(Y)/Ohm-1	Im(Y)/Ohm-1	|Y|/Ohm-1	Phase(Y)/deg	Re(C)/nF	Im(C)/nF	|C|/nF	Phase(C)/deg	Re(M)	Im(M)	|M|	Phase(M)/deg	Re(Permittivity)	Im(Permittivity)	|Permittivity|	Phase(Permittivity)/deg	Re(Resistivity)/Ohm.cm	Im(Resistivity)/Ohm.cm	|Resistivity|/Ohm.cm	Phase(Resistivity)/deg	Re(Conductivity)/mS/cm	Im(Conductivity)/mS/cm	|Conductivity|/mS/cm	Phase(Conductivity)/deg	Tan(Delta)	Loss Angle(Delta)/deg	dq/mA.h	Pwe/W	Rwe/Ohm
500019	13.5137	-2.63891	13.769	11.0494	202.082	0.450155	0.00917321	-0.120617	-0.00443051	1	10	0.00468369	0.000340162	0	2.06042e-05	0.0712806	-0.0139194	0.072627	-11.0494	-4.43052	22.6885	23.117	-101.049	0.0000000E+000	0.0000000E+000	0.0000000E+000	101.049	0.0000000E+000	0.0000000E+000	0.0000000E+000	-101.049	0.0000000E+000	0.0000000E+000	0.0000000E+000	11.0494	0.0000000E+000	0.0000000E+000	0.0000000E+000	-11.0494	5.12096	78.9506	2.06042e-05	4.12936e-06	49072.8
339899	9.16838	-1.51543	9.29278	9.38547	202.504	0.450019	0.0115827	-0.308983	-0.008217	1	10	0.00734221	0.000790098	0	2.30312e-05	0.10617	-0.0175486	0.10761	-9.38547	-8.217	49.7131	50.3877	-99.3855	0.0000000E+000	0.0000000E+000	0.0000000E+000	99.3855	0.0000000E+000	0.0000000E+000	0.0000000E+000	-99.3855	0.0000000E+000	0.0000000E+000	0.0000000E+000	9.38547	0.0000000E+000	0.0000000E+000	0.0000000E+000	-9.38547	6.05003	80.6145	2.427e-06	5.21241e-06	38852.8
231063	7.68858	-0.78245	7.72829	5.81086	202.926	0.449847	0.0131573	-0.880307	-0.00902361	1	10	0.0101828	0.00131761	0	2.6699e-05	0.12873	-0.0131006	0.129395	-5.81086	-9.02361	88.6686	89.1266	-95.8109	0.0000000E+000	0.0000000E+000	0.0000000E+000	95.8109	0.0000000E+000	0.0000000E+000	0.0000000E+000	-95.8109	0.0000000E+000	0.0000000E+000	0.0000000E+000	5.81086	0.0000000E+000	0.0000000E+000	0.0000000E+000	-5.81086	9.82629	84.1891	3.66781e-06	5.91876e-06	34190
157076	7.17205	-0.327406	7.17952	2.61375	203.349	0.449779	0.0122703	-3.09474	-0.00643585	1	10	0.0109795	0.00152928	0	3.10968e-05	0.13914	-0.00635178	0.139285	-2.61375	-6.43586	140.982	141.129	-92.6138	0.0000000E+000	0.0000000E+000	0.0000000E+000	92.6138	0.0000000E+000	0.0000000E+000	0.0000000E+000	-92.6138	0.0000000E+000	0.0000000E+000	0.0000000E+000	2.61375	0.0000000E+000	0.0000000E+000	0.0000000E+000	-2.61375	21.9057	87.3862	4.39778e-06	5.51892e-06	36656
106786	7.04518	-0.112066	7.04607	0.911316	203.771	0.449771	0.0107777	-13.2993	-0.00336423	1	10	0.0109849	0.00155901	0	3.4365e-05	0.141905	-0.00225726	0.141923	-0.911316	-3.36423	211.496	211.523	-90.9113	0.0000000E+000	0.0000000E+000	0.0000000E+000	90.9113	0.0000000E+000	0.0000000E+000	0.0000000E+000	-90.9113	0.0000000E+000	0.0000000E+000	0.0000000E+000	0.911316	0.0000000E+000	0.0000000E+000	0.0000000E+000	-0.911316	62.8662	89.0887	3.26817e-06	4.84748e-06	41731.8
72595	7.02585	-0.0144875	7.02586	0.118146	204.193	0.449758	0.0104776	-151.328	-0.000643441	1	10	0.0107427	0.00152903	0	3.49589e-05	0.142331	-0.000293491	0.142331	-0.118146	-0.643458	312.042	312.043	-90.1181	0.0000000E+000	0.0000000E+000	0.0000000E+000	90.1181	0.0000000E+000	0.0000000E+000	0.0000000E+000	-90.1181	0.0000000E+000	0.0000000E+000	0.0000000E+000	0.118146	0.0000000E+000	0.0000000E+000	0.0000000E+000	-0.118146	484.958	89.8819	5.93924e-07	4.71241e-06	42925.5
49352.4	7.02609	0.0187209	7.02612	-0.152663	204.615	0.449755	0.012261	172.26	0.00122295	1	10	0.0106174	0.00151113	0	3.56599e-05	0.142326	0.000379224	0.142326	0.152663	1.22296	458.982	458.983	-89.8473	0.0000000E+000	0.0000000E+000	0.0000000E+000	89.8473	0.0000000E+000	0.0000000E+000	0.0000000E+000	-89.8473	0.0000000E+000	0.0000000E+000	0.0000000E+000	-0.152663	0.0000000E+000	0.0000000E+000	0.0000000E+000	0.152663	375.307	89.8473	7.00937e-07	5.51443e-06	36681.9
33551.1	7.03425	0.039061	7.03436	-0.318159	205.037	0.449763	0.0139716	121.442	0.00374462	1	10	0.0105332	0.00149739	0	3.95885e-05	0.142157	0.000789395	0.142159	0.318159	3.74465	674.345	674.356	-89.6818	0.0000000E+000	0.0000000E+000	0.0000000E+000	89.6818	0.0000000E+000	0.0000000E+000	0.0000000E+000	-89.6818	0.0000000E+000	0.0000000E+000	0.0000000E+000	-0.318159	0.0000000E+000	0.0000000E+000	0.0000000E+000	0.318159	180.084	89.6818	3.92868e-06	6.28391e-06	32191.2
22806.6	7.05336	0.0477857	7.05352	-0.388166	205.459	0.449762	0.0120299	146.037	0.00670264	1	10	0.0104869	0.00148676	0	3.89767e-05	0.14177	0.000960473	0.141773	0.388166	6.70268	989.337	989.36	-89.6118	0.0000000E+000	0.0000000E+000	0.0000000E+000	89.6118	0.0000000E+000	0.0000000E+000	0.0000000E+000	-89.6118	0.0000000E+000	0.0000000E+000	0.0000000E+000	-0.388166	0.0000000E+000	0.0000000E+000	0.0000000E+000	0.388166	147.604	89.6118	-6.11827e-07	5.41059e-06	37387
15504.4	7.06191	0.0523096	7.06211	-0.424398	205.881	0.449764	0.00990743	196.239	0.0107666	1	10	0.0103842	0.0014704	0	3.87761e-05	0.141597	0.00104885	0.141601	0.424398	10.7666	1453.51	1453.55	-89.5756	0.0000000E+000	0.0000000E+000	0.0000000E+000	89.5756	0.0000000E+000	0.0000000E+000	0.0000000E+000	-89.5756	0.0000000E+000	0.0000000E+000	0.0000000E+000	-0.424398	0.0000000E+000	0.0000000E+000	0.0000000E+000	0.424398	135.002	89.5756	-2.00614e-07	4.456e-06	45396.6
10540.4	7.07933	0.0590886	7.07958	-0.478216	206.303	0.449755	0.00983662	255.541	0.0178013	1	10	0.0102912	0.00145364	0	3.99958e-05	0.141246	0.00117893	0.141251	0.478216	17.8014	2132.76	2132.83	-89.5218	0.0000000E+000	0.0000000E+000	0.0000000E+000	89.5218	0.0000000E+000	0.0000000E+000	0.0000000E+000	-89.5218	0.0000000E+000	0.0000000E+000	0.0000000E+000	-0.478216	0.0000000E+000	0.0000000E+000	0.0000000E+000	0.478216	119.809	89.5218	1.21974e-06	4.42408e-06	45722.6
7163.78	7.0879	0.0556805	7.08811	-0.45009	206.827	0.44974	0.010746	399.002	0.0246218	1	10	0.0102482	0.00144582	0	4.02413e-05	0.141077	0.00110826	0.141081	0.45009	24.6217	3134.25	3134.35	-89.5499	0.0000000E+000	0.0000000E+000	0.0000000E+000	89.5499	0.0000000E+000	0.0000000E+000	0.0000000E+000	-89.5499	0.0000000E+000	0.0000000E+000	0.0000000E+000	-0.45009	0.0000000E+000	0.0000000E+000	0.0000000E+000	0.45009	127.296	89.5499	2.45433e-07	4.8329e-06	41851.9
4871.56	7.09806	0.0590454	7.09831	-0.476605	207.517	0.449764	0.0123616	553.307	0.038285	1	10	0.010097	0.00142246	0	4.125e-05	0.140874	0.00117186	0.140879	0.476605	38.2852	4602.38	4602.54	-89.5234	0.0000000E+000	0.0000000E+000	0.0000000E+000	89.5234	0.0000000E+000	0.0000000E+000	0.0000000E+000	-89.5234	0.0000000E+000	0.0000000E+000	0.0000000E+000	-0.476605	0.0000000E+000	0.0000000E+000	0.0000000E+000	0.476605	120.214	89.5234	1.00873e-06	5.55979e-06	36384
3311.06	7.11216	0.0648319	7.11245	-0.522274	207.982	0.449752	0.010418	741.42	0.0616032	1	10	0.0105963	0.00148982	0	4.15788e-05	0.140593	0.00128159	0.140598	0.522274	61.6028	6757.96	6758.24	-89.4777	0.0000000E+000	0.0000000E+000	0.0000000E+000	89.4777	0.0000000E+000	0.0000000E+000	0.0000000E+000	-89.4777	0.0000000E+000	0.0000000E+000	0.0000000E+000	-0.522274	0.0000000E+000	0.0000000E+000	0.0000000E+000	0.522274	109.701	89.4777	3.28833e-07	4.68553e-06	43170.6
2250.72	7.12163	0.074226	7.12202	-0.59715	208.447	0.449758	0.0105913	952.671	0.103478	1	10	0.0108546	0.0015241	0	4.43581e-05	0.140402	0.00146336	0.14041	0.59715	103.479	9928.23	9928.77	-89.4028	0.0000000E+000	0.0000000E+000	0.0000000E+000	89.4028	0.0000000E+000	0.0000000E+000	0.0000000E+000	-89.4028	0.0000000E+000	0.0000000E+000	0.0000000E+000	-0.59715	0.0000000E+000	0.0000000E+000	0.0000000E+000	0.59715	95.9453	89.4028	2.7793e-06	4.76353e-06	42464.8
1530.49	7.12275	0.0923505	7.12335	-0.742831	208.912	0.449758	0.0120504	1126.03	0.189261	1	10	0.0109712	0.00154017	0	4.69397e-05	0.140372	0.00182	0.140383	0.742831	189.26	14597.2	14598.4	-89.2572	0.0000000E+000	0.0000000E+000	0.0000000E+000	89.2572	0.0000000E+000	0.0000000E+000	0.0000000E+000	-89.2572	0.0000000E+000	0.0000000E+000	0.0000000E+000	-0.742831	0.0000000E+000	0.0000000E+000	0.0000000E+000	0.742831	77.1274	89.2572	2.58151e-06	5.41977e-06	37323.1
1040.33	7.13178	0.115537	7.13271	-0.928128	209.599	0.449757	0.0109901	1324.12	0.347424	1	10	0.0100622	0.00141071	0	4.71454e-05	0.140181	0.00227097	0.140199	0.928128	347.425	21445.5	21448.3	-89.0719	0.0000000E+000	0.0000000E+000	0.0000000E+000	89.0719	0.0000000E+000	0.0000000E+000	0.0000000E+000	-89.0719	0.0000000E+000	0.0000000E+000	0.0000000E+000	-0.928128	0.0000000E+000	0.0000000E+000	0.0000000E+000	0.928128	61.7272	89.0719	2.05784e-07	4.94288e-06	40923.9
707.036	7.13856	0.159588	7.14034	-1.28068	210.064	0.449764	0.0118715	1410.52	0.704597	1	10	0.0100898	0.00141307	0	4.90828e-05	0.140014	0.00313013	0.140049	1.28068	704.596	31517.4	31525.3	-88.7193	0.0000000E+000	0.0000000E+000	0.0000000E+000	88.7193	0.0000000E+000	0.0000000E+000	0.0000000E+000	-88.7193	0.0000000E+000	0.0000000E+000	0.0000000E+000	-1.28068	0.0000000E+000	0.0000000E+000	0.0000000E+000	1.28068	44.7312	88.7193	1.93734e-06	5.33937e-06	37886
480.769	7.1405	0.218869	7.14385	-1.75567	210.529	0.449761	0.00990557	1512.51	1.41972	1	10	0.0100927	0.00141278	0	5.10169e-05	0.139915	0.00428863	0.13998	1.75567	1419.72	46317.7	46339.5	-88.2443	0.0000000E+000	0.0000000E+000	0.0000000E+000	88.2443	0.0000000E+000	0.0000000E+000	0.0000000E+000	-88.2443	0.0000000E+000	0.0000000E+000	0.0000000E+000	-1.75567	0.0000000E+000	0.0000000E+000	0.0000000E+000	1.75567	32.6246	88.2443	1.93411e-06	4.45514e-06	45404.8
326.778	7.15955	0.316127	7.16652	-2.52823	210.992	0.449749	0.00939685	1540.66	2.99787	1	10	0.0101159	0.00141155	0	5.23596e-05	0.139402	0.00615524	0.139538	2.52823	2997.86	67894.7	67960.9	-87.4718	0.0000000E+000	0.0000000E+000	0.0000000E+000	87.4718	0.0000000E+000	0.0000000E+000	0.0000000E+000	-87.4718	0.0000000E+000	0.0000000E+000	0.0000000E+000	-2.52823	0.0000000E+000	0.0000000E+000	0.0000000E+000	2.52823	22.6477	87.4718	1.34271e-06	4.22622e-06	47861.7
222.061	7.17344	0.440868	7.18698	-3.51688	211.453	0.44976	0.0103025	1625.7	6.11737	1	10	0.0101223	0.00140843	0	5.38869e-05	0.138879	0.00853525	0.139141	3.51688	6117.37	99536.7	99724.5	-86.4831	0.0000000E+000	0.0000000E+000	0.0000000E+000	86.4831	0.0000000E+000	0.0000000E+000	0.0000000E+000	-86.4831	0.0000000E+000	0.0000000E+000	0.0000000E+000	-3.51688	0.0000000E+000	0.0000000E+000	0.0000000E+000	3.51688	16.2712	86.4831	1.52729e-06	4.63365e-06	43655.5
151.015	7.19117	0.630238	7.21873	-5.00864	211.915	0.449753	0.0113143	1672.23	12.7463	1	10	0.0101253	0.00140264	0	5.48336e-05	0.137999	0.0120944	0.138528	5.00864	12746.3	145438	145996	-84.9914	0.0000000E+000	0.0000000E+000	0.0000000E+000	84.9914	0.0000000E+000	0.0000000E+000	0.0000000E+000	-84.9914	0.0000000E+000	0.0000000E+000	0.0000000E+000	-5.00864	0.0000000E+000	0.0000000E+000	0.0000000E+000	5.00864	11.4102	84.9914	9.46752e-07	5.08866e-06	39750.7
102.667	7.21204	0.906658	7.26881	-7.16532	212.39	0.449757	0.00968009	1709.8	26.6014	1	10	0.0101228	0.00139264	0	5.4957e-05	0.1365	0.01716	0.137574	7.16532	26601.4	211602	213267	-82.8347	0.0000000E+000	0.0000000E+000	0.0000000E+000	82.8347	0.0000000E+000	0.0000000E+000	0.0000000E+000	-82.8347	0.0000000E+000	0.0000000E+000	0.0000000E+000	-7.16532	0.0000000E+000	0.0000000E+000	0.0000000E+000	7.16532	7.95453	82.8347	1.23398e-07	4.35369e-06	46462.1
69.7545	7.25322	1.29792	7.36843	-10.1453	212.857	0.449765	0.0112305	1757.93	54.5438	1	10	0.0101307	0.00137488	0	5.553e-05	0.133592	0.0239055	0.135714	10.1453	54543.8	304810	309652	-79.8547	0.0000000E+000	0.0000000E+000	0.0000000E+000	79.8547	0.0000000E+000	0.0000000E+000	0.0000000E+000	-79.8547	0.0000000E+000	0.0000000E+000	0.0000000E+000	-10.1453	0.0000000E+000	0.0000000E+000	0.0000000E+000	10.1453	5.58835	79.8547	5.72967e-07	5.05108e-06	40048.6
47.4443	7.30436	1.85954	7.53734	-14.2829	213.301	0.449757	0.0101665	1803.97	109.801	1	10	0.0101334	0.00134443	0	5.5336e-05	0.128572	0.0327317	0.132673	14.2829	109801	431302	445059	-75.7171	0.0000000E+000	0.0000000E+000	0.0000000E+000	75.7171	0.0000000E+000	0.0000000E+000	0.0000000E+000	-75.7171	0.0000000E+000	0.0000000E+000	0.0000000E+000	-14.2829	0.0000000E+000	0.0000000E+000	0.0000000E+000	14.2829	3.92804	75.7171	-1.93991e-07	4.57243e-06	44239.3
32.2387	7.373	2.6666	7.8404	-19.8836	213.738	0.449738	0.00926081	1851.34	214.153	1	10	0.010144	0.00129381	0	5.72113e-05	0.119941	0.0433791	0.127544	19.8836	214153	592122	629658	-70.1164	0.0000000E+000	0.0000000E+000	0.0000000E+000	70.1164	0.0000000E+000	0.0000000E+000	0.0000000E+000	-70.1164	0.0000000E+000	0.0000000E+000	0.0000000E+000	-19.8836	0.0000000E+000	0.0000000E+000	0.0000000E+000	19.8836	2.76495	70.1164	1.87534e-06	4.16494e-06	48563.5
21.9144	7.45595	3.8383	8.38593	-27.2393	214.169	0.449737	0.00889558	1892.13	396.394	1	10	0.0101588	0.00121142	0	5.49359e-05	0.106023	0.0545804	0.119247	27.2393	396394	770000	866042	-62.7607	0.0000000E+000	0.0000000E+000	0.0000000E+000	62.7607	0.0000000E+000	0.0000000E+000	0.0000000E+000	-62.7607	0.0000000E+000	0.0000000E+000	0.0000000E+000	-27.2393	0.0000000E+000	0.0000000E+000	0.0000000E+000	27.2393	1.94251	62.7607	-2.27542e-06	4.00067e-06	50557.4
14.9093	7.55095	5.5008	9.34215	-36.073	214.636	0.449754	0.0117299	1940.6	672.812	1	10	0.0101573	0.00108726	0	5.50866e-05	0.0865184	0.0630278	0.107042	36.073	672812	923570	1.14265e+06	-53.927	0.0000000E+000	0.0000000E+000	0.0000000E+000	53.927	0.0000000E+000	0.0000000E+000	0.0000000E+000	-53.927	0.0000000E+000	0.0000000E+000	0.0000000E+000	-36.073	0.0000000E+000	0.0000000E+000	0.0000000E+000	36.073	1.3727	53.927	1.50719e-07	5.27556e-06	38342.6
10.1329	7.73494	7.91759	11.0688	-45.6686	215.096	0.449755	0.00956083	1983.77	1015.03	1	10	0.0101695	0.000918755	0	5.78179e-05	0.0631334	0.0646242	0.0903444	45.6686	1.01503e+06	991616	1.41901e+06	-44.3314	0.0000000E+000	0.0000000E+000	0.0000000E+000	44.3314	0.0000000E+000	0.0000000E+000	0.0000000E+000	-44.3314	0.0000000E+000	0.0000000E+000	0.0000000E+000	-45.6686	0.0000000E+000	0.0000000E+000	0.0000000E+000	45.6686	0.976931	44.3315	2.73126e-06	4.30003e-06	47041.5
6.88933	7.83221	11.6266	14.0186	-56.034	215.649	0.449745	-0.000543109	1986.97	1366.74	1	11	0.0101771	0.000725972	0	5.71732e-05	0.0398543	0.0591621	0.0713338	56.034	1.36674e+06	920701	1.64793e+06	-33.966	0.0000000E+000	0.0000000E+000	0.0000000E+000	33.966	0.0000000E+000	0.0000000E+000	0.0000000E+000	-33.966	0.0000000E+000	0.0000000E+000	0.0000000E+000	-56.034	0.0000000E+000	0.0000000E+000	0.0000000E+000	56.034	0.673647	33.966	-6.44706e-07	-2.4426e-07	828093
4.68375	8.16395	16.7776	18.6585	-64.0526	216.146	0.449761	0.00185283	2025.33	1637.59	1	11	0.010184	0.000545809	0	5.08158e-05	0.0234503	0.0481923	0.0535949	64.0526	1.63759e+06	796845	1.82117e+06	-25.9474	0.0000000E+000	0.0000000E+000	0.0000000E+000	25.9474	0.0000000E+000	0.0000000E+000	0.0000000E+000	-25.9474	0.0000000E+000	0.0000000E+000	0.0000000E+000	-64.0526	0.0000000E+000	0.0000000E+000	0.0000000E+000	64.0526	0.486597	25.9474	-6.35737e-06	8.33331e-07	242743
3.18099	8.45995	24.4497	25.872	-70.9137	216.848	0.44976	0.00138337	2046.37	1827.56	1	11	0.0101811	0.000393516	0	5.69068e-05	0.0126389	0.036527	0.0386518	70.9137	1.82756e+06	632363	1.93388e+06	-19.0863	0.0000000E+000	0.0000000E+000	0.0000000E+000	19.0863	0.0000000E+000	0.0000000E+000	0.0000000E+000	-19.0863	0.0000000E+000	0.0000000E+000	0.0000000E+000	-70.9137	0.0000000E+000	0.0000000E+000	0.0000000E+000	70.9137	0.346014	19.0863	6.09092e-06	6.22182e-07	325120
2.16533	9.0451	35.5043	36.6383	-75.7073	217.859	0.449768	0.000966642	2070.22	1944.04	1	11	0.0101755	0.000277728	0	6.08816e-05	0.00673817	0.026449	0.0272938	75.7073	1.94404e+06	495266	2.00614e+06	-14.2927	0.0000000E+000	0.0000000E+000	0.0000000E+000	14.2927	0.0000000E+000	0.0000000E+000	0.0000000E+000	-14.2927	0.0000000E+000	0.0000000E+000	0.0000000E+000	-75.7073	0.0000000E+000	0.0000000E+000	0.0000000E+000	75.7073	0.254761	14.2927	3.97487e-06	4.34765e-07	465289
1.46962	9.76774	51.6266	52.5425	-79.2863	220.059	0.449766	0.000271266	2097.69	2025.2	1	12	0.0101825	0.000193795	0	5.73322e-05	0.00353812	0.0187004	0.0190322	79.2863	2.0252e+06	383166	2.06112e+06	-10.7137	0.0000000E+000	0.0000000E+000	0.0000000E+000	10.7137	0.0000000E+000	0.0000000E+000	0.0000000E+000	-10.7137	0.0000000E+000	0.0000000E+000	0.0000000E+000	-79.2863	0.0000000E+000	0.0000000E+000	0.0000000E+000	79.2863	0.1892	10.7137	-3.54938e-06	1.22006e-07	1.65803e+06
1.00006	10.9264	75.1134	75.9039	-81.7235	222.199	0.449772	0.000397654	2118.73	2074.82	1	12	0.0101781	0.000134091	0	5.31711e-05	0.00189647	0.0130373	0.0131745	81.7235	2.07482e+06	301814	2.09666e+06	-8.27647	0.0000000E+000	0.0000000E+000	0.0000000E+000	8.27647	0.0000000E+000	0.0000000E+000	0.0000000E+000	-8.27647	0.0000000E+000	0.0000000E+000	0.0000000E+000	-81.7235	0.0000000E+000	0.0000000E+000	0.0000000E+000	81.7235	0.145465	8.27647	-4.16117e-06	1.78854e-07	1.13106e+06