File: ACS_Catal_2026/Figures_Na_K/main_figures/data/EC/20251112_2-148_alpha_reproducibility/20251112_2-148_005_gamma_reproducibility_Na1_03_CVA_C01.mpt
EC-Lab ASCII FILE
Nb header lines : 66

Cyclic Voltammetry Advanced

Run on channel : 1 (SN 69187)
User :
CE vs. WE compliance from -10 V to 10 V
Electrode connection : standard
Potential control : Ewe
Ewe ctrl range : min = -1.00 V, max = 1.00 V
Safety Limits :
	Do not start on E overload
Acquisition started on : 11/12/2025 19:47:23.448
Loaded Setting File :  C:\Users\User\Documents\EC-Lab\Data\Yatsuzuka\20251030_2-147_gamma_reproducibility\20251030_2-147_001_gamma1_K_1.mps
Saved on :
	File : 20251112_2-148_005_gamma_reproducibility_Na1_03_CVA_C01.mpr
	Directory : C:\Users\User\Documents\EC-Lab\Data\Yatsuzuka\20251112_2-148_alpha_reproducibility\
	Host : 192.109.209.127
Device : SP-150e (SN .003883)
Address : 192.109.209.128
EC-Lab for windows v11.52 (software)
Internet server v11.52 (firmware)
Command interpretor v11.50 (firmware)
Electrode material :
Initial state :
Electrolyte :
Comments :
Electrode surface area : 0.001 cm2
Characteristic mass : 0.001 g
Equivalent Weight : 0.000 g/eq.
Density : 0.000 g/cm3
Volume (V) : 0.001 cm3
Cycle Definition : Charge/Discharge alternance
Ei (V)              0.450
vs.                 Ref
ti (h:m:s)          0:00:10.0000
dti (s)             0.0000
dE/dt               5.000
dE/dt unit          mV/s
E1 (V)              0.700
vs.                 Ref
t1 (h:m:s)          0:00:0.0000
dt1 (s)             0.1000
Step percent        50
N                   10
E range min (V)     -1.000
E range max (V)     1.000
I Range             10 mA
I Range min         Unset
I Range max         Unset
I Range init        Unset
Bandwidth           5
E2 (V)              0.450
vs.                 Ref
t2 (h:m:s)          0:00:0.0000
dt2 (s)             0.1000
nc cycles           14
nr                  1
Reverse Scan        0
Ef (V)              0.000
vs.                 Eoc
tf (h:m:s)          0:00:0.0000
dtf (s)             0.1000

mode	ox/red	error	control changes	Ns changes	counter inc.	time/s	control/V	Ewe/V	<I>/mA	cycle number	(Q-Qo)/C	I Range	Ns	step time/s	P/W
2	0	0	1	0	0	232.273	0.449961	0.449659	-0.00127047	1	0.0000000E+000	11	0	0.000000000000000E+000	-5.71277e-07
2	1	0	0	0	0	234.925	0.463217	0.462932	0.00160141	1	4.4447e-06	11	0	2.5963	7.41345e-07
2	1	0	1	0	0	237.621	0.476699	0.476474	0.00179281	1	8.88398e-06	11	0	5.2926	8.54225e-07
2	0	0	1	0	0	240.317	0.49018	0.489965	0.00132803	1	1.33629e-05	11	0	7.9888	6.50689e-07
2	1	0	0	0	0	243.013	0.503661	0.503401	0.00138775	1	1.78423e-05	11	0	10.6851	6.98595e-07
2	1	0	1	0	0	245.71	0.517143	0.516926	0.00181966	1	2.22706e-05	11	0	13.3814	9.40629e-07
2	1	0	1	0	0	248.406	0.530624	0.53039	0.00149752	1	2.67457e-05	11	0	16.0776	7.94268e-07
2	1	0	0	0	0	251.102	0.544105	0.543875	0.00157123	1	3.12284e-05	11	0	18.7739	8.54552e-07
2	1	0	1	0	0	253.798	0.557587	0.557334	0.00141577	1	3.57736e-05	11	0	21.4702	7.89059e-07
2	1	0	1	0	0	256.495	0.571067	0.570858	0.00187564	1	4.05552e-05	11	0	24.1664	1.07072e-06
2	1	0	0	0	0	259.191	0.584549	0.584338	0.00201616	1	4.56596e-05	11	0	26.8627	1.17812e-06
2	0	0	1	0	0	261.887	0.598031	0.597841	0.00205087	1	5.12292e-05	11	0	29.559	1.2261e-06
2	1	0	1	0	0	264.583	0.611512	0.611322	0.00267623	1	5.76966e-05	11	0	32.2552	1.63604e-06
2	1	0	0	0	0	267.28	0.624993	0.624754	0.00350209	1	6.58072e-05	11	0	34.9515	2.18795e-06
2	1	0	1	0	0	269.976	0.638475	0.638284	0.00505982	1	7.74813e-05	11	0	37.6478	3.2296e-06
2	1	0	1	0	0	272.672	0.651956	0.651758	0.0101989	1	9.75279e-05	11	0	40.344	6.64724e-06
2	1	0	0	0	0	275.369	0.665437	0.66521	0.0202641	1	0.000136871	11	0	43.0403	1.34799e-05
2	1	0	1	0	0	278.065	0.678918	0.678676	0.0396716	1	0.000215739	11	0	45.7365	2.69241e-05
2	1	0	1	0	0	280.761	0.6924	0.692215	0.0729602	1	0.000364722	11	0	48.4328	5.05042e-05
2	1	0	1	0	0	283.24	0.695196	0.695017	0.0829717	1	0.000580202	11	0	50.9116	5.76667e-05
2	1	0	1	0	0	285.936	0.681715	0.681546	0.0500641	1	0.000756817	11	0	53.6078	3.4121e-05
2	1	0	1	0	0	288.632	0.668233	0.667996	0.026762	1	0.000857454	11	0	56.3041	1.78769e-05
2	1	0	1	0	0	291.329	0.654751	0.654495	0.0124161	1	0.000908079	11	0	59.0004	8.12625e-06
2	1	0	1	0	0	294.025	0.641271	0.641064	0.00518942	1	0.000930834	11	0	61.6966	3.32675e-06
2	1	0	1	0	0	296.721	0.627789	0.627592	0.00226435	1	0.000940653	11	0	64.3929	1.42109e-06
2	1	0	1	0	0	299.417	0.614307	0.61407	0.00121147	1	0.000945208	11	0	67.0892	7.4393e-07
2	1	0	1	0	0	302.114	0.600827	0.60055	0.000898594	1	0.000947664	11	0	69.7854	5.3965e-07
2	1	0	1	0	0	304.81	0.587345	0.587148	0.000802566	1	0.000949166	11	0	72.4817	4.71225e-07
2	1	0	0	0	0	307.506	0.573864	0.573606	0.000683023	1	0.000950186	11	0	75.1779	3.91786e-07
2	0	0	1	0	0	310.202	0.560382	0.560136	0.00053019	1	0.000950942	11	0	77.8742	2.96978e-07
2	1	0	1	0	0	312.899	0.546902	0.546692	0.000314376	1	0.000951536	11	0	80.5704	1.71867e-07
2	1	0	0	0	0	315.595	0.53342	0.533228	0.000407191	1	0.000951955	11	0	83.2667	2.17125e-07
2	0	0	1	0	0	318.291	0.519939	0.519664	-1.8845e-05	1	0.000952254	11	0	85.963	-9.79307e-09
2	1	0	1	0	0	320.987	0.506458	0.506251	0.000119128	1	0.000952468	11	0	0.000000000000000E+000	6.03089e-08
2	0	0	0	0	0	323.684	0.492976	0.492723	0.000320532	1	0.00095263	11	0	0.2996	1.57934e-07
2	1	0	1	0	0	326.38	0.479494	0.479242	0.000415098	1	0.000952657	11	0	0.1998	1.98932e-07
2	1	0	1	0	0	329.076	0.466014	0.465759	0.000234913	1	0.000952637	11	0	0.000000000000000E+000	1.09413e-07
2	1	0	0	0	0	331.773	0.452532	0.452296	-1.35126e-05	1	0.00095254	11	0	0.000000000000000E+000	-6.11168e-09
2	1	0	1	0	1	334.326	0.460272	0.460053	0.00130732	2	0.000955359	11	0	2.1543	6.01438e-07
2	1	0	1	0	1	337.022	0.473753	0.473522	0.00148458	2	0.000959186	11	0	4.8505	7.02981e-07
2	1	0	0	0	1	339.719	0.487234	0.486998	0.00155128	2	0.000963034	11	0	7.5468	7.55469e-07
2	1	0	1	0	1	342.415	0.500715	0.500448	0.00160602	2	0.000966881	11	0	10.243	8.03727e-07
2	1	0	1	0	1	345.111	0.514197	0.513982	0.00147233	2	0.00097071	11	0	12.9393	7.56753e-07
2	1	0	1	0	1	347.807	0.527678	0.527427	0.00122398	2	0.00097453	11	0	15.6355	6.45558e-07
2	1	0	1	0	1	350.504	0.541159	0.540951	0.00141831	2	0.00097838	11	0	18.3318	7.67235e-07
2	0	0	1	0	1	353.2	0.554641	0.55444	0.00113144	2	0.000982251	11	0	21.0281	6.27316e-07
2	1	0	1	0	1	355.896	0.568122	0.567923	0.00152278	2	0.000986269	11	0	23.7243	8.64822e-07
2	1	0	1	0	1	358.593	0.581603	0.581389	0.00161349	2	0.000990512	11	0	26.4206	9.38066e-07
2	1	0	1	0	1	361.289	0.595085	0.594847	0.00145035	2	0.000995122	11	0	29.1169	8.62738e-07
2	1	0	1	0	1	363.985	0.608565	0.608356	0.00209381	2	0.00100037	11	0	31.8131	1.27378e-06
2	1	0	1	0	1	366.681	0.622047	0.621809	0.00292383	2	0.00100686	11	0	34.5094	1.81806e-06
2	1	0	1	0	1	369.378	0.635529	0.635279	0.00391796	2	0.00101604	11	0	37.2057	2.489e-06
2	1	0	1	0	1	372.074	0.64901	0.648795	0.0079066	2	0.00103149	11	0	39.9019	5.12976e-06
2	1	0	1	0	1	374.77	0.662491	0.662342	0.0155074	2	0.00106196	11	0	42.5982	1.02712e-05
2	1	0	1	0	1	377.466	0.675973	0.675761	0.0320126	2	0.00112441	11	0	45.2945	2.16329e-05
2	1	0	1	0	1	380.163	0.689454	0.689279	0.0600837	2	0.00124564	11	0	47.9907	4.14144e-05
2	1	0	1	0	1	382.631	0.698192	0.69799	0.0854104	2	0.00143547	11	0	50.4595	5.96157e-05
2	1	0	1	0	1	385.328	0.68471	0.684529	0.0518912	2	0.00161756	11	0	53.1558	3.5521e-05
2	1	0	0	0	1	388.024	0.671229	0.671013	0.0281325	2	0.0017223	11	0	55.852	1.88773e-05
2	1	0	1	0	1	390.72	0.657748	0.657468	0.0133623	2	0.00177582	11	0	58.5483	8.78527e-06
2	1	0	1	0	1	393.416	0.644267	0.644067	0.00562721	2	0.00180017	11	0	61.2445	3.6243e-06
2	1	0	0	0	1	396.113	0.630785	0.630578	0.00242537	2	0.00181064	11	0	63.9408	1.52939e-06
2	1	0	1	0	1	398.809	0.617303	0.617068	0.00130354	2	0.00181539	11	0	66.6371	8.04372e-07
2	1	0	1	0	1	401.505	0.603823	0.603597	0.00100187	2	0.00181792	11	0	69.3333	6.04726e-07
2	0	0	0	0	1	404.202	0.590341	0.590136	0.00049142	2	0.00181945	11	0	72.0296	2.90004e-07
2	1	0	1	0	1	406.898	0.576859	0.57662	0.000539116	2	0.00182043	11	0	74.7259	3.10865e-07
2	1	0	1	0	1	409.594	0.563379	0.563143	0.000412514	2	0.00182111	11	0	77.4221	2.32304e-07
2	0	0	0	0	1	412.29	0.549897	0.549622	3.89097e-05	2	0.00182156	11	0	80.1184	2.13856e-08
2	1	0	1	0	1	414.987	0.536415	0.536157	0.000235225	2	0.00182188	11	0	82.8147	1.26118e-07
2	1	0	1	0	1	417.683	0.522935	0.522697	0.000418366	2	0.00182207	11	0	0.2996	2.18679e-07
2	1	0	0	0	1	420.379	0.509453	0.509221	0.000307279	2	0.00182224	11	0	1.0985	1.56473e-07
2	1	0	1	0	1	423.075	0.495972	0.495751	2.13787e-05	2	0.00182233	11	0	0.000000000000000E+000	1.05985e-08
2	0	0	1	0	1	425.772	0.482491	0.482239	-0.000124979	2	0.00182238	11	0	0.000000000000000E+000	-6.027e-08
2	0	0	1	0	1	428.468	0.46901	0.468793	-0.000193407	2	0.00182235	11	0	0.0998	-9.06676e-08
2	1	0	1	0	1	431.164	0.455528	0.455312	4.48735e-05	2	0.00182222	11	0	0.3994	2.04314e-08
2	1	0	1	0	0	433.718	0.457276	0.457024	0.00146791	3	0.0018241	11	0	1.4527	6.7087e-07
2	1	0	1	0	0	436.414	0.470756	0.470559	0.00111391	3	0.00182794	11	0	4.1489	5.24161e-07
2	1	0	1	0	0	439.11	0.484238	0.483997	0.00105466	3	0.00183179	11	0	6.8452	5.10454e-07
2	1	0	1	0	0	441.807	0.49772	0.497488	0.00128482	3	0.00183555	11	0	9.5415	6.3918e-07
2	1	0	1	0	0	444.503	0.511201	0.51098	0.00101019	3	0.00183923	11	0	12.2377	5.16189e-07
2	0	0	1	0	0	447.199	0.524682	0.524451	0.00145807	3	0.00184289	11	0	14.934	7.64684e-07
2	0	0	1	0	0	449.895	0.538164	0.537975	0.00106518	3	0.00184656	11	0	17.6303	5.73038e-07
2	1	0	1	0	0	452.592	0.551645	0.551428	0.0014718	3	0.00185033	11	0	20.3265	8.11592e-07
2	1	0	1	0	0	455.288	0.565126	0.564971	0.00148163	3	0.00185416	11	0	23.0228	8.37075e-07
2	1	0	0	0	0	457.984	0.578607	0.578385	0.00122251	3	0.00185817	11	0	25.719	7.07083e-07
2	1	0	1	0	0	460.68	0.592089	0.591816	0.00163508	3	0.00186247	11	0	28.4153	9.67665e-07
2	0	0	1	0	0	463.377	0.60557	0.605378	0.00161914	3	0.00186722	11	0	31.1115	9.80194e-07
2	1	0	0	0	0	466.073	0.619051	0.618824	0.00246159	3	0.00187301	11	0	33.8078	1.52329e-06
2	1	0	1	0	0	468.769	0.632533	0.632299	0.00372103	3	0.00188097	11	0	36.5041	2.3528e-06
2	1	0	1	0	0	471.465	0.646014	0.645789	0.00615162	3	0.00189378	11	0	39.2003	3.97265e-06
2	1	0	0	0	0	474.162	0.659495	0.659306	0.0123251	3	0.00191823	11	0	41.8966	8.126e-06
2	1	0	1	0	0	476.858	0.672977	0.672742	0.0260162	3	0.00196831	11	0	44.5929	1.75022e-05
2	1	0	1	0	0	479.554	0.686457	0.686267	0.0492964	3	0.00206749	11	0	47.2891	3.38304e-05
2	1	0	0	0	0	482.231	0.699839	0.699577	0.0861442	3	0.00224646	11	0	49.9654	6.02645e-05
2	1	0	0	0	0	484.719	0.687706	0.68752	0.0549569	3	0.0024209	11	0	52.4542	3.77839e-05
2	1	0	1	0	0	487.416	0.674224	0.674012	0.030338	3	0.00253403	11	0	55.1505	2.04481e-05
2	1	0	1	0	0	490.112	0.660744	0.660456	0.0152635	3	0.00259317	11	0	57.8467	1.00809e-05
2	1	0	0	0	0	492.808	0.647262	0.647062	0.00676508	3	0.00262062	11	0	60.543	4.37743e-06
2	1	0	1	0	0	495.504	0.63378	0.633539	0.00293458	3	0.00263247	11	0	63.2393	1.85917e-06
2	0	0	1	0	0	498.201	0.6203	0.620068	0.00132714	3	0.00263775	11	0	65.9355	8.22916e-07
2	0	0	0	0	0	500.897	0.606818	0.60663	0.000675339	3	0.0026405	11	0	68.6318	4.09681e-07
2	0	0	1	0	0	503.593	0.593337	0.593105	0.000322462	3	0.00264213	11	0	71.328	1.91254e-07
2	0	0	1	0	0	506.289	0.579856	0.579637	0.000157502	3	0.00264313	11	0	74.0243	9.1294e-08
2	0	0	1	0	0	508.986	0.566375	0.566194	5.66938e-05	3	0.00264378	11	0	76.7205	3.20997e-08
2	1	0	1	0	0	511.682	0.552893	0.552667	0.000514097	3	0.00264422	11	0	79.4168	2.84124e-07
2	0	0	1	0	0	514.378	0.539411	0.539211	9.88836e-06	3	0.00264452	11	0	82.1131	5.33191e-09
2	1	0	1	0	0	517.074	0.525931	0.52569	2.03251e-05	3	0.00264476	11	0	84.8093	1.06847e-08
2	1	0	1	0	0	519.771	0.512449	0.512215	5.42977e-05	3	0.00264491	11	0	0.000000000000000E+000	2.78121e-08
2	1	0	1	0	0	522.467	0.498968	0.498732	9.67775e-05	3	0.00264497	11	0	0.000000000000000E+000	4.82661e-08
2	1	0	1	0	0	525.163	0.485487	0.485237	0.000263287	3	0.00264494	11	0	0.000000000000000E+000	1.27757e-07
2	0	0	1	0	0	527.86	0.472005	0.471772	0.00030485	3	0.00264479	11	0	1.8974	1.4382e-07
2	1	0	1	0	0	530.556	0.458523	0.458324	0.000307551	3	0.00264461	11	0	1.1984	1.40958e-07
2	0	0	1	0	1	533.109	0.45428	0.454047	0.00100562	4	0.00264562	11	0	0.7989	4.56598e-07
2	1	0	1	0	1	535.806	0.467761	0.467577	0.000972202	4	0.00264941	11	0	3.4952	4.54579e-07
2	1	0	1	0	1	538.502	0.481243	0.481007	0.00120456	4	0.00265317	11	0	6.1915	5.79404e-07
2	1	0	1	0	1	541.198	0.494724	0.494523	0.00135123	4	0.00265694	11	0	8.8877	6.68214e-07
2	1	0	1	0	1	543.895	0.508205	0.507942	0.00148494	4	0.00266072	11	0	11.584	7.54262e-07
2	1	0	0	0	1	546.591	0.521686	0.521452	0.00106976	4	0.00266455	11	0	14.2802	5.57827e-07
2	1	0	1	0	1	549.287	0.535168	0.534923	0.00152345	4	0.00266833	11	0	16.9765	8.14926e-07
2	1	0	1	0	1	551.983	0.548649	0.548448	0.00109259	4	0.00267222	11	0	19.6727	5.99229e-07
2	1	0	0	0	1	554.68	0.56213	0.561894	0.00125309	4	0.00267619	11	0	22.369	7.04102e-07
2	1	0	1	0	1	557.376	0.575612	0.575368	0.00155907	4	0.00268025	11	0	25.0653	8.97039e-07
2	1	0	1	0	1	560.072	0.589093	0.58888	0.00180146	4	0.00268451	11	0	27.7615	1.06084e-06
2	1	0	0	0	1	562.768	0.602574	0.602334	0.00164707	4	0.00268923	11	0	30.4578	9.92083e-07
2	1	0	1	0	1	565.465	0.616056	0.615824	0.00197148	4	0.00269474	11	0	33.1541	1.21408e-06
2	1	0	1	0	1	568.161	0.629537	0.629323	0.00284602	4	0.00270202	11	0	35.8503	1.79107e-06
2	1	0	0	0	1	570.857	0.643018	0.642806	0.00510988	4	0.00271313	11	0	38.5466	3.28466e-06
2	1	0	1	0	1	573.553	0.656499	0.656286	0.0104701	4	0.00273346	11	0	41.2428	6.87135e-06
2	1	0	1	0	1	576.25	0.669981	0.669749	0.021091	4	0.00277465	11	0	43.9391	1.41257e-05
2	1	0	1	0	1	578.946	0.683461	0.683242	0.0418382	4	0.00285737	11	0	46.6353	2.85856e-05
2	1	0	1	0	1	581.642	0.696943	0.69668	0.0748347	4	0.00301169	11	0	49.3316	5.21358e-05
2	1	0	1	0	1	584.111	0.690702	0.690479	0.0602937	4	0.00319284	11	0	51.8004	4.16316e-05
2	1	0	1	0	1	586.807	0.677221	0.677048	0.033833	4	0.00331725	11	0	54.4967	2.29065e-05
2	1	0	1	0	1	589.503	0.66374	0.66353	0.0173692	4	0.00338395	11	0	57.1929	1.1525e-05
2	1	0	1	0	1	592.2	0.650258	0.650033	0.00784283	4	0.00341564	11	0	59.8892	5.0981e-06
2	1	0	1	0	1	594.896	0.636777	0.636605	0.00329082	4	0.00342943	11	0	62.5855	2.09495e-06
2	1	0	1	0	1	597.592	0.623296	0.623013	0.00140637	4	0.00343555	11	0	65.2817	8.7619e-07
2	1	0	1	0	1	600.289	0.609814	0.609578	0.000961821	4	0.00343861	11	0	67.978	5.86305e-07
2	1	0	1	0	1	602.985	0.596332	0.596084	0.000677338	4	0.00344033	11	0	70.6743	4.0375e-07
2	0	0	1	0	1	605.681	0.582852	0.582597	0.000464534	4	0.00344138	11	0	73.3705	2.70636e-07
2	0	0	1	0	1	608.377	0.56937	0.569157	5.06164e-05	4	0.00344209	11	0	76.0668	2.88087e-08
2	1	0	1	0	1	611.074	0.555888	0.555665	0.000116601	4	0.00344263	11	0	78.7631	6.4791e-08
2	1	0	1	0	1	613.77	0.542408	0.542189	6.09639e-05	4	0.00344302	11	0	81.4593	3.3054e-08
2	1	0	1	0	1	616.466	0.528926	0.528721	0.000135582	4	0.00344328	11	0	84.1556	7.16848e-08
2	1	0	0	0	1	619.162	0.515445	0.515217	0.000194019	4	0.00344342	11	0	0.4993	9.99621e-08
2	0	0	1	0	1	621.859	0.501964	0.501707	0.000393056	4	0.00344349	11	0	0.2996	1.97199e-07
2	1	0	1	0	1	624.555	0.488483	0.488267	0.000333015	4	0.00344349	11	0	0.000000000000000E+000	1.626e-07
2	1	0	0	0	1	627.251	0.475001	0.474796	0.000311991	4	0.00344344	11	0	0.000000000000000E+000	1.48132e-07
2	1	0	1	0	1	629.947	0.461519	0.461262	0.000224427	4	0.00344328	11	0	0.8988	1.03519e-07
2	0	0	1	0	0	632.501	0.451284	0.451052	0.00129791	5	0.00344342	11	0	0.1997	5.85423e-07
2	1	0	0	0	0	635.197	0.464765	0.46455	0.00131493	5	0.00344702	11	0	2.896	6.10853e-07
2	1	0	1	0	0	637.894	0.478247	0.478025	0.0013134	5	0.0034507	11	0	5.5923	6.27839e-07
2	1	0	1	0	0	640.59	0.491728	0.491512	0.00108312	5	0.00345432	11	0	8.2885	5.32365e-07
2	1	0	0	0	0	643.286	0.505209	0.504943	0.00119375	5	0.003458	11	0	10.9848	6.02773e-07
2	1	0	1	0	0	645.982	0.518691	0.51847	0.00127527	5	0.00346162	11	0	13.6811	6.61188e-07
2	1	0	1	0	0	648.679	0.532172	0.531957	0.00137387	5	0.00346527	11	0	16.3773	7.30841e-07
2	0	0	0	0	0	651.375	0.545653	0.545387	0.00103721	5	0.00346892	11	0	19.0736	5.65684e-07
2	0	0	1	0	0	654.071	0.559135	0.558861	0.0010472	5	0.00347263	11	0	21.7699	5.85239e-07
2	0	0	1	0	0	656.767	0.572616	0.572469	0.00114856	5	0.00347649	11	0	24.4661	6.57517e-07
2	1	0	1	0	0	659.464	0.586097	0.585867	0.00126973	5	0.00348057	11	0	27.1623	7.43891e-07
2	1	0	1	0	0	662.16	0.599578	0.599341	0.00173188	5	0.00348506	11	0	29.8586	1.03799e-06
2	1	0	1	0	0	664.856	0.61306	0.612882	0.00208616	5	0.00349019	11	0	32.5549	1.27857e-06
2	1	0	1	0	0	667.552	0.626541	0.626345	0.00270423	5	0.00349671	11	0	35.2511	1.69378e-06
2	1	0	1	0	0	670.249	0.640022	0.639833	0.00426045	5	0.00350617	11	0	37.9474	2.72597e-06
2	1	0	1	0	0	672.945	0.653504	0.653273	0.00824493	5	0.00352279	11	0	40.6437	5.38619e-06
2	1	0	1	0	0	675.641	0.666985	0.666781	0.0174083	5	0.0035561	11	0	43.3399	1.16075e-05
2	1	0	1	0	0	678.338	0.680466	0.680267	0.0346108	5	0.00362378	11	0	46.0362	2.35446e-05
2	1	0	1	0	0	681.034	0.693948	0.693734	0.0636714	5	0.00375306	11	0	48.7325	4.4171e-05
2	1	0	1	0	0	683.503	0.693698	0.693471	0.0643553	5	0.00393074	11	0	51.2013	4.46285e-05
2	1	0	1	0	0	686.199	0.680217	0.679971	0.0374252	5	0.0040651	11	0	53.8975	2.5448e-05
2	1	0	1	0	0	688.895	0.666735	0.666515	0.0193262	5	0.00413864	11	0	56.5938	1.28812e-05
2	1	0	1	0	0	691.591	0.653253	0.653048	0.00893857	5	0.00417426	11	0	59.2901	5.83731e-06
2	1	0	1	0	0	694.288	0.639773	0.63952	0.00400879	5	0.0041899	11	0	61.9863	2.5637e-06
2	1	0	1	0	0	696.984	0.626291	0.626092	0.00195379	5	0.00419669	11	0	64.6826	1.22325e-06
2	1	0	0	0	0	699.68	0.61281	0.6126	0.00087768	5	0.00420002	11	0	67.3788	5.37667e-07
2	1	0	1	0	0	702.376	0.599329	0.599122	0.000377393	5	0.0042019	11	0	70.0751	2.26104e-07
2	1	0	1	0	0	705.073	0.585848	0.585638	0.000671413	5	0.00420309	11	0	72.7713	3.93205e-07
2	0	0	0	0	0	707.769	0.572366	0.572167	0.000304187	5	0.00420389	11	0	75.4676	1.74046e-07
2	0	0	1	0	0	710.465	0.558885	0.558703	6.66269e-05	5	0.00420442	11	0	78.1639	3.72246e-08
2	1	0	1	0	0	713.161	0.545404	0.545236	0.000286748	5	0.00420488	11	0	80.8601	1.56345e-07
2	1	0	0	0	0	715.858	0.531922	0.531716	0.000320753	5	0.0042052	11	0	83.5564	1.70549e-07
2	1	0	1	0	0	718.554	0.51844	0.518191	0.000283267	5	0.00420537	11	0	0.0999	1.46787e-07
2	1	0	1	0	0	721.25	0.50496	0.504719	0.000137991	5	0.00420545	11	0	0.000000000000000E+000	6.96467e-08
2	0	0	0	0	0	723.947	0.491478	0.491273	8.19814e-05	5	0.00420549	11	0	0.000000000000000E+000	4.02752e-08
2	0	0	1	0	0	726.643	0.477996	0.47785	0.000205898	5	0.00420546	11	0	0.000000000000000E+000	9.83884e-08
2	1	0	1	0	0	729.339	0.464516	0.464242	0.000175302	5	0.0042054	11	0	0.000000000000000E+000	8.13823e-08
2	1	0	0	0	0	732.035	0.451034	0.450832	0.000267963	5	0.00420522	11	0	1.9973	1.20806e-07
2	1	0	1	0	1	734.589	0.46177	0.461529	0.0010992	6	0.00420832	11	0	2.2969	5.07312e-07
2	1	0	1	0	1	737.285	0.475251	0.474984	0.00117589	6	0.00421208	11	0	4.9931	5.58528e-07
2	1	0	1	0	1	739.981	0.488732	0.488564	0.00106575	6	0.00421578	11	0	7.6893	5.20687e-07
2	1	0	1	0	1	742.678	0.502213	0.501983	0.00145555	6	0.00421949	11	0	10.3856	7.30663e-07
2	1	0	1	0	1	745.374	0.515695	0.515529	0.00143685	6	0.00422322	11	0	13.0819	7.4074e-07
2	1	0	1	0	1	748.07	0.529175	0.528969	0.00142848	6	0.0042269	11	0	15.7781	7.55624e-07
2	1	0	1	0	1	750.767	0.542657	0.542462	0.00148847	6	0.0042307	11	0	18.4744	8.0744e-07
2	1	0	1	0	1	753.463	0.556139	0.555947	0.00163588	6	0.0042346	11	0	21.1707	9.09463e-07
2	1	0	1	0	1	756.159	0.56962	0.569451	0.00158623	6	0.00423856	11	0	23.8669	9.03278e-07
2	1	0	1	0	1	758.855	0.583101	0.582843	0.00151498	6	0.00424268	11	0	26.5632	8.82995e-07
2	1	0	1	0	1	761.552	0.596583	0.596392	0.00140933	6	0.00424713	11	0	29.2595	8.40511e-07
2	1	0	1	0	1	764.248	0.610064	0.609823	0.0016699	6	0.00425208	11	0	31.9557	1.01834e-06
2	1	0	1	0	1	766.944	0.623545	0.623336	0.00229049	6	0.00425812	11	0	34.652	1.42774e-06
2	1	0	0	0	1	769.64	0.637026	0.63683	0.00362966	6	0.00426656	11	0	37.3482	2.31148e-06
2	1	0	1	0	1	772.337	0.650508	0.650311	0.00715943	6	0.00428074	11	0	40.0445	4.65586e-06
2	1	0	1	0	1	775.033	0.663989	0.663789	0.0143646	6	0.00430832	11	0	42.7407	9.53504e-06
2	1	0	0	0	1	777.729	0.67747	0.677249	0.0284458	6	0.00436437	11	0	45.437	1.92649e-05
2	1	0	1	0	1	780.425	0.690952	0.690736	0.0537628	6	0.0044733	11	0	48.1333	3.71359e-05
2	1	0	1	0	1	782.894	0.696693	0.69648	0.0690527	6	0.0046403	11	0	50.6021	4.80939e-05
2	1	0	1	0	1	785.59	0.683213	0.683004	0.0407366	6	0.00478619	11	0	53.2983	2.78232e-05
2	1	0	0	0	1	788.287	0.669731	0.669493	0.0217023	6	0.00486785	11	0	55.9946	1.45296e-05
2	1	0	1	0	1	790.983	0.65625	0.656039	0.00979936	6	0.00490833	11	0	58.6909	6.42877e-06
2	1	0	1	0	1	793.679	0.642769	0.642573	0.0043181	6	0.00492643	11	0	61.3871	2.77469e-06
2	1	0	0	0	1	796.376	0.629287	0.62907	0.0021707	6	0.00493428	11	0	64.0834	1.36552e-06
2	0	0	1	0	1	799.072	0.615806	0.61554	0.000892426	6	0.00493794	11	0	66.7797	5.49324e-07
2	0	0	1	0	1	801.768	0.602325	0.602121	0.000450423	6	0.00494002	11	0	69.4759	2.71209e-07
2	0	0	0	0	1	804.464	0.588843	0.588619	0.000591184	6	0.00494137	11	0	72.1722	3.47982e-07
2	1	0	1	0	1	807.161	0.575361	0.575127	0.000611479	6	0.00494235	11	0	74.8685	3.51678e-07
2	0	0	1	0	1	809.857	0.561881	0.56167	5.53026e-05	6	0.00494307	11	0	77.5647	3.10618e-08
2	1	0	0	0	1	812.553	0.548399	0.548213	0.00048391	6	0.00494356	11	0	80.261	2.65286e-07
2	1	0	1	0	1	815.249	0.534918	0.534687	-1.26776e-05	6	0.00494394	11	0	82.9572	-6.77856e-09
2	0	0	1	0	1	817.946	0.521437	0.521218	0.000481394	6	0.00494425	11	0	85.6535	2.50912e-07
2	1	0	1	0	1	820.642	0.507956	0.507692	0.000132576	6	0.00494447	11	0	88.3497	6.7308e-08
2	1	0	1	0	1	823.338	0.494474	0.494254	-0.000146777	6	0.00494466	11	0	0.1997	-7.2545e-08
2	1	0	1	0	1	826.034	0.480993	0.480792	0.000393507	6	0.00494474	11	0	0.0999	1.89195e-07
2	1	0	1	0	1	828.731	0.467512	0.467294	1.35451e-05	6	0.00494475	11	0	0.000000000000000E+000	6.32953e-09
2	0	0	1	0	1	831.427	0.45403	0.453777	0.000270392	6	0.00494466	11	0	0.4993	1.22698e-07
2	1	0	1	0	0	833.981	0.458774	0.458551	0.00146516	7	0.00494699	11	0	1.6977	6.71852e-07
2	0	0	1	0	0	836.677	0.472255	0.472054	0.00112525	7	0.00495074	11	0	4.3939	5.31179e-07
2	0	0	1	0	0	839.373	0.485736	0.485497	0.00100239	7	0.00495452	11	0	7.0902	4.86657e-07
2	0	0	1	0	0	842.069	0.499218	0.49897	0.00111429	7	0.00495831	11	0	9.7865	5.55999e-07
2	1	0	1	0	0	844.766	0.512699	0.512519	0.00120241	7	0.00496216	11	0	12.4827	6.16259e-07
2	1	0	1	0	0	847.462	0.52618	0.526001	0.00131744	7	0.00496597	11	0	15.179	6.92974e-07
2	1	0	1	0	0	850.158	0.539662	0.539463	0.00111981	7	0.00496986	11	0	17.8753	6.04094e-07
2	0	0	1	0	0	852.854	0.553143	0.552887	0.00141656	7	0.00497373	11	0	20.5715	7.83201e-07
2	1	0	1	0	0	855.551	0.566624	0.566438	0.00140572	7	0.00497761	11	0	23.2678	7.96251e-07
2	0	0	0	0	0	858.247	0.580105	0.579841	0.00135606	7	0.0049817	11	0	25.964	7.863e-07
2	1	0	1	0	0	860.943	0.593587	0.593384	0.0017398	7	0.00498605	11	0	28.6603	1.03237e-06
2	1	0	1	0	0	863.639	0.607068	0.606861	0.00153172	7	0.00499083	11	0	31.3565	9.29543e-07
2	1	0	0	0	0	866.336	0.620549	0.62026	0.00252425	7	0.00499656	11	0	34.0528	1.56569e-06
2	1	0	1	0	0	869.032	0.634031	0.63383	0.00304825	7	0.0050043	11	0	36.7491	1.93207e-06
2	1	0	1	0	0	871.728	0.647512	0.647324	0.00611427	7	0.00501648	11	0	39.4453	3.95791e-06
2	1	0	0	0	0	874.425	0.660993	0.66074	0.0118844	7	0.00503929	11	0	42.1416	7.85252e-06
2	1	0	1	0	0	877.121	0.674475	0.67426	0.0238523	7	0.00508544	11	0	44.8379	1.60826e-05
2	1	0	1	0	0	879.817	0.687956	0.687738	0.0452643	7	0.0051764	11	0	47.5341	3.113e-05
2	1	0	1	0	0	882.286	0.69969	0.699433	0.0743185	7	0.0053247	11	0	50.0029	5.19808e-05
2	1	0	0	0	0	884.982	0.686208	0.685961	0.044505	7	0.00548251	11	0	52.6992	3.05287e-05
2	1	0	1	0	0	887.678	0.672726	0.672525	0.0243797	7	0.00557304	11	0	55.3955	1.6396e-05
2	1	0	1	0	0	890.375	0.659246	0.659013	0.0116218	7	0.00561917	11	0	58.0917	7.65891e-06
2	1	0	0	0	0	893.071	0.645764	0.645581	0.0049007	7	0.00564013	11	0	60.788	3.1638e-06
2	1	0	1	0	0	895.767	0.632283	0.632104	0.00258285	7	0.00564926	11	0	63.4842	1.63263e-06
2	0	0	1	0	0	898.463	0.618802	0.618619	0.00103539	7	0.00565352	11	0	66.1805	6.40512e-07
2	0	0	1	0	0	901.16	0.605321	0.605157	0.000659193	7	0.00565584	11	0	68.8767	3.98916e-07
2	1	0	1	0	0	903.856	0.591839	0.591627	0.000754856	7	0.00565732	11	0	71.573	4.46593e-07
2	1	0	1	0	0	906.552	0.578358	0.578117	0.00020735	7	0.00565828	11	0	74.2693	1.19872e-07
2	1	0	1	0	0	909.248	0.564877	0.564689	0.00039684	7	0.00565897	11	0	76.9655	2.24091e-07
2	0	0	1	0	0	911.945	0.551395	0.551198	0.000382158	7	0.00565947	11	0	79.6618	2.10644e-07
2	1	0	1	0	0	914.641	0.537913	0.537736	5.56254e-05	7	0.00565989	11	0	82.3581	2.99118e-08
2	1	0	1	0	0	917.337	0.524433	0.524214	0.000116628	7	0.00566018	11	0	85.0543	6.1138e-08
2	1	0	1	0	0	920.034	0.510951	0.510712	-8.33107e-05	7	0.00566043	11	0	87.7506	-4.25478e-08
2	1	0	1	0	0	922.73	0.497469	0.497235	0.000329357	7	0.0056605	11	0	0.000000000000000E+000	1.63768e-07
2	1	0	1	0	0	925.426	0.483989	0.483762	4.89106e-05	7	0.0056605	11	0	0.000000000000000E+000	2.36611e-08
2	0	0	1	0	0	928.122	0.470507	0.470263	-0.000170853	7	0.00566036	11	0	1.0985	-8.03458e-08
2	0	0	0	0	0	930.819	0.457026	0.456789	2.1684e-06	7	0.00566023	11	0	0.000000000000000E+000	9.90503e-10
2	0	0	1	0	1	933.372	0.455778	0.455566	0.00100455	8	0.00566173	11	0	1.0985	4.57638e-07
2	1	0	1	0	1	936.068	0.469259	0.469022	0.0015303	8	0.00566553	11	0	3.7947	7.17744e-07
2	1	0	0	0	1	938.765	0.48274	0.482543	0.00129621	8	0.00566935	11	0	6.491	6.25476e-07
2	1	0	1	0	1	941.461	0.496222	0.496025	0.00115472	8	0.00567312	11	0	9.1873	5.72768e-07
2	0	0	1	0	1	944.157	0.509702	0.509481	0.00162929	8	0.00567697	11	0	11.8835	8.30092e-07
2	0	0	0	0	1	946.854	0.523184	0.522968	0.00109199	8	0.00568084	11	0	14.5798	5.71078e-07
2	1	0	1	0	1	949.55	0.536666	0.536472	0.00147078	8	0.00568473	11	0	17.2761	7.89031e-07
2	0	0	1	0	1	952.246	0.550147	0.549954	0.00118467	8	0.00568866	11	0	19.9723	6.51513e-07
2	1	0	0	0	1	954.942	0.563628	0.563451	0.0016012	8	0.00569263	11	0	22.6686	9.02195e-07
2	1	0	1	0	1	957.639	0.57711	0.576916	0.00120995	8	0.00569674	11	0	25.3649	6.98041e-07
2	1	0	1	0	1	960.335	0.590591	0.590347	0.00135384	8	0.00570113	11	0	28.0611	7.99235e-07
2	1	0	0	0	1	963.031	0.604072	0.603888	0.0015515	8	0.00570589	11	0	30.7574	9.36931e-07
2	0	0	1	0	1	965.727	0.617554	0.617289	0.00206338	8	0.00571149	11	0	33.4537	1.2737e-06
2	1	0	1	0	1	968.424	0.631035	0.630816	0.00319216	8	0.00571865	11	0	36.1499	2.01366e-06
2	1	0	0	0	1	971.12	0.644516	0.644311	0.00501357	8	0.00572937	11	0	38.8462	3.2303e-06
2	1	0	1	0	1	973.816	0.657997	0.657775	0.00951084	8	0.0057486	11	0	41.5424	6.25599e-06
2	1	0	1	0	1	976.512	0.671479	0.671247	0.0198505	8	0.00578695	11	0	44.2387	1.33246e-05
2	1	0	1	0	1	979.209	0.68496	0.684752	0.0387832	8	0.00586354	11	0	46.9349	2.65569e-05
2	1	0	1	0	1	981.905	0.698441	0.698198	0.0694358	8	0.00600649	11	0	49.6312	4.84799e-05
2	1	0	1	0	1	984.374	0.689204	0.688968	0.04955	8	0.00615942	11	0	52.1	3.41383e-05
2	1	0	1	0	1	987.07	0.675722	0.675457	0.0269485	8	0.00626016	11	0	54.7963	1.82025e-05
2	1	0	1	0	1	989.766	0.662242	0.661998	0.0136264	8	0.00631278	11	0	57.4925	9.02064e-06
2	1	0	1	0	1	992.463	0.64876	0.648532	0.00574211	8	0.00633731	11	0	60.1888	3.72394e-06
2	1	0	1	0	1	995.159	0.635278	0.635063	0.00295986	8	0.00634807	11	0	62.8851	1.8797e-06
2	1	0	1	0	1	997.855	0.621798	0.621575	0.00126864	8	0.00635308	11	0	65.5813	7.88555e-07
2	1	0	1	0	1	1000.55	0.608316	0.608137	0.000953575	8	0.00635577	11	0	68.2776	5.79904e-07
2	0	0	1	0	1	1003.25	0.594834	0.59458	0.000606164	8	0.00635748	11	0	70.9739	3.60413e-07
2	1	0	1	0	1	1005.94	0.581354	0.581119	0.000578462	8	0.00635865	11	0	73.6701	3.36155e-07
2	1	0	1	0	1	1008.64	0.567872	0.567659	0.000591994	8	0.0063595	11	0	76.3664	3.3605e-07
2	0	0	0	0	1	1011.34	0.554391	0.554214	0.000116312	8	0.00636017	11	0	79.0626	6.44617e-08
2	0	0	1	0	1	1014.03	0.54091	0.54061	0.000367121	8	0.00636076	11	0	81.7589	1.98469e-07
2	1	0	1	0	1	1016.73	0.527429	0.527246	0.000239183	8	0.00636136	11	0	84.4551	1.26108e-07
2	1	0	0	0	1	1019.43	0.513947	0.51369	0.000456373	8	0.00636188	11	0	87.1514	2.34434e-07
2	1	0	1	0	1	1022.12	0.500466	0.500221	-8.87858e-06	8	0.00636226	11	0	89.8477	-4.44125e-09
2	0	0	1	0	1	1024.82	0.486985	0.486793	0.000457459	8	0.00636254	11	0	92.5439	2.22688e-07
2	1	0	0	0	1	1027.51	0.473503	0.473283	-0.00013242	8	0.0063627	11	0	95.2402	-6.2672e-08
2	1	0	1	0	1	1030.21	0.460021	0.459769	0.000428172	8	0.00636283	11	0	0.0999	1.9686e-07
2	1	0	1	0	0	1032.76	0.452782	0.452526	0.00141207	9	0.0063636	11	0	0.4993	6.38999e-07
2	0	0	0	0	0	1035.46	0.466263	0.466028	0.00107322	9	0.0063674	11	0	3.1956	5.0015e-07
2	1	0	1	0	0	1038.16	0.479745	0.479517	0.00161508	9	0.00637124	11	0	5.8919	7.74455e-07
2	1	0	1	0	0	1040.85	0.493226	0.493019	0.00104653	9	0.00637512	11	0	8.5881	5.15957e-07
2	1	0	0	0	0	1043.55	0.506707	0.506452	0.00135712	9	0.00637902	11	0	11.2844	6.87318e-07
2	1	0	1	0	0	1046.25	0.520189	0.519952	0.00155491	9	0.00638289	11	0	13.9807	8.08478e-07
2	0	0	1	0	0	1048.94	0.53367	0.533426	0.00130679	9	0.00638675	11	0	16.6769	6.97073e-07
2	1	0	0	0	0	1051.64	0.547151	0.546986	0.00112829	9	0.00639059	11	0	19.3732	6.17159e-07
2	0	0	1	0	0	1054.33	0.560632	0.560353	0.00113159	9	0.00639448	11	0	22.0694	6.3409e-07
2	1	0	1	0	0	1057.03	0.574114	0.573881	0.00163364	9	0.00639847	11	0	24.7657	9.37517e-07
2	0	0	1	0	0	1059.73	0.587594	0.587359	0.00133195	9	0.00640271	11	0	27.4619	7.82331e-07
2	1	0	1	0	0	1062.42	0.601076	0.600847	0.00189202	9	0.00640731	11	0	30.1582	1.13682e-06
2	1	0	1	0	0	1065.12	0.614558	0.614355	0.00192558	9	0.00641254	11	0	32.8545	1.18299e-06
2	1	0	1	0	0	1067.82	0.628039	0.627765	0.00296328	9	0.00641905	11	0	35.5507	1.86025e-06
2	1	0	1	0	0	1070.51	0.64152	0.641269	0.00405576	9	0.00642846	11	0	38.247	2.60084e-06
2	1	0	1	0	0	1073.21	0.655002	0.654767	0.00831983	9	0.00644473	11	0	40.9433	5.44755e-06
2	1	0	1	0	0	1075.9	0.668483	0.668276	0.0162657	9	0.00647683	11	0	43.6395	1.087e-05
2	1	0	1	0	0	1078.6	0.681964	0.681754	0.0328002	9	0.00654125	11	0	46.3358	2.23616e-05
2	1	0	0	0	0	1081.3	0.695445	0.695226	0.0597279	9	0.00666377	11	0	49.032	4.15244e-05
2	1	0	1	0	0	1083.77	0.692199	0.69202	0.0541568	9	0.00682134	11	0	51.5009	3.74776e-05
2	1	0	1	0	0	1086.46	0.678719	0.678521	0.0306811	9	0.00693328	11	0	54.1971	2.08178e-05
2	1	0	1	0	0	1089.16	0.665237	0.665032	0.0152615	9	0.00699316	11	0	56.8934	1.01494e-05
2	1	0	0	0	0	1091.85	0.651756	0.651521	0.00723732	9	0.00702168	11	0	59.5896	4.71527e-06
2	1	0	1	0	0	1094.55	0.638274	0.63806	0.00304025	9	0.00703422	11	0	62.2859	1.93986e-06
2	1	0	1	0	0	1097.25	0.624794	0.624583	0.00178093	9	0.00703991	11	0	64.9821	1.11234e-06
2	1	0	0	0	0	1099.94	0.611312	0.611094	0.00068145	9	0.0070428	11	0	67.6784	4.1643e-07
2	1	0	1	0	0	1102.64	0.59783	0.597613	0.000636169	9	0.00704456	11	0	70.3747	3.80183e-07
2	1	0	1	0	0	1105.34	0.58435	0.584112	0.000418717	9	0.00704574	11	0	73.0709	2.44578e-07
2	0	0	0	0	0	1108.03	0.570868	0.570672	0.00039357	9	0.00704659	11	0	75.7672	2.24599e-07
2	0	0	1	0	0	1110.73	0.557387	0.557128	0.00037362	9	0.00704722	11	0	78.4635	2.08154e-07
2	1	0	1	0	0	1113.42	0.543906	0.543669	0.000406754	9	0.00704771	11	0	81.1597	2.2114e-07
2	1	0	0	0	0	1116.12	0.530424	0.53026	0.000533976	9	0.00704817	11	0	83.856	2.83146e-07
2	1	0	1	0	0	1118.82	0.516942	0.5167	0.000168758	9	0.0070485	11	0	86.5523	8.71972e-08
2	0	0	1	0	0	1121.51	0.503462	0.503204	2.74483e-05	9	0.00704875	11	0	89.2485	1.38121e-08
2	0	0	0	0	0	1124.21	0.48998	0.489764	0.00021716	9	0.00704894	11	0	91.9448	1.06357e-07
2	1	0	1	0	0	1126.91	0.476499	0.476222	0.000267843	9	0.00704906	11	0	0.2995	1.27553e-07
2	0	0	1	0	0	1129.6	0.463018	0.462815	-6.73701e-05	9	0.00704915	11	0	0.000000000000000E+000	-3.11799e-08
2	1	0	1	0	1	1132.2	0.450011	0.449792	6.54155e-05	9	0.00704906	11	0	0.1024	2.94234e-08
2	1	0	1	0	1	1134.85	0.463267	0.46303	0.00100489	10	0.00705278	11	0	2.5964	4.65295e-07
2	0	0	1	0	1	1137.55	0.476749	0.476526	0.0012553	10	0.00705661	11	0	5.2927	5.98185e-07
2	1	0	1	0	1	1140.24	0.49023	0.490059	0.001542	10	0.00706045	11	0	7.9889	7.55672e-07
2	0	0	1	0	1	1142.94	0.503711	0.503439	0.000972718	10	0.00706427	11	0	10.6852	4.89704e-07
2	1	0	1	0	1	1145.64	0.517193	0.517012	0.00153797	10	0.00706807	11	0	13.3815	7.95149e-07
2	1	0	1	0	1	1148.33	0.530674	0.530497	0.00114698	10	0.00707191	11	0	16.0777	6.08469e-07
2	1	0	1	0	1	1151.03	0.544155	0.543915	0.0015099	10	0.00707577	11	0	18.774	8.21256e-07
2	1	0	1	0	1	1153.73	0.557637	0.557408	0.00113604	10	0.0070796	11	0	21.4703	6.33237e-07
2	1	0	1	0	1	1156.42	0.571118	0.570941	0.0015893	10	0.00708357	11	0	24.1665	9.07394e-07
2	1	0	1	0	1	1159.12	0.584599	0.584406	0.00119956	10	0.00708768	11	0	26.8628	7.01031e-07
2	1	0	1	0	1	1161.81	0.598081	0.597875	0.00174583	10	0.00709209	11	0	29.5591	1.04379e-06
2	1	0	1	0	1	1164.51	0.611562	0.611381	0.00211464	10	0.00709701	11	0	32.2553	1.29285e-06
2	1	0	1	0	1	1167.21	0.625043	0.624824	0.00228651	10	0.00710301	11	0	34.9516	1.42867e-06
2	1	0	0	0	1	1169.9	0.638524	0.638299	0.00385964	10	0.00711133	11	0	37.6478	2.4636e-06
2	1	0	1	0	1	1172.6	0.652006	0.651814	0.00670118	10	0.00712525	11	0	40.3441	4.36792e-06
2	1	0	1	0	1	1175.3	0.665486	0.665249	0.013833	10	0.00715198	11	0	43.0403	9.2024e-06
2	1	0	0	0	1	1177.99	0.678968	0.678747	0.0273841	10	0.007206	11	0	45.7366	1.85869e-05
2	1	0	1	0	1	1180.69	0.69245	0.692238	0.0520508	10	0.0073106	11	0	48.4329	3.60315e-05
2	1	0	1	0	1	1183.16	0.695196	0.69498	0.0595387	10	0.00746467	11	0	50.9017	4.13782e-05
2	1	0	1	0	1	1185.85	0.681715	0.681524	0.0341395	10	0.00758876	11	0	53.5979	2.32669e-05
2	1	0	0	0	1	1188.55	0.668233	0.667968	0.0179212	10	0.00765677	11	0	56.2942	1.19708e-05
2	1	0	1	0	1	1191.25	0.654751	0.654572	0.00819489	10	0.00768986	11	0	58.9905	5.36414e-06
2	1	0	1	0	1	1193.94	0.641271	0.64103	0.00344489	10	0.00770447	11	0	61.6867	2.20828e-06
2	1	0	0	0	1	1196.64	0.627789	0.627579	0.00178033	10	0.00771096	11	0	64.383	1.1173e-06
2	1	0	1	0	1	1199.33	0.614307	0.614044	0.00111034	10	0.00771413	11	0	67.0793	6.81799e-07
2	1	0	1	0	1	1202.03	0.600827	0.600618	0.000415601	10	0.00771606	11	0	69.7755	2.49618e-07
2	1	0	0	0	1	1204.73	0.587345	0.587105	0.000733504	10	0.00771728	11	0	72.4718	4.30644e-07
2	1	0	1	0	1	1207.42	0.573864	0.573648	0.00024662	10	0.00771815	11	0	75.168	1.41473e-07
2	0	0	1	0	1	1210.12	0.560382	0.560167	0.000204144	10	0.00771884	11	0	77.8643	1.14355e-07
2	1	0	1	0	1	1212.82	0.546902	0.546673	0.000501559	10	0.00771939	11	0	80.5605	2.74189e-07
2	0	0	1	0	1	1215.51	0.53342	0.533143	9.65595e-05	10	0.00771984	11	0	83.2568	5.148e-08
2	0	0	1	0	1	1218.21	0.519939	0.519671	0.000269022	10	0.00772016	11	0	85.9531	1.39803e-07
2	0	0	1	0	1	1220.9	0.506458	0.50626	-0.000101128	10	0.00772037	11	0	88.6493	-5.11971e-08
2	1	0	1	0	1	1223.6	0.492976	0.492755	0.000397398	10	0.00772047	11	0	0.0999	1.9582e-07
2	1	0	1	0	1	1226.3	0.479494	0.479225	0.000145105	10	0.00772054	11	0	0.000000000000000E+000	6.95382e-08
2	0	0	1	0	1	1228.99	0.466014	0.465749	-0.000215981	10	0.00772048	11	0	0.0998	-1.00593e-07
2	0	0	1	0	1	1231.69	0.452532	0.452323	0.00027827	10	0.00772032	11	0	1.9973	1.25868e-07
2	1	0	1	0	0	1234.24	0.460272	0.459998	0.00153722	11	0.00772302	11	0	1.9973	7.07116e-07
2	0	0	1	0	0	1236.94	0.473753	0.473526	0.00107539	11	0.00772671	11	0	4.6935	5.09224e-07
2	1	0	1	0	0	1239.64	0.487234	0.487005	0.00133827	11	0.00773037	11	0	7.3898	6.51746e-07
2	1	0	0	0	0	1242.33	0.500715	0.500472	0.00134015	11	0.00773401	11	0	10.086	6.70706e-07
2	1	0	1	0	0	1245.03	0.514197	0.513987	0.0014403	11	0.00773766	11	0	12.7823	7.40297e-07
2	1	0	1	0	0	1247.72	0.527678	0.52748	0.000986448	11	0.0077414	11	0	15.4785	5.20332e-07
2	1	0	0	0	0	1250.42	0.541159	0.54091	0.00153626	11	0.00774518	11	0	18.1748	8.30977e-07
2	0	0	1	0	0	1253.12	0.554641	0.55444	0.00118927	11	0.0077489	11	0	20.8711	6.59382e-07
2	1	0	1	0	0	1255.81	0.568122	0.567904	0.00117327	11	0.0077527	11	0	23.5673	6.66303e-07
2	1	0	0	0	0	1258.51	0.581603	0.581369	0.00164846	11	0.00775663	11	0	26.2636	9.58366e-07
2	1	0	1	0	0	1261.21	0.595085	0.594877	0.00139748	11	0.0077609	11	0	28.9599	8.31327e-07
2	1	0	1	0	0	1263.9	0.608565	0.608361	0.00168344	11	0.00776565	11	0	31.6561	1.02414e-06
2	1	0	0	0	0	1266.6	0.622047	0.621819	0.00251991	11	0.00777134	11	0	34.3524	1.56693e-06
2	1	0	1	0	0	1269.29	0.635529	0.635307	0.00309089	11	0.00777886	11	0	37.0487	1.96366e-06
2	1	0	1	0	0	1271.99	0.64901	0.648817	0.0057054	11	0.00779084	11	0	39.7449	3.70176e-06
2	1	0	0	0	0	1274.69	0.662491	0.662272	0.0114623	11	0.00781323	11	0	42.4412	7.59117e-06
2	1	0	1	0	0	1277.38	0.675973	0.675764	0.0228491	11	0.00785831	11	0	45.1375	1.54406e-05
2	1	0	1	0	0	1280.08	0.689454	0.68926	0.044484	11	0.00794692	11	0	47.8337	3.06611e-05
2	1	0	1	0	0	1282.55	0.698192	0.697964	0.064367	11	0.00808947	11	0	50.3025	4.49259e-05
2	1	0	0	0	0	1285.24	0.68471	0.684529	0.0381144	11	0.00822596	11	0	52.9988	2.60904e-05
2	1	0	1	0	0	1287.94	0.671229	0.671013	0.020379	11	0.00830257	11	0	55.695	1.36746e-05
2	1	0	1	0	0	1290.64	0.657748	0.657496	0.00947462	11	0.00834078	11	0	58.3913	6.22952e-06
2	1	0	1	0	0	1293.33	0.644267	0.6441	0.00405751	11	0.00835794	11	0	61.0875	2.61344e-06
2	1	0	1	0	0	1296.03	0.630785	0.63053	0.00213602	11	0.0083655	11	0	63.7838	1.34682e-06
2	1	0	1	0	0	1298.73	0.617303	0.617054	0.000929413	11	0.00836917	11	0	66.4801	5.73498e-07
2	0	0	1	0	0	1301.42	0.603823	0.603612	0.000468549	11	0.00837126	11	0	69.1763	2.82822e-07
2	0	0	1	0	0	1304.12	0.590341	0.590119	0.000484057	11	0.00837264	11	0	71.8726	2.85651e-07
2	1	0	1	0	0	1306.82	0.576859	0.576604	0.000611432	11	0.00837362	11	0	74.5689	3.52554e-07
2	1	0	1	0	0	1309.51	0.563379	0.56314	0.000555065	11	0.00837427	11	0	77.2651	3.1258e-07
2	1	0	1	0	0	1312.21	0.549897	0.549651	0.000190654	11	0.00837473	11	0	79.9614	1.04793e-07
2	0	0	1	0	0	1314.9	0.536415	0.536168	8.19406e-05	11	0.0083751	11	0	82.6577	4.39339e-08
2	1	0	1	0	0	1317.6	0.522935	0.522706	0.000396556	11	0.00837537	11	0	85.3539	2.07282e-07
2	1	0	1	0	0	1320.3	0.509453	0.509196	-3.40544e-05	11	0.0083755	11	0	88.0502	-1.73404e-08
2	1	0	0	0	0	1322.99	0.495972	0.495727	0.000323203	11	0.00837557	11	0	0.000000000000000E+000	1.6022e-07
2	0	0	1	0	0	1325.69	0.482491	0.482285	9.20197e-05	11	0.00837556	11	0	0.2996	4.43797e-08
2	1	0	1	0	0	1328.39	0.46901	0.468791	-6.95779e-05	11	0.00837545	11	0	1.1983	-3.26175e-08
2	0	0	0	0	0	1331.08	0.455528	0.455305	1.80181e-06	11	0.00837528	11	0	1.2982	8.20374e-10
2	1	0	1	0	1	1333.64	0.457276	0.457047	0.00105983	12	0.00837712	11	0	1.3981	4.84392e-07
2	1	0	1	0	1	1336.33	0.470756	0.470516	0.00153203	12	0.00838081	11	0	4.0943	7.20843e-07
2	1	0	0	0	1	1339.03	0.484238	0.483999	0.00117703	12	0.0083845	11	0	6.7906	5.69682e-07
2	0	0	1	0	1	1341.72	0.49772	0.497433	0.0013876	12	0.0083882	11	0	9.4869	6.90237e-07
2	1	0	1	0	1	1344.42	0.511201	0.510948	0.00124713	12	0.00839189	11	0	12.1831	6.37216e-07
2	1	0	0	0	1	1347.12	0.524682	0.524462	0.00137685	12	0.00839553	11	0	14.8794	7.22108e-07
2	1	0	1	0	1	1349.81	0.538164	0.537914	0.00100857	12	0.0083992	11	0	17.5757	5.42524e-07
2	0	0	1	0	1	1352.51	0.551645	0.55142	0.00143384	12	0.00840288	11	0	20.2719	7.90646e-07
2	0	0	0	0	1	1355.21	0.565126	0.564928	0.00121782	12	0.0084066	11	0	22.9682	6.87982e-07
2	1	0	1	0	1	1357.9	0.578607	0.578399	0.00117242	12	0.00841041	11	0	25.6644	6.78128e-07
2	1	0	1	0	1	1360.6	0.592089	0.591814	0.0016027	12	0.00841439	11	0	28.3607	9.48501e-07
2	1	0	1	0	1	1363.29	0.60557	0.605344	0.00146405	12	0.00841873	11	0	31.0569	8.86254e-07
2	1	0	1	0	1	1365.99	0.619051	0.618804	0.00214211	12	0.00842391	11	0	33.7532	1.32555e-06
2	1	0	1	0	1	1368.69	0.632533	0.632282	0.00269759	12	0.00843066	11	0	36.4495	1.70564e-06
2	1	0	1	0	1	1371.38	0.646014	0.645773	0.00494846	12	0.00844101	11	0	39.1457	3.19558e-06
2	1	0	1	0	1	1374.08	0.659495	0.659296	0.00963917	12	0.00845981	11	0	41.842	6.35507e-06
2	1	0	1	0	1	1376.78	0.672977	0.672723	0.019635	12	0.00849756	11	0	44.5383	1.32089e-05
2	1	0	1	0	1	1379.47	0.686457	0.686224	0.0376645	12	0.00857276	11	0	47.2345	2.58463e-05
2	1	0	1	0	1	1382.15	0.699839	0.699614	0.0682062	12	0.00871181	11	0	49.9108	4.7718e-05
2	1	0	1	0	1	1384.64	0.687706	0.687505	0.0424543	12	0.00884773	11	0	52.3996	2.91876e-05
2	1	0	1	0	1	1387.33	0.674224	0.674075	0.0233669	12	0.0089343	11	0	55.0959	1.57511e-05
2	1	0	1	0	1	1390.03	0.660744	0.660447	0.0112827	12	0.00897851	11	0	57.7921	7.45165e-06
2	1	0	1	0	1	1392.73	0.647262	0.647064	0.0050604	12	0.00899865	11	0	60.4884	3.2744e-06
2	1	0	1	0	1	1395.42	0.63378	0.633562	0.00216886	12	0.0090074	11	0	63.1847	1.37411e-06
2	1	0	1	0	1	1398.12	0.6203	0.620056	0.000999988	12	0.00901143	11	0	65.8809	6.20048e-07
2	1	0	1	0	1	1400.81	0.606818	0.606632	0.00049893	12	0.0090135	11	0	68.5772	3.02667e-07
2	1	0	0	0	1	1403.51	0.593337	0.593114	0.000238614	12	0.00901479	11	0	71.2734	1.41525e-07
2	0	0	1	0	1	1406.21	0.579856	0.579605	0.000259867	12	0.00901565	11	0	73.9697	1.5062e-07
2	0	0	1	0	1	1408.9	0.566375	0.56617	0.000511459	12	0.00901631	11	0	76.6659	2.89573e-07
2	0	0	0	0	1	1411.6	0.552893	0.552693	0.00036272	12	0.0090168	11	0	79.3622	2.00473e-07
2	1	0	1	0	1	1414.3	0.539411	0.539183	-1.35603e-05	12	0.00901721	11	0	82.0585	-7.31148e-09
2	0	0	1	0	1	1416.99	0.525931	0.525733	-3.29393e-05	12	0.00901746	11	0	84.7547	-1.73173e-08
2	1	0	0	0	1	1419.69	0.512449	0.512263	-0.000125057	12	0.00901765	11	0	0.1997	-6.40621e-08
2	1	0	1	0	1	1422.38	0.498968	0.498724	-5.48994e-05	12	0.00901776	11	0	0.000000000000000E+000	-2.73796e-08
2	1	0	1	0	1	1425.08	0.485487	0.485252	0.000413097	12	0.00901787	11	0	1.5978	2.00456e-07
2	1	0	0	0	1	1427.78	0.472005	0.471758	0.000246095	12	0.00901794	11	0	0.000000000000000E+000	1.16098e-07
2	0	0	1	0	1	1430.47	0.458523	0.458261	-0.000184684	12	0.00901796	11	0	0.000000000000000E+000	-8.46335e-08
2	0	0	1	0	0	1433.03	0.45428	0.454034	0.00111557	13	0.00901905	11	0	0.7989	5.06506e-07
2	1	0	0	0	0	1435.72	0.467761	0.467579	0.0014253	13	0.00902274	11	0	3.4952	6.66441e-07
2	1	0	1	0	0	1438.42	0.481243	0.481012	0.00157138	13	0.00902648	11	0	6.1915	7.55851e-07
2	1	0	1	0	0	1441.12	0.494724	0.494537	0.00132377	13	0.00903025	11	0	8.8877	6.54652e-07
2	1	0	0	0	0	1443.81	0.508205	0.507984	0.00108154	13	0.00903401	11	0	11.584	5.49404e-07
2	1	0	1	0	0	1446.51	0.521686	0.521453	0.0012321	13	0.00903769	11	0	14.2802	6.42484e-07
2	1	0	1	0	0	1449.2	0.535168	0.534968	0.00127578	13	0.00904134	11	0	16.9765	6.82501e-07
2	0	0	1	0	0	1451.9	0.548649	0.548404	0.000996042	13	0.00904503	11	0	19.6727	5.46234e-07
2	1	0	1	0	0	1454.6	0.56213	0.561891	0.00118005	13	0.00904873	11	0	22.369	6.6306e-07
2	1	0	1	0	0	1457.29	0.575612	0.5754	0.00148032	13	0.00905263	11	0	25.0653	8.51778e-07
2	1	0	1	0	0	1459.99	0.589093	0.588874	0.00166389	13	0.0090567	11	0	27.7615	9.79825e-07
2	1	0	1	0	0	1462.69	0.602574	0.602314	0.00145924	13	0.00906103	11	0	30.4578	8.78923e-07
2	0	0	1	0	0	1465.38	0.616056	0.61583	0.00180811	13	0.00906604	11	0	33.1541	1.11349e-06
2	1	0	1	0	0	1468.08	0.629537	0.629289	0.00278452	13	0.00907234	11	0	35.8503	1.75227e-06
2	1	0	1	0	0	1470.77	0.643018	0.642852	0.00437427	13	0.00908153	11	0	38.5466	2.81201e-06
2	1	0	0	0	0	1473.47	0.656499	0.656232	0.00792129	13	0.00909769	11	0	41.2428	5.19821e-06
2	1	0	1	0	0	1476.17	0.669981	0.669754	0.0162953	13	0.00912958	11	0	43.9391	1.09138e-05
2	1	0	1	0	0	1478.86	0.683461	0.683266	0.0325914	13	0.00919351	11	0	46.6353	2.22686e-05
2	1	0	0	0	0	1481.56	0.696943	0.696712	0.0592852	13	0.00931504	11	0	49.3316	4.13047e-05
2	1	0	0	0	0	1484.03	0.690702	0.690534	0.0477303	13	0.00945946	11	0	51.8004	3.29594e-05
2	1	0	1	0	0	1486.72	0.677221	0.67699	0.0264221	13	0.00955727	11	0	54.4967	1.78875e-05
2	1	0	1	0	0	1489.42	0.66374	0.663555	0.0132578	13	0.00960851	11	0	57.1929	8.79727e-06
2	1	0	0	0	0	1492.12	0.650258	0.650004	0.00599082	13	0.00963234	11	0	59.8892	3.89406e-06
2	1	0	1	0	0	1494.81	0.636777	0.636567	0.00271782	13	0.00964276	11	0	62.5855	1.73007e-06
2	1	0	1	0	0	1497.51	0.623296	0.623085	0.00144659	13	0.00964748	11	0	65.2817	9.01346e-07
2	1	0	0	0	0	1500.21	0.609814	0.609595	0.0010822	13	0.00964997	11	0	67.978	6.59704e-07
2	1	0	1	0	0	1502.9	0.596332	0.596095	0.000675937	13	0.00965151	11	0	70.6743	4.02923e-07
2	1	0	1	0	0	1505.6	0.582852	0.582593	0.000297567	13	0.00965254	11	0	73.3705	1.73361e-07
2	0	0	0	0	0	1508.29	0.56937	0.569151	0.000148908	13	0.00965326	11	0	76.0668	8.47512e-08
2	1	0	1	0	0	1510.99	0.555888	0.555698	0.000498838	13	0.00965376	11	0	78.7631	2.77203e-07
2	0	0	1	0	0	1513.69	0.542408	0.542153	0.000300517	13	0.00965413	11	0	81.4593	1.62926e-07
2	1	0	0	0	0	1516.38	0.528926	0.528729	0.00041794	13	0.00965444	11	0	84.1556	2.20977e-07
2	1	0	1	0	0	1519.08	0.515445	0.51525	0.000399615	13	0.00965468	11	0	86.8518	2.05902e-07
2	1	0	1	0	0	1521.78	0.501964	0.501676	0.000198933	13	0.00965488	11	0	89.5481	9.98001e-08
2	1	0	1	0	0	1524.47	0.488483	0.488238	0.000232869	13	0.00965506	11	0	0.4992	1.13696e-07
2	1	0	1	0	0	1527.17	0.475001	0.474762	0.000301463	13	0.00965514	11	0	0.000000000000000E+000	1.43123e-07
2	1	0	1	0	0	1529.86	0.461519	0.461276	0.00036752	13	0.00965512	11	0	0.000000000000000E+000	1.69528e-07
2	1	0	1	0	1	1532.42	0.451284	0.451039	0.00148917	14	0.00965537	11	0	0.2543	6.71673e-07
2	1	0	1	0	1	1535.11	0.464765	0.464487	0.00140645	14	0.0096591	11	0	2.9506	6.53279e-07
2	0	0	1	0	1	1537.81	0.478247	0.478003	0.00106084	14	0.00966289	11	0	5.6469	5.07085e-07
2	0	0	1	0	1	1540.51	0.491728	0.49148	0.00143815	14	0.00966666	11	0	8.3431	7.06822e-07
2	1	0	1	0	1	1543.2	0.505209	0.50497	0.00138569	14	0.00967033	11	0	11.0394	6.99731e-07
2	0	0	1	0	1	1545.9	0.518691	0.518465	0.00103333	14	0.009674	11	0	13.7357	5.35745e-07
2	1	0	1	0	1	1548.6	0.532172	0.531939	0.00153941	14	0.0096777	11	0	16.4319	8.18872e-07
2	1	0	1	0	1	1551.29	0.545653	0.545443	0.00127606	14	0.00968147	11	0	19.1282	6.96018e-07
2	0	0	1	0	1	1553.99	0.559135	0.558869	0.00109347	14	0.00968525	11	0	21.8245	6.11106e-07
2	1	0	1	0	1	1556.68	0.572616	0.572425	0.0014325	14	0.00968911	11	0	24.5207	8.19999e-07
2	1	0	1	0	1	1559.38	0.586097	0.585852	0.00163949	14	0.00969316	11	0	27.2169	9.60497e-07
2	1	0	0	0	1	1562.08	0.599578	0.599343	0.00152322	14	0.00969739	11	0	29.9132	9.12935e-07
2	0	0	1	0	1	1564.77	0.61306	0.612817	0.0017441	14	0.00970215	11	0	32.6095	1.06882e-06
2	1	0	1	0	1	1567.47	0.626541	0.626346	0.00254699	14	0.00970809	11	0	35.3057	1.5953e-06
2	1	0	0	0	1	1570.17	0.640022	0.639812	0.00355775	14	0.00971635	11	0	38.002	2.27629e-06
2	1	0	1	0	1	1572.86	0.653504	0.653277	0.00699817	14	0.00973029	11	0	40.6983	4.57174e-06
2	1	0	1	0	1	1575.56	0.666985	0.666756	0.0138925	14	0.0097572	11	0	43.3945	9.2629e-06
2	1	0	0	0	1	1578.25	0.680466	0.680269	0.0277335	14	0.00981145	11	0	46.0908	1.88662e-05
2	1	0	1	0	1	1580.95	0.693948	0.693761	0.0517707	14	0.00991639	11	0	48.7871	3.59165e-05
2	1	0	1	0	1	1583.42	0.693698	0.693451	0.0531923	14	0.0100628	11	0	51.2559	3.68862e-05
2	1	0	1	0	1	1586.12	0.680217	0.680009	0.0299586	14	0.0101726	11	0	53.9521	2.03721e-05
2	1	0	0	0	1	1588.81	0.666735	0.666543	0.0152123	14	0.0102318	11	0	56.6484	1.01396e-05
2	1	0	1	0	1	1591.51	0.653253	0.65303	0.00704448	14	0.0102599	11	0	59.3447	4.60026e-06
2	1	0	1	0	1	1594.2	0.639773	0.639492	0.00286859	14	0.0102724	11	0	62.0409	1.83444e-06
2	1	0	0	0	1	1596.9	0.626291	0.626063	0.00165384	14	0.0102779	11	0	64.7372	1.03541e-06
2	1	0	1	0	1	1599.6	0.61281	0.612608	0.000708976	14	0.0102807	11	0	67.4334	4.34325e-07
2	1	0	1	0	1	1602.29	0.599329	0.599098	0.000818858	14	0.0102823	11	0	70.1297	4.90576e-07
2	0	0	1	0	1	1604.99	0.585848	0.585629	0.000411241	14	0.0102834	11	0	72.8259	2.40835e-07
2	0	0	1	0	1	1607.69	0.572366	0.572123	0.000288946	14	0.0102842	11	0	75.5222	1.65313e-07
2	0	0	1	0	1	1610.38	0.558885	0.558653	6.56214e-05	14	0.0102847	11	0	78.2185	3.66596e-08
2	1	0	1	0	1	1613.08	0.545404	0.545171	0.000363082	14	0.0102852	11	0	80.9147	1.97942e-07
2	1	0	1	0	1	1615.77	0.531922	0.531695	0.000453281	14	0.0102856	11	0	83.611	2.41007e-07
2	0	0	1	0	1	1618.47	0.51844	0.518243	0.000428003	14	0.0102859	11	0	86.3073	2.21809e-07
2	0	0	1	0	1	1621.17	0.50496	0.504767	0.000372636	14	0.0102862	11	0	89.0035	1.88095e-07
2	0	0	1	0	1	1623.86	0.491478	0.491253	0.00036942	14	0.0102864	11	0	0.0999	1.81479e-07
2	1	0	1	0	1	1626.56	0.477996	0.477779	0.000385257	14	0.0102864	11	0	0.1998	1.84068e-07
2	1	0	1	0	1	1629.26	0.464516	0.464248	0.000239633	14	0.0102863	11	0	0.000000000000000E+000	1.11249e-07
2	1	0	1	0	1	1631.95	0.451034	0.450831	-0.000106871	14	0.0102862	11	0	0.000000000000000E+000	-4.81809e-08
2	1	0	1	0	0	1634.51	0.46177	0.461515	0.00132729	15	0.0102894	11	0	2.379	6.12565e-07
2	1	0	1	0	0	1637.2	0.475251	0.475008	0.000966041	15	0.0102931	11	0	5.0752	4.58877e-07
2	0	0	1	0	0	1639.9	0.488732	0.488517	0.00110473	15	0.0102968	11	0	7.7714	5.39681e-07
2	0	0	0	0	0	1642.59	0.502213	0.50193	0.0012459	15	0.0103006	11	0	10.4677	6.25353e-07
2	1	0	1	0	0	1645.29	0.515695	0.515484	0.00155588	15	0.0103043	11	0	13.164	8.02031e-07
2	1	0	1	0	0	1647.99	0.529175	0.528993	0.00117204	15	0.010308	11	0	15.8602	6.20003e-07
2	1	0	0	0	0	1650.68	0.542657	0.542426	0.00108691	15	0.0103117	11	0	18.5565	5.89569e-07
2	0	0	1	0	0	1653.38	0.556139	0.555936	0.00111439	15	0.0103154	11	0	21.2528	6.19532e-07
2	0	0	1	0	0	1656.08	0.56962	0.569398	0.00112881	15	0.0103192	11	0	23.949	6.4274e-07
2	1	0	0	0	0	1658.77	0.583101	0.582826	0.00128674	15	0.0103232	11	0	26.6453	7.49944e-07
2	1	0	1	0	0	1661.47	0.596583	0.596371	0.00143869	15	0.0103274	11	0	29.3416	8.57993e-07
2	1	0	1	0	0	1664.17	0.610064	0.609819	0.0015303	15	0.0103322	11	0	32.0378	9.33203e-07
2	1	0	0	0	0	1666.86	0.623545	0.623363	0.00209015	15	0.0103379	11	0	34.7341	1.30292e-06
2	1	0	1	0	0	1669.56	0.637026	0.636824	0.00323443	15	0.0103454	11	0	37.4303	2.05976e-06
2	1	0	1	0	0	1672.25	0.650508	0.650282	0.00596464	15	0.0103574	11	0	40.1266	3.8787e-06
2	1	0	1	0	0	1674.95	0.663989	0.663744	0.011816	15	0.0103802	11	0	42.8228	7.84276e-06
2	1	0	1	0	0	1677.65	0.67747	0.677202	0.023654	15	0.010426	11	0	45.5191	1.60186e-05
2	1	0	1	0	0	1680.34	0.690952	0.690751	0.0449058	15	0.0105163	11	0	48.2154	3.10187e-05
2	1	0	1	0	0	1682.81	0.696693	0.696473	0.0587447	15	0.0106573	11	0	50.6842	4.09141e-05
2	1	0	1	0	0	1685.51	0.683213	0.682952	0.0344869	15	0.0107804	11	0	53.3804	2.35529e-05
2	1	0	1	0	0	1688.2	0.669731	0.669523	0.0179567	15	0.0108484	11	0	56.0767	1.20224e-05
2	1	0	1	0	0	1690.9	0.65625	0.656037	0.00831353	15	0.0108817	11	0	58.773	5.45398e-06
2	1	0	1	0	0	1693.6	0.642769	0.642565	0.00358457	15	0.0108966	11	0	61.4692	2.30332e-06
2	1	0	1	0	0	1696.29	0.629287	0.629064	0.00151652	15	0.0109031	11	0	64.1655	9.53991e-07
2	1	0	1	0	0	1698.99	0.615806	0.615564	0.000792292	15	0.0109062	11	0	66.8618	4.87706e-07
2	1	0	1	0	0	1701.69	0.602325	0.602112	0.000647132	15	0.010908	11	0	69.558	3.89646e-07
2	1	0	1	0	0	1704.38	0.588843	0.588603	0.000401227	15	0.0109092	11	0	72.2543	2.36163e-07
2	0	0	1	0	0	1707.08	0.575361	0.575103	0.000233882	15	0.01091	11	0	74.9506	1.34507e-07
2	0	0	1	0	0	1709.77	0.561881	0.56166	0.000114713	15	0.0109106	11	0	77.6468	6.44295e-08
2	0	0	1	0	0	1712.47	0.548399	0.548159	9.38538e-06	15	0.0109111	11	0	80.3431	5.14468e-09
2	0	0	0	0	0	1715.17	0.534918	0.534688	1.95396e-05	15	0.0109114	11	0	83.0393	1.04476e-08
2	0	0	1	0	0	1717.86	0.521437	0.521204	0.000288229	15	0.0109117	11	0	85.7356	1.50226e-07
2	1	0	1	0	0	1720.56	0.507956	0.507745	0.000358469	15	0.0109118	11	0	0.2995	1.82011e-07
2	1	0	0	0	0	1723.26	0.494474	0.494284	0.000163781	15	0.0109118	11	0	0.000000000000000E+000	8.09542e-08
2	1	0	1	0	0	1725.95	0.480993	0.480771	0.000229638	15	0.0109118	11	0	0.000000000000000E+000	1.10403e-07
2	1	0	1	0	0	1728.65	0.467512	0.467294	-7.37454e-05	15	0.0109117	11	0	0.000000000000000E+000	-3.44608e-08
2	0	0	0	0	0	1731.34	0.45403	0.453858	-0.0002179	15	0.0109117	11	0	0.2996	-9.88959e-08
2	1	0	0	0	0	1732.15	0.450011	0.449792	0.00181105	15	0.0109116	11	0	1.1006	8.14594e-07