File: ACS_Catal_2026/Figures_Na_K/main_figures/data/EC/20251112_2-148_alpha_reproducibility/20251112_2-148_002_alpha_reproducibility_2_Na1_03_CVA_C02.mpt
EC-Lab ASCII FILE
Nb header lines : 66

Cyclic Voltammetry Advanced

Run on channel : 2 (SN 69290)
User :
CE vs. WE compliance from -10 V to 10 V
Electrode connection : standard
Potential control : Ewe
Ewe ctrl range : min = -1.00 V, max = 1.00 V
Safety Limits :
	Do not start on E overload
Acquisition started on : 11/12/2025 13:57:42.969
Loaded Setting File :  C:\Users\User\Documents\EC-Lab\Data\Yatsuzuka\20251112_2-148_alpha_reproducibility\20251112_2-148_002_alpha_reproducibility_2_K1.mps
Saved on :
	File : 20251112_2-148_002_alpha_reproducibility_2_Na1_03_CVA_C02.mpr
	Directory : C:\Users\User\Documents\EC-Lab\Data\Yatsuzuka\20251112_2-148_alpha_reproducibility\
	Host : 192.109.209.127
Device : SP-150e (SN .003883)
Address : 192.109.209.128
EC-LAB for windows v11.52 (software)
Internet server v11.52 (firmware)
Command interpretor v11.50 (firmware)
Electrode material :
Initial state :
Electrolyte :
Comments :
Electrode surface area : 0.001 cm2
Characteristic mass : 0.001 g
Equivalent Weight : 0.000 g/eq.
Density : 0.000 g/cm3
Volume (V) : 0.001 cm3
Cycle Definition : Charge/Discharge alternance
Ei (V)              0.450
vs.                 Ref
ti (h:m:s)          0:00:10.0000
dti (s)             0.0000
dE/dt               5.000
dE/dt unit          mV/s
E1 (V)              0.700
vs.                 Ref
t1 (h:m:s)          0:00:0.0000
dt1 (s)             0.1000
Step percent        50
N                   10
E range min (V)     -1.000
E range max (V)     1.000
I Range             10 mA
I Range min         Unset
I Range max         Unset
I Range init        Unset
Bandwidth           5
E2 (V)              0.450
vs.                 Ref
t2 (h:m:s)          0:00:0.0000
dt2 (s)             0.1000
nc cycles           14
nr                  1
Reverse Scan        0
Ef (V)              0.000
vs.                 Eoc
tf (h:m:s)          0:00:0.0000
dtf (s)             0.1000

mode	ox/red	error	control changes	Ns changes	counter inc.	time/s	control/V	Ewe/V	<I>/mA	cycle number	(Q-Qo)/C	I Range	Ns	step time/s	Pwe/W	Rwe/Ohm
2	0	0	1	0	0	231.861	0.450021	0.449535	-0.00937325	1	0.0000000E+000	11	0	0.000000000000000E+000	-4.2136e-06	47959.3
2	1	0	1	0	0	234.713	0.464278	0.463818	0.0151275	1	4.16898e-05	11	0	2.7967	7.01642e-06	30660.5
2	1	0	1	0	0	237.61	0.478762	0.478362	0.0149493	1	8.53784e-05	11	0	5.6933	7.15119e-06	31998.9
2	1	0	0	0	0	240.506	0.493244	0.492789	0.0148271	1	0.000128388	11	0	8.5898	7.30663e-06	33235.7
2	1	0	1	0	0	243.403	0.507727	0.507204	0.0152265	1	0.000171721	11	0	11.4864	7.72295e-06	33310.5
2	1	0	0	0	0	246.299	0.52221	0.52173	0.0145128	1	0.000214986	11	0	14.383	7.57174e-06	35949.7
2	1	0	1	0	0	249.196	0.536692	0.536248	0.0154332	1	0.000259149	11	0	17.2795	8.27605e-06	34746.3
2	1	0	1	0	0	252.092	0.551175	0.550713	0.0154715	1	0.000304222	11	0	20.1761	8.52033e-06	35595.4
2	1	0	1	0	0	254.989	0.565659	0.5652	0.0172767	1	0.000352168	11	0	23.0727	9.76477e-06	32714.6
2	1	0	1	0	0	257.886	0.580141	0.579654	0.0192892	1	0.000404696	11	0	25.9692	1.11811e-05	30050.8
2	1	0	0	0	0	260.782	0.594624	0.59414	0.0232331	1	0.000465914	11	0	28.8658	1.38037e-05	25573
2	1	0	1	0	0	263.679	0.609107	0.608671	0.0306381	1	0.000542997	11	0	31.7624	1.86485e-05	19866.5
2	1	0	1	0	0	266.575	0.623589	0.623118	0.0439136	1	0.000649065	11	0	34.6589	2.73633e-05	14189.6
2	1	0	1	0	0	269.472	0.638072	0.63763	0.0668616	1	0.000806752	11	0	37.5555	4.2633e-05	9536.56
2	1	0	1	0	0	272.368	0.652556	0.652082	0.110819	1	0.0010588	11	0	40.4521	7.22632e-05	5884.2
2	1	0	0	0	0	275.265	0.667038	0.666523	0.187343	1	0.00148068	11	0	43.3486	0.000124869	3557.76
2	1	0	1	0	0	278.162	0.681521	0.681064	0.318712	1	0.00219928	11	0	46.2452	0.000217063	2136.93
2	1	0	0	0	0	281.058	0.696004	0.695539	0.528352	1	0.00340661	11	0	49.1418	0.000367489	1316.43
2	1	0	0	0	0	283.705	0.69076	0.69028	0.409928	1	0.00477079	11	0	51.789	0.000282965	1683.91
2	1	0	1	0	0	286.602	0.676278	0.675852	0.228095	1	0.00566911	11	0	54.6855	0.000154158	2963.03
2	1	0	1	0	0	289.498	0.661794	0.661313	0.1213	1	0.00616022	11	0	57.5821	8.02173e-05	5451.87
2	1	0	1	0	0	292.395	0.647311	0.646856	0.0628297	1	0.00641796	11	0	60.4787	4.06417e-05	10295.4
2	1	0	1	0	0	295.292	0.632829	0.63236	0.0293326	1	0.00654642	11	0	63.3752	1.85487e-05	21558.3
2	1	0	0	0	0	298.188	0.618346	0.617896	0.0120384	1	0.00660405	11	0	66.2718	7.43851e-06	51326.9
2	1	0	1	0	0	301.085	0.603863	0.603371	0.00220703	1	0.00662228	11	0	69.1684	1.33166e-06	273386
2	0	0	1	0	0	303.981	0.58938	0.588889	-0.00355065	1	0.0066195	11	0	1.3983	-2.09094e-06	165854
2	1	0	1	0	0	306.878	0.574897	0.574439	-0.00606468	1	0.00660485	11	0	4.2949	-3.48379e-06	94718.7
2	0	0	1	0	0	309.774	0.560414	0.559977	-0.00820681	1	0.00658281	11	0	7.1915	-4.59563e-06	68233.3
2	0	0	0	0	0	312.671	0.545932	0.545448	-0.00941732	1	0.00655698	11	0	10.088	-5.13666e-06	57919.6
2	0	0	1	0	0	315.568	0.531449	0.530972	-0.00975007	1	0.00652836	11	0	12.9846	-5.17702e-06	54458.3
2	0	0	0	0	0	318.464	0.516966	0.516505	-0.0107306	1	0.00649774	11	0	15.8812	-5.54239e-06	48134
2	0	0	1	0	0	321.361	0.502484	0.501965	-0.011569	1	0.0064659	11	0	18.7777	-5.80724e-06	43388.8
2	0	0	1	0	0	324.257	0.488	0.487509	-0.0111048	1	0.00643276	11	0	21.6743	-5.41368e-06	43900.8
2	0	0	1	0	0	327.154	0.473517	0.47304	-0.0121291	1	0.00639839	11	0	24.5709	-5.73754e-06	39000.5
2	0	0	1	0	0	330.05	0.459035	0.458552	-0.0126643	1	0.00636283	11	0	27.4674	-5.80723e-06	36208.3
2	1	0	1	0	1	332.716	0.454341	0.45386	0.0123827	2	0.00634998	11	0	0.8541	5.62001e-06	36652.8
2	1	0	1	0	1	335.613	0.468823	0.468312	0.0137259	2	0.00638915	11	0	3.7506	6.42799e-06	34119
2	1	0	0	0	1	338.51	0.483306	0.482852	0.0140662	2	0.00642907	11	0	6.6472	6.79189e-06	34327.2
2	1	0	1	0	1	341.406	0.497789	0.497272	0.0140828	2	0.00646882	11	0	9.5438	7.00299e-06	35310.6
2	1	0	1	0	1	344.303	0.512271	0.511784	0.0135702	2	0.00650873	11	0	12.4403	6.94504e-06	37713.7
2	1	0	1	0	1	347.199	0.526755	0.526275	0.0140992	2	0.0065491	11	0	15.3369	7.42008e-06	37326.5
2	1	0	1	0	1	350.096	0.541238	0.540738	0.0140745	2	0.00658927	11	0	18.2335	7.61064e-06	38419.6
2	1	0	0	0	1	352.992	0.55572	0.555267	0.0146632	2	0.00663116	11	0	21.13	8.14201e-06	37867.9
2	1	0	1	0	1	355.889	0.570203	0.569707	0.0151848	2	0.00667496	11	0	24.0266	8.65089e-06	37518.2
2	1	0	0	0	1	358.786	0.584686	0.584205	0.0180124	2	0.00672359	11	0	26.9232	1.05229e-05	32433.5
2	1	0	1	0	1	361.682	0.599168	0.598668	0.0217198	2	0.00678081	11	0	29.8197	1.3003e-05	27563.2
2	1	0	1	0	1	364.579	0.613651	0.613171	0.0296049	2	0.00685533	11	0	32.7163	1.81529e-05	20711.8
2	1	0	1	0	1	367.475	0.628135	0.627682	0.0442222	2	0.00696051	11	0	35.6129	2.77574e-05	14193.8
2	1	0	1	0	1	370.372	0.642617	0.642197	0.0701328	2	0.00712217	11	0	38.5094	4.50391e-05	9156.87
2	1	0	0	0	1	373.268	0.6571	0.656721	0.118591	2	0.00738962	11	0	41.406	7.78815e-05	5537.67
2	1	0	1	0	1	376.165	0.671583	0.671141	0.206142	2	0.00784929	11	0	44.3026	0.000138351	3255.71
2	1	0	1	0	1	379.061	0.686065	0.685637	0.35513	2	0.00864489	11	0	47.1991	0.00024349	1930.67
2	1	0	1	0	1	381.843	0.699974	0.699499	0.5772	2	0.00992016	11	0	49.9808	0.000403751	1211.88
2	1	0	1	0	1	384.595	0.686265	0.685826	0.325708	2	0.0111143	11	0	52.7329	0.000223379	2105.65
2	1	0	1	0	1	387.492	0.671782	0.671352	0.177844	2	0.0118231	11	0	55.6295	0.000119396	3774.95
2	1	0	0	0	1	390.388	0.6573	0.656836	0.0931641	2	0.0122026	11	0	58.526	6.11935e-05	7050.32
2	1	0	1	0	1	393.285	0.642817	0.642348	0.0461578	2	0.0123973	11	0	61.4226	2.96494e-05	13916.4
2	1	0	0	0	1	396.182	0.628334	0.627908	0.0213662	2	0.0124911	11	0	64.3192	1.3416e-05	29388
2	1	0	1	0	1	399.078	0.613852	0.613406	0.00719754	2	0.0125289	11	0	67.2157	4.41502e-06	85224.4
2	1	0	1	0	1	401.975	0.599368	0.598892	-0.000224978	2	0.012537	11	0	0.0999	-1.34738e-07	2.662e+06
2	0	0	1	0	1	404.871	0.584885	0.584417	-0.00515735	2	0.0125282	11	0	2.7967	-3.01404e-06	113317
2	1	0	1	0	1	407.768	0.570403	0.569915	-0.00690994	2	0.0125101	11	0	5.6932	-3.93808e-06	82477.5
2	0	0	0	0	1	410.664	0.55592	0.555448	-0.00908046	2	0.0124863	11	0	8.5898	-5.04372e-06	61169.6
2	0	0	1	0	1	413.561	0.541437	0.540934	-0.00915176	2	0.0124594	11	0	11.4864	-4.9505e-06	59107.1
2	0	0	1	0	1	416.457	0.526955	0.526469	-0.0100469	2	0.01243	11	0	14.3829	-5.2894e-06	52401
2	0	0	1	0	1	419.354	0.512471	0.511979	-0.0111194	2	0.012399	11	0	17.2795	-5.69292e-06	46043.6
2	0	0	1	0	1	422.251	0.497988	0.497526	-0.0115106	2	0.0123669	11	0	20.1761	-5.72684e-06	43223.2
2	0	0	0	0	1	425.147	0.483506	0.483022	-0.0116084	2	0.0123335	11	0	23.0726	-5.60712e-06	41609.6
2	0	0	1	0	1	428.044	0.469023	0.468559	-0.0123258	2	0.0122984	11	0	25.9692	-5.77536e-06	38014.6
2	0	0	0	0	1	430.94	0.45454	0.454035	-0.0128757	2	0.0122623	11	0	28.8658	-5.84601e-06	35263
2	1	0	1	0	0	433.606	0.458835	0.458374	0.0127159	3	0.0122725	11	0	1.698	5.82862e-06	36047.5
2	1	0	0	0	0	436.503	0.473318	0.472841	0.0140252	3	0.0123118	11	0	4.5946	6.63169e-06	33713.7
2	1	0	1	0	0	439.399	0.4878	0.487328	0.0137867	3	0.0123514	11	0	7.4911	6.71865e-06	35347.7
2	1	0	1	0	0	442.296	0.502283	0.501804	0.0139354	3	0.012391	11	0	10.3877	6.99286e-06	36009.2
2	1	0	1	0	0	445.193	0.516767	0.516316	0.013972	3	0.0124307	11	0	13.2843	7.21397e-06	36953.7
2	1	0	1	0	0	448.089	0.531249	0.530783	0.0137618	3	0.0124704	11	0	16.1808	7.30451e-06	38569.4
2	1	0	0	0	0	450.986	0.545732	0.545275	0.0137582	3	0.0125105	11	0	19.0774	7.50202e-06	39632.6
2	0	0	1	0	0	453.882	0.560215	0.559789	0.0143937	3	0.0125523	11	0	21.974	8.05744e-06	38891.2
2	1	0	1	0	0	456.779	0.574697	0.574226	0.0162468	3	0.0125967	11	0	24.8705	9.3293e-06	35344
2	1	0	1	0	0	459.675	0.58918	0.58869	0.0187681	3	0.0126461	11	0	27.7671	1.10486e-05	31366.5
2	1	0	1	0	0	462.572	0.603664	0.603164	0.0228363	3	0.0127059	11	0	30.6637	1.3774e-05	26412.5
2	1	0	0	0	0	465.469	0.618146	0.617711	0.0319962	3	0.0127851	11	0	33.5602	1.97644e-05	19305.7
2	1	0	1	0	0	468.365	0.632629	0.63219	0.0478495	3	0.0128992	11	0	36.4568	3.025e-05	13212.1
2	1	0	0	0	0	471.262	0.647112	0.646621	0.0788028	3	0.0130794	11	0	39.3534	5.09555e-05	8205.55
2	1	0	1	0	0	474.158	0.661594	0.661177	0.135472	3	0.0133819	11	0	42.2499	8.95709e-05	4880.55
2	1	0	1	0	0	477.055	0.676077	0.675589	0.235949	3	0.0139073	11	0	45.1465	0.000159404	2863.29
2	1	0	1	0	0	479.951	0.690561	0.690078	0.405247	3	0.0148173	11	0	48.0431	0.000279652	1702.86
2	1	0	1	0	0	482.589	0.696253	0.695814	0.47148	3	0.0161047	11	0	50.6803	0.000328062	1475.81
2	1	0	1	0	0	485.485	0.681771	0.681334	0.26061	3	0.0171372	11	0	53.5768	0.000177563	2614.38
2	1	0	0	0	0	488.382	0.667288	0.666794	0.139964	3	0.0177018	11	0	56.4734	9.33269e-05	4764.06
2	1	0	1	0	0	491.278	0.652805	0.652338	0.071412	3	0.0179989	11	0	59.37	4.65848e-05	9134.86
2	1	0	1	0	0	494.175	0.638323	0.637837	0.0349082	3	0.0181478	11	0	62.2665	2.22657e-05	18271.8
2	1	0	1	0	0	497.071	0.623839	0.623389	0.0145617	3	0.0182157	11	0	65.1631	9.07759e-06	42810.3
2	1	0	1	0	0	499.968	0.609356	0.608904	0.00370412	3	0.0182398	11	0	68.0597	2.25546e-06	164386
2	0	0	0	0	0	502.865	0.594874	0.594419	-0.00249681	3	0.0182403	11	0	0.8989	-1.48415e-06	238071
2	0	0	1	0	0	505.761	0.580391	0.579922	-0.00594875	3	0.0182274	11	0	3.7955	-3.44981e-06	97486.4
2	1	0	0	0	0	508.658	0.565908	0.565418	-0.00772042	3	0.0182068	11	0	6.6921	-4.36526e-06	73236.7
2	0	0	1	0	0	511.554	0.551426	0.550901	-0.00934944	3	0.0181815	11	0	9.5886	-5.15062e-06	58923.4
2	0	0	1	0	0	514.451	0.536942	0.536511	-0.0102631	3	0.0181539	11	0	12.4852	-5.50624e-06	52275.9
2	0	0	1	0	0	517.347	0.522459	0.522034	-0.0108002	3	0.018124	11	0	15.3818	-5.63806e-06	48335.6
2	0	0	1	0	0	520.244	0.507977	0.507515	-0.0114228	3	0.0180925	11	0	18.2783	-5.79726e-06	44429.9
2	0	0	0	0	0	523.141	0.493494	0.493025	-0.0116533	3	0.0180599	11	0	21.1749	-5.74538e-06	42307.8
2	0	0	1	0	0	526.037	0.479011	0.478539	-0.0118276	3	0.0180261	11	0	24.0715	-5.65998e-06	40459.4
2	0	0	1	0	0	528.934	0.464529	0.464072	-0.0120431	3	0.0179908	11	0	26.968	-5.58887e-06	38534.3
2	0	0	1	0	0	531.805	0.45017	0.44963	-0.019241	3	0.0179547	11	0	29.8397	-8.65131e-06	23368.4
2	1	0	1	0	1	534.496	0.463329	0.46284	0.0132814	4	0.017988	11	0	2.6519	6.14717e-06	34848.7
2	1	0	1	0	1	537.393	0.477812	0.477332	0.0138082	4	0.0180274	11	0	5.5485	6.59111e-06	34568.6
2	1	0	1	0	1	540.289	0.492296	0.49181	0.0140708	4	0.0180669	11	0	8.4451	6.92014e-06	34952.6
2	1	0	0	0	1	543.186	0.506778	0.506291	0.014134	4	0.0181065	11	0	11.3416	7.15594e-06	35820.7
2	1	0	1	0	1	546.083	0.521261	0.520792	0.0136177	4	0.0181461	11	0	14.2382	7.09198e-06	38243.8
2	0	0	0	0	1	548.979	0.535744	0.53528	0.0130044	4	0.0181856	11	0	17.1348	6.96102e-06	41161.3
2	1	0	1	0	1	551.876	0.550226	0.549786	0.0134462	4	0.0182258	11	0	20.0313	7.39253e-06	40887.9
2	1	0	1	0	1	554.772	0.564709	0.564263	0.0145237	4	0.0182677	11	0	22.9279	8.19518e-06	38851.2
2	1	0	1	0	1	557.669	0.579193	0.578719	0.0164753	4	0.0183126	11	0	25.8245	9.53456e-06	35126.5
2	1	0	1	0	1	560.565	0.593675	0.593194	0.0197548	4	0.0183639	11	0	28.721	1.17184e-05	30027.9
2	1	0	0	0	1	563.462	0.608158	0.607694	0.0245943	4	0.0184271	11	0	31.6176	1.49458e-05	24708.8
2	1	0	1	0	1	566.359	0.622641	0.622222	0.0344947	4	0.0185124	11	0	34.5142	2.14633e-05	18038.2
2	1	0	1	0	1	569.255	0.637123	0.636621	0.0540015	4	0.0186391	11	0	37.4107	3.43785e-05	11789
2	1	0	1	0	1	572.152	0.651606	0.651189	0.0902523	4	0.0188431	11	0	40.3073	5.87714e-05	7215.21
2	1	0	1	0	1	575.048	0.66609	0.665627	0.155646	4	0.0191905	11	0	43.2039	0.000103602	4276.54
2	1	0	0	0	1	577.945	0.680572	0.680093	0.272086	4	0.0197965	11	0	46.1004	0.000185044	2499.55
2	1	0	1	0	1	580.841	0.695055	0.694582	0.46174	4	0.0208413	11	0	48.997	0.000320716	1504.27
2	1	0	1	0	1	583.479	0.691759	0.691274	0.382717	4	0.0220848	11	0	51.6342	0.000264563	1806.23
2	1	0	0	0	1	586.375	0.677276	0.676817	0.210564	4	0.0229207	11	0	54.5308	0.000142513	3214.31
2	1	0	1	0	1	589.272	0.662794	0.662297	0.110868	4	0.0233725	11	0	57.4273	7.34277e-05	5973.72
2	1	0	1	0	1	592.168	0.64831	0.647856	0.0555827	4	0.0236054	11	0	60.3239	3.60096e-05	11655.7
2	1	0	1	0	1	595.065	0.633827	0.63339	0.0255969	4	0.0237188	11	0	63.2205	1.62128e-05	24744.8
2	1	0	1	0	1	597.961	0.619345	0.618872	0.00969552	4	0.0237675	11	0	66.117	6.00029e-06	63830.7
2	1	0	0	0	1	600.858	0.604862	0.604421	0.000903202	4	0.0237812	11	0	69.0136	5.45915e-07	669199
2	1	0	1	0	1	603.755	0.590379	0.589899	-0.00397141	4	0.023776	11	0	1.8978	-2.34273e-06	148536
2	1	0	1	0	1	606.651	0.575897	0.575428	-0.00662282	4	0.0237599	11	0	4.7943	-3.81096e-06	86885.7
2	0	0	1	0	1	609.548	0.561413	0.56093	-0.008075	4	0.0237374	11	0	7.6909	-4.52951e-06	69465
2	1	0	1	0	1	612.444	0.54693	0.546464	-0.00899626	4	0.0237115	11	0	10.5875	-4.91613e-06	60743.4
2	0	0	0	0	1	615.341	0.532448	0.531992	-0.00990981	4	0.0236832	11	0	13.484	-5.27194e-06	53683.4
2	0	0	1	0	1	618.237	0.517965	0.517509	-0.0106767	4	0.0236527	11	0	16.3806	-5.5253e-06	48470.9
2	0	0	0	0	1	621.134	0.503482	0.503034	-0.0112255	4	0.0236212	11	0	19.2772	-5.64681e-06	44811.8
2	0	0	1	0	1	624.03	0.489	0.48855	-0.0116202	4	0.0235884	11	0	22.1737	-5.67706e-06	42043.1
2	1	0	1	0	1	626.927	0.474516	0.474024	-0.0116088	4	0.0235544	11	0	25.0703	-5.50282e-06	40833.3
2	0	0	1	0	1	629.824	0.460033	0.459587	-0.0122858	4	0.0235192	11	0	27.9669	-5.6464e-06	37408
2	1	0	1	0	0	632.49	0.453341	0.45291	0.012963	5	0.0235014	11	0	0.6543	5.87105e-06	34938.8
2	1	0	1	0	0	635.386	0.467825	0.467375	0.0131138	5	0.0235399	11	0	3.5509	6.12906e-06	35639.9
2	1	0	1	0	0	638.283	0.482307	0.481836	0.0135404	5	0.0235791	11	0	6.4474	6.52426e-06	35585
2	1	0	0	0	0	641.179	0.49679	0.496264	0.0133865	5	0.0236189	11	0	9.344	6.64324e-06	37072
2	1	0	1	0	0	644.076	0.511273	0.510785	0.0134515	5	0.0236582	11	0	12.2406	6.87081e-06	37972.4
2	1	0	1	0	0	646.972	0.525755	0.525255	0.0130374	5	0.0236976	11	0	15.1371	6.84798e-06	40288.2
2	1	0	1	0	0	649.869	0.540238	0.539751	0.0139386	5	0.0237374	11	0	18.0337	7.52338e-06	38723.4
2	1	0	1	0	0	652.766	0.554722	0.554277	0.0144174	5	0.0237778	11	0	20.9303	7.99126e-06	38444.9
2	1	0	0	0	0	655.662	0.569204	0.568726	0.0147244	5	0.0238202	11	0	23.8268	8.37414e-06	38624.7
2	1	0	1	0	0	658.559	0.583687	0.583222	0.0166055	5	0.0238662	11	0	26.7234	9.68467e-06	35122.3
2	1	0	0	0	0	661.455	0.59817	0.597751	0.0203056	5	0.0239202	11	0	29.62	1.21377e-05	29437.7
2	1	0	1	0	0	664.352	0.612652	0.612209	0.0269843	5	0.0239877	11	0	32.5165	1.652e-05	22687.6
2	1	0	1	0	0	667.248	0.627135	0.626669	0.0385899	5	0.0240813	11	0	35.4131	2.41831e-05	16239.2
2	1	0	1	0	0	670.145	0.641619	0.641128	0.0617552	5	0.024224	11	0	38.3097	3.9593e-05	10381.8
2	1	0	1	0	0	673.042	0.656101	0.65567	0.104183	5	0.0244583	11	0	41.2062	6.83099e-05	6293.43
2	1	0	0	0	0	675.938	0.670584	0.670136	0.181332	5	0.0248621	11	0	44.1028	0.000121517	3695.62
2	1	0	1	0	0	678.835	0.685067	0.684645	0.317435	5	0.0255681	11	0	46.9994	0.00021733	2156.8
2	1	0	1	0	0	681.731	0.699549	0.699133	0.530785	5	0.0267758	11	0	49.8959	0.000371089	1317.17
2	1	0	1	0	0	684.368	0.687265	0.686835	0.312385	5	0.0278673	11	0	52.5331	0.000214557	2198.68
2	1	0	1	0	0	687.265	0.672781	0.672333	0.16888	5	0.028544	11	0	55.4297	0.000113544	3981.13
2	1	0	1	0	0	690.162	0.658298	0.657827	0.0887181	5	0.0289057	11	0	58.3263	5.83611e-05	7414.8
2	1	0	0	0	0	693.058	0.643816	0.643403	0.0437405	5	0.0290894	11	0	61.2228	2.81428e-05	14709.5
2	1	0	1	0	0	695.955	0.629333	0.628877	0.019045	5	0.0291759	11	0	64.1194	1.1977e-05	33020.6
2	1	0	0	0	0	698.851	0.61485	0.614374	0.00626648	5	0.0292098	11	0	67.016	3.84997e-06	98041.4
2	1	0	1	0	0	701.748	0.600367	0.599908	-0.000866287	5	0.0292159	11	0	0.000000000000000E+000	-5.19693e-07	692505
2	0	0	1	0	0	704.644	0.585884	0.585428	-0.00524882	5	0.0292061	11	0	2.8966	-3.07281e-06	111535
2	0	0	1	0	0	707.541	0.571401	0.570922	-0.00766969	5	0.0291872	11	0	5.7932	-4.3788e-06	74438.7
2	0	0	1	0	0	710.438	0.556919	0.556456	-0.00857529	5	0.0291635	11	0	8.6897	-4.77177e-06	64890.6
2	0	0	0	0	0	713.334	0.542436	0.541972	-0.00955125	5	0.0291368	11	0	11.5863	-5.17651e-06	56743.6
2	0	0	1	0	0	716.231	0.527953	0.527528	-0.0102013	5	0.0291078	11	0	14.4829	-5.38146e-06	51711.9
2	0	0	1	0	0	719.127	0.513471	0.512969	-0.0108571	5	0.0290771	11	0	17.3794	-5.56934e-06	47247.4
2	0	0	1	0	0	722.024	0.498988	0.498518	-0.011141	5	0.0290452	11	0	20.276	-5.554e-06	44746.1
2	0	0	1	0	0	724.92	0.484504	0.48402	-0.0116555	5	0.0290122	11	0	23.1726	-5.64148e-06	41527.3
2	0	0	0	0	0	727.817	0.470022	0.469483	-0.0122987	5	0.0289777	11	0	26.0691	-5.77402e-06	38173.5
2	0	0	1	0	0	730.714	0.455539	0.455027	-0.0125092	5	0.028942	11	0	28.9657	-5.69201e-06	36375.5
2	1	0	0	0	1	733.38	0.457836	0.457342	0.0131563	6	0.0289473	11	0	1.5532	6.01693e-06	34762.2
2	1	0	1	0	1	736.276	0.472319	0.471888	0.0132766	6	0.0289859	11	0	4.4498	6.26505e-06	35543
2	1	0	0	0	1	739.173	0.486802	0.486315	0.0133889	6	0.0290252	11	0	7.3464	6.51123e-06	36322.2
2	1	0	1	0	1	742.069	0.501284	0.500832	0.0133972	6	0.0290644	11	0	10.2429	6.70973e-06	37383.4
2	1	0	1	0	1	744.966	0.515768	0.515285	0.0132827	6	0.0291037	11	0	13.1395	6.84435e-06	38793.8
2	1	0	1	0	1	747.862	0.530251	0.529764	0.013596	6	0.029143	11	0	16.0361	7.20269e-06	38964.7
2	1	0	1	0	1	750.759	0.544733	0.544304	0.0137056	6	0.0291828	11	0	18.9326	7.45999e-06	39714.1
2	1	0	0	0	1	753.656	0.559216	0.55875	0.013955	6	0.0292235	11	0	21.8292	7.79736e-06	40039.4
2	1	0	1	0	1	756.552	0.573699	0.57326	0.0154594	6	0.0292663	11	0	24.7258	8.86227e-06	37081.6
2	1	0	1	0	1	759.449	0.588181	0.587695	0.0176594	6	0.0293139	11	0	27.6223	1.03783e-05	33279.5
2	1	0	1	0	1	762.345	0.602664	0.602222	0.0213161	6	0.02937	11	0	30.5189	1.2837e-05	28252
2	1	0	1	0	1	765.242	0.617148	0.616702	0.0295987	6	0.0294429	11	0	33.4155	1.82536e-05	20835.4
2	1	0	0	0	1	768.138	0.63163	0.631196	0.0435782	6	0.0295466	11	0	36.312	2.75064e-05	14484.2
2	1	0	1	0	1	771.035	0.646113	0.645617	0.0702649	6	0.0297081	11	0	39.2086	4.53642e-05	9188.33
2	1	0	0	0	1	773.932	0.660596	0.660164	0.121186	6	0.0299788	11	0	42.1052	8.00025e-05	5447.54
2	1	0	1	0	1	776.828	0.675078	0.674641	0.212472	6	0.0304505	11	0	45.0017	0.000143342	3175.2
2	1	0	1	0	1	779.725	0.689561	0.689097	0.366932	6	0.0312732	11	0	47.8983	0.000252852	1878
2	1	0	1	0	1	782.362	0.697252	0.696775	0.463458	6	0.0324716	11	0	50.5355	0.000322926	1503.42
2	1	0	1	0	1	785.258	0.682769	0.682319	0.257036	6	0.0334868	11	0	53.4321	0.000175381	2654.57
2	1	0	1	0	1	788.155	0.668287	0.667832	0.136815	6	0.034039	11	0	56.3286	9.13692e-05	4881.29
2	1	0	0	0	1	791.052	0.653804	0.653363	0.0702905	6	0.0343292	11	0	59.2252	4.59252e-05	9295.18
2	1	0	1	0	1	793.948	0.639321	0.638868	0.0335285	6	0.0344732	11	0	62.1218	2.14203e-05	19054.5
2	1	0	1	0	1	796.845	0.624839	0.624363	0.0135733	6	0.0345378	11	0	65.0183	8.47466e-06	45999.3
2	1	0	1	0	1	799.741	0.610355	0.609899	0.00315728	6	0.0345602	11	0	67.9149	1.92562e-06	193172
2	1	0	1	0	1	802.638	0.595872	0.595407	-0.00239959	6	0.0345599	11	0	1.1986	-1.42873e-06	248129
2	0	0	0	0	1	805.534	0.58139	0.580918	-0.00601698	6	0.0345466	11	0	4.0951	-3.49537e-06	96546.4
2	0	0	1	0	1	808.431	0.566907	0.56647	-0.00790886	6	0.0345259	11	0	6.9917	-4.48014e-06	71624.7
2	0	0	0	0	1	811.328	0.552424	0.551936	-0.00892395	6	0.0345012	11	0	9.8883	-4.92545e-06	61848.8
2	0	0	1	0	1	814.224	0.537942	0.537472	-0.0098683	6	0.0344736	11	0	12.7848	-5.30393e-06	54464.5
2	1	0	1	0	1	817.121	0.523458	0.522926	-0.0101697	6	0.0344442	11	0	15.6814	-5.31801e-06	51419.8
2	0	0	1	0	1	820.017	0.508975	0.508525	-0.0109379	6	0.0344134	11	0	18.578	-5.56218e-06	46492.2
2	0	0	1	0	1	822.914	0.494493	0.493999	-0.0115946	6	0.0343813	11	0	21.4745	-5.72771e-06	42606.1
2	0	0	0	0	1	825.81	0.48001	0.479555	-0.0118262	6	0.034348	11	0	24.3711	-5.67133e-06	40550.1
2	0	0	1	0	1	828.707	0.465527	0.465054	-0.0123846	6	0.0343131	11	0	27.2677	-5.7595e-06	37551.1
2	0	0	1	0	1	831.603	0.451045	0.450558	-0.0130001	6	0.034277	11	0	30.1642	-5.8573e-06	34657.9
2	1	0	1	0	0	834.27	0.462331	0.46188	0.0129424	7	0.0343052	11	0	2.3972	5.97785e-06	35687.3
2	1	0	1	0	0	837.166	0.476813	0.476321	0.0131713	7	0.0343442	11	0	5.2937	6.27378e-06	36163.5
2	1	0	1	0	0	840.063	0.491297	0.49083	0.0135381	7	0.0343836	11	0	8.1903	6.64491e-06	36255.5
2	1	0	1	0	0	842.959	0.50578	0.505353	0.0140441	7	0.034423	11	0	11.0869	7.09723e-06	35983.3
2	1	0	0	0	0	845.856	0.520262	0.519846	0.0135278	7	0.0344621	11	0	13.9834	7.03239e-06	38427.9
2	1	0	1	0	0	848.752	0.534745	0.534306	0.0132653	7	0.0345012	11	0	16.88	7.08772e-06	40278.4
2	1	0	0	0	0	851.649	0.549228	0.548808	0.0137493	7	0.0345412	11	0	19.7766	7.54575e-06	39915.3
2	1	0	1	0	0	854.545	0.56371	0.563276	0.0146115	7	0.034582	11	0	22.6731	8.23027e-06	38550.3
2	1	0	1	0	0	857.442	0.578193	0.577711	0.0160051	7	0.0346257	11	0	25.5697	9.2463e-06	36095.5
2	1	0	1	0	0	860.339	0.592676	0.592202	0.0183007	7	0.0346749	11	0	28.4663	1.08377e-05	32359.5
2	1	0	1	0	0	863.235	0.607159	0.60667	0.0228604	7	0.034735	11	0	31.3628	1.38688e-05	26538
2	1	0	0	0	0	866.132	0.621642	0.621194	0.0326395	7	0.0348143	11	0	34.2594	2.02755e-05	19032
2	1	0	1	0	0	869.028	0.636125	0.635664	0.0491684	7	0.0349304	11	0	37.156	3.12546e-05	12928.3
2	1	0	1	0	0	871.925	0.650607	0.650219	0.0814597	7	0.0351159	11	0	40.0525	5.29667e-05	7982.1
2	1	0	1	0	0	874.821	0.665091	0.664669	0.141689	7	0.0354311	11	0	42.9491	9.41765e-05	4691.04
2	1	0	1	0	0	877.718	0.679574	0.679104	0.24891	7	0.0359829	11	0	45.8457	0.000169036	2728.31
2	1	0	0	0	0	880.615	0.694056	0.693609	0.426619	7	0.0369435	11	0	48.7422	0.000295907	1625.83
2	1	0	0	0	0	883.252	0.692758	0.692297	0.379517	7	0.038147	11	0	51.3794	0.000262738	1824.15
2	1	0	1	0	0	886.148	0.678275	0.677808	0.206252	7	0.0389717	11	0	54.276	0.000139799	3286.31
2	1	0	0	0	0	889.045	0.663792	0.663332	0.108767	7	0.0394145	11	0	57.1726	7.21487e-05	6098.64
2	1	0	1	0	0	891.941	0.64931	0.648878	0.054851	7	0.0396429	11	0	60.0691	3.55916e-05	11829.8
2	1	0	1	0	0	894.838	0.634826	0.634381	0.0251277	7	0.0397536	11	0	62.9657	1.59405e-05	25246.3
2	1	0	1	0	0	897.735	0.620343	0.619835	0.00910764	7	0.0398005	11	0	65.8623	5.64524e-06	68056.6
2	1	0	1	0	0	900.631	0.605861	0.605373	0.000986423	7	0.0398137	11	0	68.7588	5.97154e-07	613706
2	1	0	0	0	0	903.528	0.591378	0.590912	-0.00382542	7	0.0398085	11	0	1.9976	-2.26049e-06	154470
2	0	0	1	0	0	906.424	0.576895	0.576446	-0.00683616	7	0.0397924	11	0	4.8942	-3.94068e-06	84323.1
2	0	0	1	0	0	909.321	0.562413	0.561931	-0.00851494	7	0.0397701	11	0	7.7907	-4.78481e-06	65993.6
2	0	0	1	0	0	912.217	0.547929	0.547476	-0.00940226	7	0.0397445	11	0	10.6873	-5.14751e-06	58228.2
2	0	0	1	0	0	915.114	0.533446	0.532962	-0.00974535	7	0.0397163	11	0	13.5839	-5.19391e-06	54688.9
2	1	0	0	0	0	918.011	0.518964	0.518494	-0.00998985	7	0.0396865	11	0	16.4804	-5.17968e-06	51902.1
2	0	0	1	0	0	920.907	0.504481	0.504006	-0.0112688	7	0.0396553	11	0	19.377	-5.67952e-06	44726
2	0	0	0	0	0	923.804	0.489998	0.489567	-0.0113654	7	0.0396229	11	0	22.2736	-5.56411e-06	43075.3
2	0	0	1	0	0	926.7	0.475516	0.475045	-0.0114945	7	0.0395892	11	0	25.1701	-5.46042e-06	41327.9
2	0	0	1	0	0	929.597	0.461032	0.460588	-0.0126816	7	0.0395541	11	0	28.0667	-5.84102e-06	36319.3
2	1	0	1	0	1	932.263	0.452342	0.451867	0.0124949	8	0.0395316	11	0	0.4545	5.64604e-06	36164
2	1	0	1	0	1	935.159	0.466825	0.466375	0.0138357	8	0.0395694	11	0	3.3511	6.45263e-06	33708.1
2	1	0	1	0	1	938.056	0.481309	0.480805	0.0139272	8	0.0396086	11	0	6.2477	6.69625e-06	34522.8
2	1	0	1	0	1	940.953	0.495791	0.495325	0.0137418	8	0.0396479	11	0	9.1442	6.80667e-06	36045.1
2	1	0	0	0	1	943.849	0.510274	0.509819	0.0131223	8	0.039687	11	0	12.0408	6.69002e-06	38851.3
2	1	0	1	0	1	946.746	0.524757	0.524256	0.0128191	8	0.0397257	11	0	14.9374	6.72049e-06	40896.5
2	1	0	1	0	1	949.642	0.539239	0.538765	0.0128574	8	0.0397647	11	0	17.8339	6.92712e-06	41903.1
2	1	0	1	0	1	952.539	0.553722	0.553244	0.0135243	8	0.0398046	11	0	20.7305	7.48221e-06	40907.5
2	1	0	1	0	1	955.435	0.568206	0.567738	0.0145576	8	0.0398459	11	0	23.6271	8.26492e-06	38999.4
2	1	0	0	0	1	958.332	0.582688	0.582231	0.0165646	8	0.0398907	11	0	26.5236	9.64444e-06	35149
2	1	0	1	0	1	961.229	0.597171	0.596739	0.0190558	8	0.0399422	11	0	29.4202	1.13713e-05	31315.3
2	1	0	0	0	1	964.125	0.611654	0.6112	0.0245317	8	0.0400059	11	0	32.3168	1.49938e-05	24914.7
2	1	0	1	0	1	967.022	0.626136	0.62569	0.0354093	8	0.0400928	11	0	35.2133	2.21552e-05	17670.2
2	1	0	1	0	1	969.918	0.640619	0.640227	0.0563094	8	0.0402239	11	0	38.1099	3.60508e-05	11369.8
2	1	0	1	0	1	972.815	0.655103	0.654669	0.0949939	8	0.040438	11	0	41.0065	6.21895e-05	6891.7
2	1	0	1	0	1	975.711	0.669585	0.669081	0.166507	8	0.0408068	11	0	43.903	0.000111407	4018.35
2	1	0	0	0	1	978.608	0.684068	0.68365	0.291597	8	0.0414542	11	0	46.7996	0.00019935	2344.5
2	1	0	1	0	1	981.505	0.698551	0.698128	0.492449	8	0.042569	11	0	49.6962	0.000343792	1417.67
2	1	0	1	0	1	984.142	0.688263	0.687818	0.312663	8	0.0436548	11	0	52.3334	0.000215055	2199.87
2	1	0	1	0	1	987.038	0.673781	0.673319	0.167662	8	0.0443295	11	0	55.2299	0.00011289	4015.94
2	1	0	1	0	1	989.935	0.659297	0.658869	0.0859567	8	0.0446857	11	0	58.1265	5.66342e-05	7665.13
2	1	0	1	0	1	992.831	0.644814	0.644351	0.0411802	8	0.0448639	11	0	61.0231	2.65345e-05	15647.1
2	1	0	0	0	1	995.728	0.630332	0.62985	0.0173511	8	0.0449462	11	0	63.9196	1.09286e-05	36300.3
2	1	0	1	0	1	998.625	0.615849	0.615386	0.00542711	8	0.0449778	11	0	66.8162	3.33977e-06	113391
2	1	0	0	0	1	1001.52	0.601366	0.600889	-0.000933884	8	0.0449828	11	0	0.2997	-5.6116e-07	643430
2	1	0	1	0	1	1004.42	0.586884	0.586416	-0.0044807	8	0.0449727	11	0	3.1962	-2.62755e-06	130876
2	0	0	1	0	1	1007.31	0.5724	0.571871	-0.00706978	8	0.0449541	11	0	6.0928	-4.043e-06	80889.6
2	0	0	1	0	1	1010.21	0.557917	0.557506	-0.00882816	8	0.0449305	11	0	8.9894	-4.92175e-06	63150.9
2	1	0	1	0	1	1013.11	0.543434	0.542969	-0.00945968	8	0.0449039	11	0	11.886	-5.13632e-06	57398.2
2	0	0	0	0	1	1016	0.528952	0.528508	-0.0106406	8	0.0448748	11	0	14.7825	-5.62363e-06	49669.1
2	0	0	1	0	1	1018.9	0.514469	0.513997	-0.0102004	8	0.0448445	11	0	17.6791	-5.24298e-06	50389.9
2	0	0	1	0	1	1021.8	0.499987	0.499541	-0.0112298	8	0.0448128	11	0	20.5756	-5.60976e-06	44483.3
2	0	0	1	0	1	1024.69	0.485503	0.485031	-0.0114943	8	0.0447801	11	0	23.4722	-5.5751e-06	42197.5
2	1	0	1	0	1	1027.59	0.47102	0.470599	-0.0115778	8	0.0447457	11	0	26.3688	-5.44851e-06	40646.7
2	0	0	0	0	1	1030.49	0.456538	0.456062	-0.0121089	8	0.0447101	11	0	29.2653	-5.52243e-06	37663.2
2	1	0	1	0	0	1033.15	0.456838	0.456383	0.012826	9	0.04471	11	0	1.2985	5.85356e-06	35582.7
2	1	0	0	0	0	1036.05	0.47132	0.470818	0.0134255	9	0.0447483	11	0	4.195	6.32097e-06	35068.9
2	1	0	1	0	0	1038.95	0.485803	0.485368	0.0137407	9	0.0447874	11	0	7.0916	6.66931e-06	35323.3
2	1	0	0	0	0	1041.84	0.500286	0.499887	0.0135361	9	0.0448265	11	0	9.9882	6.76651e-06	36929.9
2	1	0	1	0	0	1044.74	0.514768	0.514328	0.0135791	9	0.0448653	11	0	12.8847	6.98412e-06	37876.3
2	1	0	1	0	0	1047.64	0.529252	0.528807	0.0134509	9	0.0449041	11	0	15.7813	7.11294e-06	39313.9
2	1	0	1	0	0	1050.53	0.543735	0.543248	0.0132324	9	0.0449434	11	0	18.6779	7.18847e-06	41054.3
2	0	0	1	0	0	1053.43	0.558217	0.557707	0.0135163	9	0.0449836	11	0	21.5744	7.53813e-06	41261.8
2	0	0	0	0	0	1056.33	0.5727	0.572188	0.0142947	9	0.0450255	11	0	24.471	8.17927e-06	40027.9
2	1	0	1	0	0	1059.22	0.587183	0.58673	0.0169253	9	0.0450717	11	0	27.3676	9.93061e-06	34665.8
2	1	0	1	0	0	1062.12	0.601665	0.601207	0.0203913	9	0.0451257	11	0	30.2641	1.22594e-05	29483.5
2	1	0	1	0	0	1065.02	0.616148	0.615717	0.0276511	9	0.0451946	11	0	33.1607	1.70252e-05	22267.4
2	1	0	1	0	0	1067.91	0.630632	0.630166	0.0403374	9	0.0452912	11	0	36.0573	2.54192e-05	15622.4
2	1	0	0	0	0	1070.81	0.645114	0.644659	0.0648924	9	0.0454404	11	0	38.9538	4.18335e-05	9934.27
2	1	0	1	0	0	1073.7	0.659597	0.659168	0.111085	9	0.0456893	11	0	41.8504	7.32234e-05	5933.93
2	1	0	0	0	0	1076.6	0.67408	0.673608	0.195652	9	0.046123	11	0	44.747	0.000131793	3442.88
2	1	0	1	0	0	1079.5	0.688562	0.688158	0.340899	9	0.0468834	11	0	47.6435	0.000234593	2018.66
2	1	0	1	0	0	1082.14	0.698252	0.697817	0.464255	9	0.0480166	11	0	50.2807	0.000323965	1503.09
2	1	0	1	0	0	1085.03	0.683768	0.683332	0.255067	9	0.0490295	11	0	53.1773	0.000174295	2679.03
2	1	0	1	0	0	1087.93	0.669285	0.668806	0.135527	9	0.0495768	11	0	56.0739	9.06415e-05	4934.84
2	1	0	1	0	0	1090.82	0.654802	0.65429	0.0694908	9	0.0498633	11	0	58.9705	4.54671e-05	9415.5
2	1	0	0	0	0	1093.72	0.64032	0.639869	0.0327717	9	0.0500053	11	0	61.867	2.09696e-05	19525.1
2	1	0	1	0	0	1096.62	0.625837	0.625399	0.0131223	9	0.0500689	11	0	64.7636	8.20669e-06	47659.1
2	0	0	1	0	0	1099.51	0.611355	0.610923	0.00275567	9	0.0500907	11	0	67.6601	1.6835e-06	221696
2	1	0	1	0	0	1102.41	0.596871	0.596409	-0.00278688	9	0.0500902	11	0	1.0987	-1.66212e-06	214006
2	1	0	1	0	0	1105.31	0.582388	0.581972	-0.00586315	9	0.0500771	11	0	3.9953	-3.41219e-06	99259.3
2	0	0	0	0	0	1108.2	0.567906	0.567402	-0.00791322	9	0.0500567	11	0	6.8918	-4.48997e-06	71703.1
2	0	0	1	0	0	1111.1	0.553423	0.552952	-0.00903513	9	0.050032	11	0	9.7884	-4.99599e-06	61200.2
2	0	0	0	0	0	1114	0.53894	0.538504	-0.0094483	9	0.0500047	11	0	12.685	-5.08794e-06	56994.7
2	0	0	1	0	0	1116.89	0.524458	0.523969	-0.0099235	9	0.0499757	11	0	15.5815	-5.19961e-06	52800.8
2	0	0	1	0	0	1119.79	0.509974	0.50948	-0.0105589	9	0.0499452	11	0	18.4781	-5.37954e-06	48251.4
2	0	0	1	0	0	1122.69	0.495491	0.495009	-0.0115102	9	0.0499135	11	0	21.3747	-5.69765e-06	43006.1
2	0	0	1	0	0	1125.58	0.481009	0.480543	-0.0115078	9	0.0498803	11	0	24.2712	-5.53e-06	41757.9
2	1	0	0	0	0	1128.48	0.466526	0.466091	-0.0118766	9	0.049846	11	0	27.1678	-5.53559e-06	39244.4
2	0	0	1	0	0	1131.38	0.452043	0.451578	-0.012328	9	0.0498105	11	0	30.0644	-5.56705e-06	36630.3
2	1	0	0	0	1	1134.04	0.461332	0.460877	0.0129897	10	0.0498332	11	0	2.1974	5.98663e-06	35480.3
2	1	0	1	0	1	1136.94	0.475815	0.475349	0.0132039	10	0.0498718	11	0	5.094	6.27643e-06	36000.7
2	1	0	1	0	1	1139.84	0.490297	0.489805	0.0134396	10	0.0499109	11	0	7.9905	6.58278e-06	36445
2	1	0	1	0	1	1142.73	0.504781	0.504305	0.0134343	10	0.0499502	11	0	10.8871	6.775e-06	37538.6
2	1	0	1	0	1	1145.63	0.519264	0.518802	0.0131615	10	0.0499891	11	0	13.7837	6.82818e-06	39418.3
2	1	0	0	0	1	1148.53	0.533746	0.533236	0.0132577	10	0.0500279	11	0	16.6802	7.06949e-06	40220.9
2	1	0	1	0	1	1151.42	0.548229	0.547818	0.0136186	10	0.0500672	11	0	19.5768	7.46055e-06	40225.6
2	1	0	0	0	1	1154.32	0.562712	0.56225	0.0143799	10	0.0501078	11	0	22.4734	8.08512e-06	39099.6
2	1	0	1	0	1	1157.22	0.577194	0.57671	0.0154936	10	0.0501508	11	0	25.3699	8.93534e-06	37222.3
2	1	0	1	0	1	1160.11	0.591677	0.591263	0.0178956	10	0.0501988	11	0	28.2665	1.0581e-05	33039.5
2	1	0	1	0	1	1163.01	0.606161	0.60572	0.0221136	10	0.0502562	11	0	31.1631	1.33947e-05	27391.3
2	1	0	1	0	1	1165.9	0.620643	0.620173	0.0300116	10	0.0503311	11	0	34.0596	1.86124e-05	20664.4
2	1	0	0	0	1	1168.8	0.635126	0.63467	0.0456682	10	0.0504394	11	0	36.9562	2.89842e-05	13897.4
2	1	0	1	0	1	1171.7	0.649609	0.649165	0.0758545	10	0.0506114	11	0	39.8528	4.92421e-05	8558.04
2	1	0	1	0	1	1174.59	0.664091	0.663631	0.131351	10	0.0509028	11	0	42.7493	8.71689e-05	5052.34
2	1	0	1	0	1	1177.49	0.678574	0.678093	0.230933	10	0.0514138	11	0	45.6459	0.000156594	2936.31
2	1	0	1	0	1	1180.39	0.693058	0.692607	0.396748	10	0.0523046	11	0	48.5425	0.00027479	1745.71
2	1	0	1	0	1	1183.03	0.693756	0.693305	0.381297	10	0.0534702	11	0	51.1797	0.000264355	1818.28
2	1	0	0	0	1	1185.92	0.679274	0.678831	0.207644	10	0.0542979	11	0	54.0762	0.000140955	3269.21
2	1	0	1	0	1	1188.82	0.664791	0.664339	0.108793	10	0.0547424	11	0	56.9728	7.22754e-05	6106.45
2	1	0	0	0	1	1191.71	0.650308	0.649853	0.0542503	10	0.0549699	11	0	59.8694	3.52548e-05	11978.8
2	1	0	1	0	1	1194.61	0.635826	0.635392	0.0250302	10	0.0550791	11	0	62.7659	1.5904e-05	25385.1
2	1	0	1	0	1	1197.51	0.621342	0.620894	0.00962021	10	0.0551253	11	0	65.6625	5.97313e-06	64540.7
2	1	0	1	0	1	1200.4	0.606859	0.606393	0.000957107	10	0.0551379	11	0	68.5591	5.80382e-07	633568
2	0	0	1	0	1	1203.3	0.592377	0.591942	-0.0040265	10	0.0551324	11	0	2.2972	-2.38345e-06	147012
2	0	0	0	0	1	1206.2	0.577894	0.577467	-0.00702049	10	0.0551163	11	0	5.1938	-4.0541e-06	82254.5
2	0	0	1	0	1	1209.09	0.563411	0.562905	-0.00864933	10	0.0550943	11	0	8.0904	-4.86875e-06	65080.7
2	0	0	1	0	1	1211.99	0.548929	0.548447	-0.00956509	10	0.0550691	11	0	10.9869	-5.24595e-06	57338.4
2	0	0	1	0	1	1214.89	0.534445	0.534002	-0.0104296	10	0.0550413	11	0	13.8835	-5.56944e-06	51200.6
2	0	0	1	0	1	1217.78	0.519962	0.519462	-0.0106593	10	0.0550117	11	0	16.7801	-5.53711e-06	48733.1
2	0	0	0	0	1	1220.68	0.50548	0.505005	-0.0111385	10	0.0549811	11	0	19.6766	-5.62497e-06	45338.8
2	0	0	1	0	1	1223.58	0.490997	0.49057	-0.0112192	10	0.0549492	11	0	22.5732	-5.50378e-06	43726.1
2	0	0	0	0	1	1226.47	0.476514	0.476031	-0.0115053	10	0.0549158	11	0	25.4698	-5.47689e-06	41374.8
2	0	0	1	0	1	1229.37	0.462032	0.461572	-0.0121493	10	0.0548808	11	0	28.3663	-5.6078e-06	37991.5
2	1	0	0	0	0	1232.04	0.451344	0.450903	0.0118607	11	0.0548538	11	0	0.1998	5.348e-06	38016.6
2	1	0	1	0	0	1234.93	0.465826	0.465355	0.0131928	11	0.0548912	11	0	3.0963	6.13934e-06	35273.4
2	1	0	1	0	0	1237.83	0.480309	0.479877	0.0130328	11	0.0549302	11	0	5.9929	6.25414e-06	36820.7
2	1	0	1	0	0	1240.73	0.494793	0.49431	0.0131877	11	0.0549694	11	0	8.8895	6.51881e-06	37482.7
2	1	0	1	0	0	1243.62	0.509275	0.508798	0.0132927	11	0.0550085	11	0	11.786	6.76329e-06	38276.5
2	1	0	0	0	0	1246.52	0.523758	0.523273	0.0133073	11	0.0550473	11	0	14.6826	6.96336e-06	39322.2
2	1	0	1	0	0	1249.42	0.538241	0.537771	0.0136335	11	0.0550861	11	0	17.5792	7.33171e-06	39444.8
2	1	0	1	0	0	1252.31	0.552723	0.552266	0.0139266	11	0.0551257	11	0	20.4757	7.6912e-06	39655.4
2	1	0	1	0	0	1255.21	0.567206	0.566718	0.0146117	11	0.0551666	11	0	23.3723	8.28073e-06	38785.2
2	1	0	1	0	0	1258.11	0.58169	0.581225	0.0160147	11	0.0552104	11	0	26.2689	9.30814e-06	36293.3
2	1	0	0	0	0	1261	0.596172	0.595701	0.0183603	11	0.0552604	11	0	29.1654	1.09373e-05	32445.1
2	1	0	1	0	0	1263.9	0.610655	0.610165	0.0237427	11	0.0553218	11	0	32.062	1.4487e-05	25699
2	1	0	0	0	0	1266.79	0.625138	0.624699	0.033771	11	0.0554043	11	0	34.9586	2.10967e-05	18498.1
2	1	0	1	0	0	1269.69	0.63962	0.639157	0.0528042	11	0.0555269	11	0	37.8551	3.37502e-05	12104.3
2	1	0	1	0	0	1272.59	0.654103	0.653689	0.0882013	11	0.0557252	11	0	40.7517	5.76562e-05	7411.33
2	1	0	1	0	0	1275.48	0.668587	0.668109	0.153927	11	0.0560664	11	0	43.6483	0.00010284	4340.44
2	1	0	1	0	0	1278.38	0.68307	0.682588	0.269951	11	0.0566666	11	0	46.5449	0.000184266	2528.56
2	1	0	0	0	0	1281.28	0.697552	0.697132	0.458693	11	0.0577041	11	0	49.4414	0.00031977	1519.82
2	1	0	0	0	0	1283.91	0.689262	0.688811	0.313676	11	0.0587838	11	0	52.0786	0.000216064	2195.93
2	1	0	1	0	0	1286.81	0.674779	0.6743	0.168515	11	0.0594633	11	0	54.9752	0.00011363	4001.42
2	1	0	1	0	0	1289.71	0.660297	0.659803	0.0872107	11	0.0598209	11	0	57.8717	5.75419e-05	7565.62
2	1	0	1	0	0	1292.6	0.645813	0.645358	0.0424779	11	0.0600012	11	0	60.7683	2.74135e-05	15192.8
2	1	0	1	0	0	1295.5	0.63133	0.630942	0.0185548	11	0.0600846	11	0	63.6649	1.1707e-05	34004.3
2	1	0	0	0	0	1298.4	0.616848	0.616413	0.00579334	11	0.0601166	11	0	66.5614	3.57109e-06	106400
2	1	0	1	0	0	1301.29	0.602365	0.601871	-0.00138444	11	0.0601216	11	0	0.2996	-8.33251e-07	434741
2	0	0	0	0	0	1304.19	0.587882	0.587412	-0.00541365	11	0.0601118	11	0	3.1962	-3.18004e-06	108506
2	0	0	1	0	0	1307.09	0.5734	0.57289	-0.00719642	11	0.0600933	11	0	6.0927	-4.12276e-06	79607.6
2	0	0	1	0	0	1309.98	0.558916	0.558435	-0.00810141	11	0.0600697	11	0	8.9893	-4.52411e-06	68930.5
2	0	0	1	0	0	1312.88	0.544433	0.543967	-0.00947491	11	0.0600431	11	0	11.8859	-5.15404e-06	57411.3
2	0	0	1	0	0	1315.78	0.52995	0.529502	-0.0104987	11	0.0600146	11	0	14.7825	-5.55908e-06	50435.1
2	0	0	0	0	0	1318.67	0.515468	0.515007	-0.0105261	11	0.0599845	11	0	17.679	-5.42101e-06	48926.8
2	1	0	1	0	0	1321.57	0.500985	0.500503	-0.0105884	11	0.0599531	11	0	20.5756	-5.29953e-06	47269
2	0	0	1	0	0	1324.47	0.486503	0.486053	-0.0115037	11	0.0599206	11	0	23.4721	-5.5914e-06	42252
2	0	0	1	0	0	1327.36	0.472019	0.471548	-0.0122305	11	0.0598867	11	0	26.3687	-5.76725e-06	38555.2
2	0	0	1	0	0	1330.26	0.457536	0.457052	-0.0121495	11	0.0598517	11	0	29.2653	-5.55295e-06	37619
2	1	0	1	0	1	1332.93	0.455838	0.455361	0.0125509	12	0.0598465	11	0	1.0987	5.71521e-06	36281
2	1	0	1	0	1	1335.82	0.470322	0.469882	0.013528	12	0.0598845	11	0	3.9953	6.35656e-06	34734.1
2	1	0	0	0	1	1338.72	0.484804	0.484337	0.0134412	12	0.0599231	11	0	6.8918	6.51009e-06	36033.6
2	1	0	1	0	1	1341.62	0.499287	0.498804	0.0129449	12	0.059962	11	0	9.7884	6.45697e-06	38532.8
2	1	0	0	0	1	1344.51	0.51377	0.513311	0.0129044	12	0.0600009	11	0	12.685	6.624e-06	39777.9
2	1	0	1	0	1	1347.41	0.528252	0.527785	0.0132687	12	0.0600396	11	0	15.5815	7.00301e-06	39776.7
2	1	0	1	0	1	1350.31	0.542735	0.542259	0.0139604	12	0.0600783	11	0	18.4781	7.57015e-06	38842.7
2	1	0	1	0	1	1353.2	0.557219	0.556776	0.0138386	12	0.060118	11	0	21.3747	7.70498e-06	40233.7
2	1	0	1	0	1	1356.1	0.571702	0.571227	0.0142498	12	0.0601595	11	0	24.2713	8.13986e-06	40086.7
2	1	0	0	0	1	1359	0.586184	0.585668	0.0164248	12	0.0602048	11	0	27.1678	9.61949e-06	35657.5
2	1	0	1	0	1	1361.89	0.600667	0.600209	0.0201462	12	0.0602571	11	0	30.0644	1.20919e-05	29792.6
2	1	0	1	0	1	1364.79	0.615149	0.614688	0.0262231	12	0.0603229	11	0	32.9609	1.6119e-05	23440.7
2	1	0	1	0	1	1367.68	0.629632	0.629181	0.037835	12	0.0604142	11	0	35.8575	2.38051e-05	16629.6
2	1	0	1	0	1	1370.58	0.644116	0.643678	0.0603629	12	0.060554	11	0	38.7541	3.88543e-05	10663.5
2	1	0	0	0	1	1373.48	0.658598	0.658131	0.10318	12	0.0607857	11	0	41.6506	6.7906e-05	6378.48
2	1	0	1	0	1	1376.37	0.673081	0.672675	0.182208	12	0.0611884	11	0	44.5472	0.000122567	3691.8
2	1	0	0	0	1	1379.27	0.687564	0.6871	0.317955	12	0.0618966	11	0	47.4438	0.000218467	2161
2	1	0	0	0	1	1381.91	0.69925	0.698798	0.469941	12	0.0629693	11	0	50.081	0.000328394	1486.99
2	1	0	1	0	1	1384.8	0.684768	0.68427	0.25848	12	0.0639946	11	0	52.9775	0.00017687	2647.29
2	1	0	1	0	1	1387.7	0.670284	0.669811	0.136979	12	0.0645507	11	0	55.8741	9.17498e-05	4889.89
2	1	0	1	0	1	1390.6	0.655801	0.655437	0.0694855	12	0.0648391	11	0	58.7707	4.55434e-05	9432.72
2	1	0	1	0	1	1393.49	0.641318	0.640878	0.0324809	12	0.064981	11	0	61.6673	2.08163e-05	19730.9
2	1	0	0	0	1	1396.39	0.626836	0.626399	0.0136963	12	0.0650444	11	0	64.5638	8.57934e-06	45735
2	0	0	1	0	1	1399.29	0.612353	0.611896	0.00275831	12	0.065066	11	0	67.4604	1.6878e-06	221837
2	1	0	0	0	1	1402.18	0.59787	0.597382	-0.00245176	12	0.0650655	11	0	1.1986	-1.46464e-06	243654
2	0	0	1	0	1	1405.08	0.583388	0.582973	-0.00617478	12	0.0650522	11	0	4.0951	-3.59973e-06	94412
2	1	0	1	0	1	1407.98	0.568904	0.568459	-0.0076201	12	0.0650319	11	0	6.9917	-4.33171e-06	74600
2	0	0	1	0	1	1410.87	0.554421	0.553981	-0.00920114	12	0.0650074	11	0	9.8883	-5.09726e-06	60207.8
2	0	0	1	0	1	1413.77	0.539939	0.539506	-0.00931541	12	0.0649803	11	0	12.7848	-5.02572e-06	57915.4
2	0	0	0	0	1	1416.67	0.525456	0.525007	-0.0103964	12	0.0649513	11	0	15.6814	-5.45816e-06	50499.1
2	0	0	1	0	1	1419.56	0.510974	0.510539	-0.0107346	12	0.0649207	11	0	18.5779	-5.48042e-06	47560.1
2	0	0	1	0	1	1422.46	0.49649	0.496011	-0.0109185	12	0.0648891	11	0	21.4745	-5.41568e-06	45428.6
2	0	0	1	0	1	1425.36	0.482007	0.481539	-0.0113956	12	0.0648564	11	0	24.3711	-5.48741e-06	42256.6
2	0	0	1	0	1	1428.25	0.467524	0.467066	-0.0118621	12	0.0648223	11	0	27.2677	-5.54038e-06	39374.8
2	1	0	0	0	1	1431.15	0.453042	0.452623	-0.0122387	12	0.0647868	11	0	30.1642	-5.5395e-06	36983
2	0	0	1	0	0	1433.82	0.460334	0.459863	0.0129247	13	0.0648044	11	0	1.9977	5.94358e-06	35580.2
2	1	0	0	0	0	1436.71	0.474816	0.474397	0.0130356	13	0.0648429	11	0	4.8942	6.18407e-06	36392.3
2	1	0	1	0	0	1439.61	0.489299	0.48882	0.0132262	13	0.0648816	11	0	7.7908	6.46524e-06	36958.4
2	1	0	1	0	0	1442.51	0.503781	0.503304	0.0130025	13	0.0649202	11	0	10.6873	6.54422e-06	38708.3
2	1	0	1	0	0	1445.4	0.518265	0.517839	0.0131268	13	0.0649588	11	0	13.5839	6.79759e-06	39448.9
2	1	0	1	0	0	1448.3	0.532748	0.532266	0.0133693	13	0.0649974	11	0	16.4805	7.11601e-06	39812.6
2	1	0	0	0	0	1451.2	0.54723	0.546783	0.0134652	13	0.0650364	11	0	19.377	7.36256e-06	40607
2	1	0	1	0	0	1454.09	0.561713	0.561274	0.0139076	13	0.0650764	11	0	22.2736	7.80598e-06	40357.3
2	1	0	0	0	0	1456.99	0.576196	0.575699	0.0148441	13	0.0651183	11	0	25.1702	8.54574e-06	38783
2	1	0	1	0	0	1459.89	0.590678	0.590185	0.017092	13	0.0651646	11	0	28.0667	1.00875e-05	34529.8
2	1	0	1	0	0	1462.78	0.605161	0.604718	0.0214987	13	0.06522	11	0	30.9633	1.30006e-05	28128.2
2	1	0	1	0	0	1465.68	0.619645	0.619229	0.0289641	13	0.0652915	11	0	33.8599	1.79354e-05	21379.2
2	1	0	1	0	0	1468.57	0.634127	0.633656	0.0428232	13	0.0653936	11	0	36.7564	2.71351e-05	14797
2	1	0	0	0	0	1471.47	0.64861	0.64814	0.0700005	13	0.0655538	11	0	39.653	4.53702e-05	9259.08
2	1	0	1	0	0	1474.37	0.663093	0.662654	0.121769	13	0.065825	11	0	42.5496	8.06905e-05	5441.9
2	1	0	1	0	0	1477.26	0.677575	0.677143	0.215362	13	0.066301	11	0	45.4461	0.000145831	3144.21
2	1	0	1	0	0	1480.16	0.692058	0.691626	0.373054	13	0.0671361	11	0	48.3427	0.000258014	1853.96
2	1	0	1	0	0	1482.8	0.694755	0.694307	0.388428	13	0.0682751	11	0	50.9799	0.000269688	1787.48
2	1	0	1	0	0	1485.69	0.680272	0.67985	0.211436	13	0.0691196	11	0	53.8765	0.000143745	3215.4
2	1	0	1	0	0	1488.59	0.665789	0.66533	0.111038	13	0.069572	11	0	56.7731	7.3877e-05	5991.91
2	1	0	1	0	0	1491.49	0.651307	0.65086	0.0547945	13	0.0698039	11	0	59.6696	3.56635e-05	11878.2
2	1	0	0	0	0	1494.38	0.636824	0.636386	0.0251979	13	0.0699154	11	0	62.5662	1.60356e-05	25255.5
2	1	0	1	0	0	1497.28	0.622342	0.621881	0.0095234	13	0.0699623	11	0	65.4627	5.92243e-06	65300.3
2	1	0	1	0	0	1500.18	0.607859	0.607407	0.00058618	13	0.0699749	11	0	0.000000000000000E+000	3.5605e-07	1.03621e+06
2	0	0	1	0	0	1503.07	0.593375	0.592901	-0.00416835	13	0.0699693	11	0	1.9976	-2.47142e-06	142239
2	0	0	1	0	0	1505.97	0.578892	0.578411	-0.00682527	13	0.0699534	11	0	4.8942	-3.94781e-06	84745.4
2	0	0	0	0	0	1508.87	0.56441	0.563944	-0.00783638	13	0.0699313	11	0	7.7907	-4.41928e-06	71964.8
2	1	0	1	0	0	1511.76	0.549927	0.549471	-0.00879922	13	0.0699057	11	0	10.6873	-4.83491e-06	62445.3
2	1	0	1	0	0	1514.66	0.535445	0.53501	-0.00953078	13	0.0698779	11	0	13.5838	-5.09906e-06	56134.9
2	0	0	1	0	0	1517.56	0.520961	0.520508	-0.0105954	13	0.0698484	11	0	16.4804	-5.51498e-06	49126
2	0	0	1	0	0	1520.45	0.506478	0.506022	-0.0110421	13	0.0698178	11	0	19.377	-5.58755e-06	45826.6
2	0	0	1	0	0	1523.35	0.491995	0.491555	-0.0114015	13	0.0697861	11	0	22.2736	-5.60446e-06	43113.2
2	0	0	1	0	0	1526.25	0.477513	0.477061	-0.0118493	13	0.069753	11	0	25.1701	-5.65282e-06	40260.8
2	0	0	0	0	0	1529.14	0.46303	0.462532	-0.0119292	13	0.0697184	11	0	28.0667	-5.51762e-06	38773.2
2	0	0	1	0	1	1531.81	0.450345	0.44981	0.00768157	14	0.0696865	11	0	0.000000000000000E+000	3.45524e-06	58557.1
2	1	0	0	0	1	1534.71	0.464828	0.464406	0.0125745	14	0.0697234	11	0	2.8966	5.83967e-06	36932.3
2	1	0	1	0	1	1537.6	0.47931	0.478862	0.01268	14	0.0697619	11	0	5.7931	6.07198e-06	37765.2
2	0	0	1	0	1	1540.5	0.493793	0.493321	0.0129139	14	0.0698006	11	0	8.6897	6.37071e-06	38200.7
2	1	0	1	0	1	1543.4	0.508277	0.507843	0.0129964	14	0.0698395	11	0	11.5863	6.60016e-06	39075.5
2	1	0	1	0	1	1546.29	0.522759	0.522286	0.0128485	14	0.069878	11	0	14.4828	6.7106e-06	40649.5
2	1	0	0	0	1	1549.19	0.537242	0.536798	0.0129629	14	0.0699166	11	0	17.3794	6.95845e-06	41410.4
2	0	0	1	0	1	1552.09	0.551725	0.551264	0.013148	14	0.0699559	11	0	20.276	7.24802e-06	41927.6
2	1	0	1	0	1	1554.98	0.566207	0.565751	0.0136704	14	0.0699964	11	0	23.1725	7.73406e-06	41385
2	1	0	1	0	1	1557.88	0.58069	0.580198	0.015155	14	0.0700394	11	0	26.0691	8.79288e-06	38284.3
2	1	0	1	0	1	1560.78	0.595174	0.594733	0.0182517	14	0.0700881	11	0	28.9657	1.08549e-05	32585.1
2	1	0	0	0	1	1563.67	0.609656	0.609217	0.0233529	14	0.0701472	11	0	31.8622	1.4227e-05	26087.4
2	1	0	1	0	1	1566.57	0.624139	0.623733	0.0323908	14	0.0702257	11	0	34.7588	2.02032e-05	19256.5
2	1	0	0	0	1	1569.46	0.638622	0.638156	0.0497925	14	0.0703411	11	0	37.6554	3.17754e-05	12816.3
2	1	0	1	0	1	1572.36	0.653104	0.652661	0.0826662	14	0.0705269	11	0	40.5519	5.3953e-05	7895.14
2	1	0	1	0	1	1575.26	0.667587	0.667166	0.144075	14	0.0708457	11	0	43.4485	9.61221e-05	4630.68
2	1	0	1	0	1	1578.15	0.682071	0.681607	0.253838	14	0.0714075	11	0	46.3451	0.000173018	2685.2
2	1	0	1	0	1	1581.05	0.696554	0.696107	0.433923	14	0.0723848	11	0	49.2417	0.000302057	1604.22
2	1	0	1	0	1	1583.69	0.69026	0.689788	0.319122	14	0.0734664	11	0	51.8789	0.000220126	2161.52
2	1	0	0	0	1	1586.58	0.675778	0.675328	0.171048	14	0.0741545	11	0	54.7754	0.000115514	3948.17
2	1	0	1	0	1	1589.48	0.661295	0.660851	0.088291	14	0.0745168	11	0	57.672	5.83472e-05	7484.92
2	1	0	1	0	1	1592.38	0.646813	0.646366	0.0430453	14	0.0746982	11	0	60.5685	2.7823e-05	15015.9
2	1	0	1	0	1	1595.27	0.632329	0.631892	0.0186267	14	0.0747826	11	0	63.4651	1.17701e-05	33924
2	1	0	1	0	1	1598.17	0.617846	0.617382	0.00526091	14	0.0748156	11	0	66.3617	3.24799e-06	117353
2	0	0	1	0	1	1601.07	0.603363	0.602908	-0.00138219	14	0.0748212	11	0	0.0999	-8.33335e-07	436196
2	0	0	1	0	1	1603.96	0.588881	0.588454	-0.00503624	14	0.0748118	11	0	2.9964	-2.96359e-06	116844
2	1	0	0	0	1	1606.86	0.574398	0.5739	-0.00717001	14	0.0747936	11	0	5.893	-4.11487e-06	80041.7
2	0	0	1	0	1	1609.76	0.559916	0.559407	-0.00831146	14	0.0747702	11	0	8.7895	-4.64949e-06	67305.5
2	0	0	1	0	1	1612.65	0.545432	0.544973	-0.00917946	14	0.0747438	11	0	11.6861	-5.00256e-06	59368.7
2	0	0	1	0	1	1615.55	0.530949	0.53052	-0.0102516	14	0.0747158	11	0	14.5827	-5.43868e-06	51750
2	1	0	1	0	1	1618.45	0.516466	0.515974	-0.00999073	14	0.0746859	11	0	17.4793	-5.15496e-06	51645.3
2	0	0	0	0	1	1621.34	0.501984	0.501544	-0.0112482	14	0.0746548	11	0	20.3758	-5.64148e-06	44588.7
2	0	0	1	0	1	1624.24	0.487501	0.48703	-0.0111304	14	0.0746229	11	0	23.2724	-5.42085e-06	43756.6
2	0	0	1	0	1	1627.14	0.473019	0.472565	-0.0119268	14	0.0745892	11	0	26.1689	-5.63618e-06	39622.1
2	0	0	1	0	1	1630.03	0.458535	0.458113	-0.0118244	14	0.0745545	11	0	29.0655	-5.4169e-06	38743.1
2	1	0	1	0	0	1632.7	0.454839	0.454384	0.0129258	15	0.0745446	11	0	0.8989	5.87328e-06	35153.2
2	1	0	1	0	0	1635.6	0.469322	0.468891	0.0132886	15	0.0745824	11	0	3.7955	6.23092e-06	35285.1
2	1	0	1	0	0	1638.49	0.483806	0.48331	0.0131306	15	0.0746214	11	0	6.6921	6.34615e-06	36807.9
2	1	0	0	0	0	1641.39	0.498288	0.497844	0.0135518	15	0.0746601	11	0	9.5886	6.74669e-06	36736.4
2	1	0	1	0	0	1644.29	0.512771	0.512346	0.0127905	15	0.074699	11	0	12.4852	6.55314e-06	40056.9
2	1	0	0	0	0	1647.18	0.527254	0.526796	0.0134467	15	0.0747376	11	0	15.3818	7.08366e-06	39176.6
2	1	0	1	0	0	1650.08	0.541736	0.541282	0.0131089	15	0.0747763	11	0	18.2783	7.09559e-06	41291.3
2	1	0	1	0	0	1652.98	0.556219	0.555802	0.0140844	15	0.0748161	11	0	21.1749	7.82815e-06	39462.2
2	1	0	1	0	0	1655.87	0.570703	0.570247	0.0143709	15	0.0748569	11	0	24.0715	8.19498e-06	39680.5
2	1	0	1	0	0	1658.77	0.585186	0.58473	0.0160769	15	0.0749014	11	0	26.9681	9.40065e-06	36370.9
2	1	0	0	0	0	1661.66	0.599668	0.599175	0.0194468	15	0.0749522	11	0	29.8646	1.16521e-05	30811
2	1	0	1	0	0	1664.56	0.614151	0.613652	0.0249598	15	0.0750158	11	0	32.7612	1.53166e-05	24585.6
2	1	0	1	0	0	1667.46	0.628633	0.62817	0.0355534	15	0.0751028	11	0	35.6577	2.23336e-05	17668.4
2	1	0	1	0	0	1670.35	0.643116	0.642668	0.0570141	15	0.0752346	11	0	38.5543	3.66412e-05	11272.1
2	1	0	1	0	0	1673.25	0.657599	0.657165	0.0969281	15	0.0754513	11	0	41.4509	6.36977e-05	6779.92
2	1	0	1	0	0	1676.15	0.672083	0.671677	0.170274	15	0.0758282	11	0	44.3475	0.000114369	3944.69
2	1	0	1	0	0	1679.04	0.686565	0.686115	0.298956	15	0.0764919	11	0	47.244	0.000205119	2295.03
2	1	0	0	0	0	1681.73	0.700024	0.699441	0.494468	15	0.0775323	11	0	49.9264	0.000345851	1414.53
2	1	0	0	0	0	1684.58	0.685766	0.685314	0.263981	15	0.0785584	11	0	52.7778	0.00018091	2596.07
2	1	0	1	0	0	1687.47	0.671284	0.670814	0.140526	15	0.0791277	11	0	55.6743	9.42668e-05	4773.59
2	1	0	1	0	0	1690.37	0.6568	0.656352	0.0707898	15	0.0794234	11	0	58.5709	4.6463e-05	9271.85
2	1	0	1	0	0	1693.27	0.642317	0.641855	0.0338169	15	0.0795682	11	0	61.4675	2.17056e-05	18980.3
2	1	0	1	0	0	1696.16	0.627834	0.627369	0.0140897	15	0.0796333	11	0	64.3641	8.83942e-06	44526.9
2	1	0	0	0	0	1699.06	0.613352	0.61291	0.00336921	15	0.0796555	11	0	67.2606	2.06502e-06	181915
2	1	0	1	0	0	1701.96	0.598869	0.598414	-0.00247693	15	0.0796551	11	0	0.8989	-1.48223e-06	241595
2	0	0	0	0	0	1704.85	0.584386	0.583979	-0.00576052	15	0.0796423	11	0	3.7955	-3.36402e-06	101376
2	0	0	1	0	0	1707.75	0.569903	0.569418	-0.0080746	15	0.0796223	11	0	6.692	-4.59782e-06	70519.6
2	0	0	1	0	0	1710.65	0.55542	0.555011	-0.00905469	15	0.0795981	11	0	9.5886	-5.02545e-06	61295.4
2	0	0	1	0	0	1713.54	0.540937	0.540516	-0.00977902	15	0.0795714	11	0	12.4852	-5.28572e-06	55273
2	0	0	1	0	0	1716.44	0.526455	0.525989	-0.0105522	15	0.079543	11	0	15.3817	-5.55034e-06	49846.4
2	0	0	0	0	0	1719.34	0.511972	0.511542	-0.0108633	15	0.079513	11	0	18.2783	-5.55704e-06	47088.9
2	0	0	1	0	0	1722.23	0.49749	0.497048	-0.0108839	15	0.079482	11	0	21.1748	-5.4098e-06	45668.3
2	0	0	1	0	0	1725.13	0.483006	0.482535	-0.0110307	15	0.0794499	11	0	24.0714	-5.32268e-06	43744.9
2	0	0	1	0	0	1728.03	0.468523	0.468045	-0.0113362	15	0.0794162	11	0	26.968	-5.30584e-06	41287.8
2	0	0	1	0	0	1730.92	0.45404	0.453569	-0.0120496	15	0.079381	11	0	29.8646	-5.4653e-06	37641.9
2	0	0	0	0	0	1731.73	0.450021	0.44963	-0.0106906	15	0.0793709	11	0	30.6677	-4.80682e-06	42058.4