File: ACS_Catal_2026/Figures_Na_K/main_figures/data/EC/20251112_2-148_alpha_reproducibility/20251112_2-148_004_Na_first_2_Na2_01_CVA_C02.mpt
EC-Lab ASCII FILE
Nb header lines : 66

Cyclic Voltammetry Advanced

Run on channel : 2 (SN 69290)
User :
CE vs. WE compliance from -10 V to 10 V
Electrode connection : standard
Potential control : Ewe
Ewe ctrl range : min = -1.00 V, max = 1.00 V
Safety Limits :
	Do not start on E overload
Acquisition started on : 11/12/2025 17:10:29.402
Loaded Setting File :  C:\Users\User\Documents\EC-Lab\Data\Yatsuzuka\20251112_2-148_alpha_reproducibility\20251112_2-148_002_alpha_reproducibility_2_K1.mps
Saved on :
	File : 20251112_2-148_004_Na_first_2_Na2_01_CVA_C02.mpr
	Directory : C:\Users\User\Documents\EC-Lab\Data\Yatsuzuka\20251112_2-148_alpha_reproducibility\
	Host : 192.109.209.127
Device : SP-150e (SN .003883)
Address : 192.109.209.128
EC-Lab for windows v11.52 (software)
Internet server v11.52 (firmware)
Command interpretor v11.50 (firmware)
Electrode material :
Initial state :
Electrolyte :
Comments :
Electrode surface area : 0.001 cm2
Characteristic mass : 0.001 g
Equivalent Weight : 0.000 g/eq.
Density : 0.000 g/cm3
Volume (V) : 0.001 cm3
Cycle Definition : Charge/Discharge alternance
Ei (V)              0.350
vs.                 Ref
ti (h:m:s)          0:00:10.0000
dti (s)             0.0000
dE/dt               10.000
dE/dt unit          mV/s
E1 (V)              0.450
vs.                 Ref
t1 (h:m:s)          0:00:0.0000
dt1 (s)             0.1000
Step percent        50
N                   10
E range min (V)     -1.000
E range max (V)     1.000
I Range             Auto
I Range min         Unset
I Range max         Unset
I Range init        Unset
Bandwidth           5
E2 (V)              0.350
vs.                 Ref
t2 (h:m:s)          0:00:0.0000
dt2 (s)             0.1000
nc cycles           9
nr                  1
Reverse Scan        0
Ef (V)              0.000
vs.                 Eoc
tf (h:m:s)          0:00:0.0000
dtf (s)             0.1000

mode	ox/red	error	control changes	Ns changes	counter inc.	time/s	control/V	Ewe/V	<I>/mA	cycle number	(Q-Qo)/C	I Range	Ns	step time/s	P/W
2	1	0	0	0	0	0.000000000000000E+000	0.349989	0.349438	0.0156362	1	0.0000000E+000	13	0	0.000000000000000E+000	5.46387e-06
2	1	0	1	0	0	0.3272	0.35326	0.352836	0.0421115	1	9.62684e-06	13	0	0.2997	1.48585e-05
2	1	0	1	0	0	0.6768	0.356756	0.356309	0.0369852	1	2.09305e-05	13	0	0.6493	1.31782e-05
2	1	0	1	0	0	1.0264	0.360253	0.359852	0.0249079	1	3.22966e-05	13	0	0.9989	8.96318e-06
2	1	0	1	0	0	1.3759	0.363748	0.363338	0.0227292	1	4.36233e-05	13	0	1.3484	8.25838e-06
2	1	0	1	0	0	1.7255	0.367244	0.366805	0.0283485	1	5.4836e-05	13	0	1.698	1.03984e-05
2	1	0	1	0	0	2.0751	0.370739	0.370276	0.0373241	1	6.59412e-05	13	0	2.0476	1.38202e-05
2	1	0	1	0	0	2.4247	0.374235	0.373864	0.0408222	1	7.68554e-05	13	0	2.3972	1.52619e-05
2	1	0	1	0	0	2.7743	0.377731	0.377305	0.0288308	1	8.76851e-05	13	0	2.7468	1.0878e-05
2	1	0	1	0	0	3.1239	0.381227	0.380815	0.0210443	1	9.84304e-05	13	0	3.0964	8.014e-06
2	1	0	1	0	0	3.4735	0.384723	0.384269	0.0282974	1	0.000109026	13	0	3.446	1.08738e-05
2	1	0	1	0	0	3.8231	0.388219	0.387785	0.0389002	1	0.000119455	13	0	3.7956	1.50849e-05
2	1	0	1	0	0	4.1727	0.391715	0.391367	0.0335927	1	0.000129762	13	0	4.1452	1.31471e-05
2	1	0	1	0	0	4.5223	0.39521	0.394795	0.0210609	1	0.000140001	13	0	4.4948	8.31473e-06
2	1	0	1	0	0	4.8718	0.398706	0.398253	0.0219718	1	0.000150141	13	0	4.8443	8.75031e-06
2	1	0	1	0	0	5.2214	0.402202	0.401768	0.0344631	1	0.000160133	13	0	5.1939	1.38462e-05
2	1	0	1	0	0	5.571	0.405698	0.405307	0.0373644	1	0.000169998	13	0	5.5435	1.51441e-05
2	1	0	1	0	0	5.9206	0.409195	0.40878	0.0312159	1	0.000179681	13	0	5.8931	1.27604e-05
2	1	0	1	0	0	6.2701	0.41269	0.412278	0.0218945	1	0.000189338	13	0	6.2426	9.02662e-06
2	1	0	1	0	0	6.6197	0.416186	0.41573	0.0187405	1	0.000198938	13	0	6.5922	7.79097e-06
2	1	0	1	0	0	6.9693	0.419681	0.41921	0.03035	1	0.000208426	13	0	6.9418	1.2723e-05
2	1	0	1	0	0	7.3189	0.423177	0.42277	0.0357011	1	0.000217767	13	0	7.2914	1.50933e-05
2	1	0	1	0	0	7.6685	0.426673	0.426281	0.0243773	1	0.000227054	13	0	7.641	1.03916e-05
2	1	0	1	0	0	8.0181	0.430169	0.429717	0.0169638	1	0.0002363	13	0	7.9906	7.28961e-06
2	1	0	1	0	0	8.3677	0.433665	0.433179	0.026315	1	0.000245444	13	0	8.3402	1.13991e-05
2	1	0	1	0	0	8.7173	0.437161	0.436685	0.0352921	1	0.00025445	13	0	8.6898	1.54115e-05
2	1	0	1	0	0	9.0669	0.440657	0.440206	0.0275677	1	0.000263453	13	0	9.0394	1.21355e-05
2	1	0	1	0	0	9.4165	0.444152	0.443746	0.0163829	1	0.000272416	13	0	9.389	7.26982e-06
2	1	0	1	0	0	9.766	0.447648	0.447219	0.0201535	1	0.000281338	13	0	9.7385	9.01303e-06
2	1	0	1	0	0	10.0264	0.449747	0.449245	-0.0035014	1	0.000287151	13	0	0.000000000000000E+000	-1.57299e-06
2	0	0	1	0	0	10.4409	0.445601	0.445105	-0.0207276	1	0.000279279	13	0	0.4145	-9.22599e-06
2	0	0	1	0	0	10.7905	0.442105	0.441643	-0.0132008	1	0.000271673	13	0	0.7641	-5.83002e-06
2	0	0	1	0	0	11.1401	0.438609	0.438109	-0.0185265	1	0.000263785	13	0	1.1137	-8.11663e-06
2	0	0	1	0	0	11.4897	0.435113	0.434611	-0.0307157	1	0.000255686	13	0	1.4633	-1.33494e-05
2	0	0	1	0	0	11.8393	0.431617	0.431153	-0.0315865	1	0.000247431	13	0	1.8129	-1.36186e-05
2	0	0	1	0	0	12.1889	0.428121	0.42764	-0.0208506	1	0.000238983	13	0	2.1625	-8.91657e-06
2	0	0	1	0	0	12.5385	0.424626	0.42415	-0.0156165	1	0.000230344	13	0	2.5121	-6.62374e-06
2	0	0	1	0	0	12.8881	0.42113	0.420664	-0.0259866	1	0.000221607	13	0	2.8617	-1.09316e-05
2	0	0	1	0	0	13.2376	0.417634	0.417111	-0.0347621	1	0.000212761	13	0	3.2112	-1.44997e-05
2	0	0	1	0	0	13.5872	0.414138	0.413651	-0.0296311	1	0.000203782	13	0	3.5608	-1.22569e-05
2	0	0	1	0	0	13.9368	0.410642	0.410145	-0.0181711	1	0.0001946	13	0	3.9104	-7.4528e-06
2	0	0	1	0	0	14.2864	0.407145	0.406688	-0.0174023	1	0.000185325	13	0	4.26	-7.07731e-06
2	0	0	1	0	0	14.6359	0.40365	0.403219	-0.0268552	1	0.000175831	13	0	4.6095	-1.08285e-05
2	0	0	1	0	0	14.9855	0.400155	0.39969	-0.0379757	1	0.000166202	13	0	4.9591	-1.51785e-05
2	0	0	1	0	0	15.3351	0.396659	0.396197	-0.0307325	1	0.000156429	13	0	5.3087	-1.21761e-05
2	0	0	1	0	0	15.6847	0.393163	0.392674	-0.0245312	1	0.000146461	13	0	5.6583	-9.63277e-06
2	0	0	1	0	0	16.0343	0.389667	0.389175	-0.0195425	1	0.000136339	13	0	6.0079	-7.60547e-06
2	0	0	1	0	0	16.3839	0.386171	0.385724	-0.0257663	1	0.000126016	13	0	6.3575	-9.93871e-06
2	0	0	1	0	0	16.7335	0.382675	0.382241	-0.0349039	1	0.000115566	13	0	6.7071	-1.33417e-05
2	0	0	1	0	0	17.0831	0.379179	0.378705	-0.0398799	1	0.000104939	13	0	7.0567	-1.51027e-05
2	0	0	1	0	0	17.4327	0.375684	0.375227	-0.0399747	1	9.41324e-05	13	0	7.4063	-1.49996e-05
2	0	0	1	0	0	17.7823	0.372188	0.371705	-0.03037	1	8.3121e-05	13	0	7.7559	-1.12887e-05
2	0	0	1	0	0	18.1318	0.368693	0.368242	-0.0221781	1	7.18401e-05	13	0	8.1054	-8.16693e-06
2	0	0	1	0	0	18.4814	0.365196	0.364734	-0.0301874	1	6.03444e-05	13	0	8.455	-1.10104e-05
2	0	0	1	0	0	18.831	0.3617	0.361257	-0.0422223	1	4.86582e-05	13	0	8.8046	-1.52531e-05
2	0	0	1	0	0	19.1806	0.358203	0.357698	-0.0423801	1	3.67846e-05	13	0	9.1542	-1.51593e-05
2	0	0	1	0	0	19.5301	0.354708	0.354285	-0.0328865	1	2.4636e-05	13	0	9.5037	-1.16512e-05
2	0	0	1	0	0	19.8797	0.351213	0.350768	-0.0263586	1	1.21745e-05	13	0	9.8533	-9.24575e-06
2	1	0	1	0	1	20.161	0.351612	0.351132	0.0259139	2	1.13247e-05	12	0	0.0649	9.09921e-06
2	1	0	1	0	1	20.5405	0.355408	0.354976	0.0332547	2	2.23952e-05	13	0	0.4444	1.18046e-05
2	1	0	1	0	1	20.8901	0.358903	0.358411	0.0414923	2	3.31629e-05	13	0	0.794	1.48713e-05
2	1	0	1	0	1	21.2397	0.362399	0.362032	0.0354271	2	4.40279e-05	13	0	1.1436	1.28258e-05
2	1	0	1	0	1	21.5893	0.365895	0.365461	0.0260554	2	5.49345e-05	13	0	1.4932	9.5222e-06
2	1	0	1	0	1	21.9389	0.369391	0.368951	0.0212085	2	6.57908e-05	13	0	1.8428	7.82488e-06
2	1	0	1	0	1	22.2885	0.372887	0.372461	0.0267027	2	7.65632e-05	13	0	2.1924	9.94572e-06
2	1	0	1	0	1	22.6381	0.376383	0.375916	0.0372005	2	8.72112e-05	13	0	2.542	1.39842e-05
2	1	0	1	0	1	22.9877	0.379879	0.379482	0.0398631	2	9.77198e-05	13	0	2.8916	1.51273e-05
2	1	0	1	0	1	23.3373	0.383374	0.382984	0.0290456	2	0.000108134	13	0	3.2412	1.1124e-05
2	1	0	1	0	1	23.6868	0.386869	0.386428	0.0199623	2	0.000118496	13	0	3.5907	7.71401e-06
2	1	0	1	0	1	24.0364	0.390366	0.389979	0.0269682	2	0.000128777	13	0	3.9403	1.0517e-05
2	1	0	1	0	1	24.386	0.393862	0.393412	0.037761	2	0.000138863	13	0	4.2899	1.48556e-05
2	1	0	1	0	1	24.7356	0.397359	0.396925	0.0350921	2	0.000148875	13	0	4.6395	1.39289e-05
2	1	0	1	0	1	25.0851	0.400854	0.400444	0.0220544	2	0.00015877	13	0	4.989	8.83156e-06
2	1	0	1	0	1	25.4347	0.40435	0.403926	0.0199992	2	0.000168652	13	0	5.3386	8.0782e-06
2	1	0	1	0	1	25.7843	0.407845	0.40735	0.028307	2	0.000178331	13	0	5.6882	1.15309e-05
2	1	0	1	0	1	26.1339	0.411341	0.41089	0.0367848	2	0.000187899	13	0	6.0378	1.51145e-05
2	1	0	1	0	1	26.4835	0.414837	0.414366	0.0274952	2	0.000197393	13	0	6.3874	1.13931e-05
2	1	0	1	0	1	26.8331	0.418333	0.417876	0.0176046	2	0.000206877	13	0	6.737	7.35657e-06
2	1	0	1	0	1	27.1827	0.421829	0.421411	0.022644	2	0.000216263	13	0	7.0866	9.54242e-06
2	1	0	1	0	1	27.5323	0.425325	0.424854	0.0332098	2	0.000225529	13	0	7.4362	1.41093e-05
2	1	0	1	0	1	27.8819	0.428821	0.428383	0.0350155	2	0.000234705	13	0	7.7858	1.50001e-05
2	1	0	1	0	1	28.2315	0.432316	0.43188	0.0306726	2	0.000243836	13	0	8.1354	1.32469e-05
2	1	0	1	0	1	28.581	0.435811	0.435401	0.02235	2	0.000252854	13	0	8.4849	9.73121e-06
2	1	0	1	0	1	28.9306	0.439308	0.438859	0.0167445	2	0.000261866	13	0	8.8345	7.34845e-06
2	1	0	1	0	1	29.2802	0.442804	0.442352	0.0204623	2	0.000270817	13	0	9.1841	9.05155e-06
2	1	0	1	0	1	29.6298	0.446301	0.445818	0.0332837	2	0.000279661	13	0	9.5337	1.48385e-05
2	1	0	1	0	1	29.9768	0.449771	0.449332	0.0340803	2	0.000288363	13	0	9.8807	1.53133e-05
2	0	0	1	0	1	30.3347	0.446649	0.446184	-0.0268696	2	0.000282738	13	0	0.2947	-1.19888e-05
2	0	0	1	0	1	30.6843	0.443154	0.442625	-0.0304599	2	0.000275279	13	0	0.6443	-1.34823e-05
2	0	0	1	0	1	31.0339	0.439658	0.439147	-0.0228986	2	0.000267509	13	0	0.9939	-1.00559e-05
2	0	0	1	0	1	31.3834	0.436162	0.435696	-0.0138144	2	0.000259425	13	0	1.3434	-6.01889e-06
2	0	0	1	0	1	31.733	0.432666	0.432225	-0.0212496	2	0.000251189	13	0	1.693	-9.18461e-06
2	0	0	1	0	1	32.0826	0.429169	0.428728	-0.0324784	2	0.000242788	13	0	2.0426	-1.39244e-05
2	0	0	1	0	1	32.4321	0.425674	0.425165	-0.0289547	2	0.000234279	13	0	2.3921	-1.23105e-05
2	0	0	1	0	1	32.7817	0.422178	0.421687	-0.0158748	2	0.000225532	13	0	2.7417	-6.69419e-06
2	0	0	1	0	1	33.1313	0.418683	0.418227	-0.0249907	2	0.000216629	13	0	3.0913	-1.04518e-05
2	0	0	1	0	1	33.4809	0.415187	0.414642	-0.0355431	2	0.000207642	13	0	3.4409	-1.47377e-05
2	0	0	1	0	1	33.8305	0.411691	0.411188	-0.0251434	2	0.000198515	13	0	3.7905	-1.03386e-05
2	0	0	1	0	1	34.1801	0.408195	0.40774	-0.0176729	2	0.000189186	13	0	4.1401	-7.20596e-06
2	0	0	1	0	1	34.5297	0.404699	0.404262	-0.0282087	2	0.000179802	13	0	4.4897	-1.14037e-05
2	0	0	1	0	1	34.8793	0.401203	0.400726	-0.0372352	2	0.00017026	13	0	4.8393	-1.49211e-05
2	0	0	1	0	1	35.2289	0.397707	0.397268	-0.0262434	2	0.000160557	13	0	5.1889	-1.04257e-05
2	0	0	1	0	1	35.5785	0.394212	0.393765	-0.0189852	2	0.000150609	13	0	5.5385	-7.4757e-06
2	0	0	1	0	1	35.9281	0.390716	0.390299	-0.0307495	2	0.000140544	13	0	5.8881	-1.20015e-05
2	0	0	1	0	1	36.2776	0.38722	0.38677	-0.0395344	2	0.000130315	13	0	6.2376	-1.52907e-05
2	0	0	1	0	1	36.6272	0.383724	0.383279	-0.0284535	2	0.000119938	13	0	6.5872	-1.09057e-05
2	0	0	1	0	1	36.9768	0.380228	0.379801	-0.0218989	2	0.000109284	13	0	6.9368	-8.31722e-06
2	0	0	1	0	1	37.3263	0.376732	0.3763	-0.0348648	2	9.85252e-05	13	0	7.2863	-1.31196e-05
2	0	0	1	0	1	37.6759	0.373237	0.372775	-0.0415025	2	8.75798e-05	13	0	7.6359	-1.54711e-05
2	0	0	1	0	1	38.0255	0.369741	0.369248	-0.0307714	2	7.64423e-05	13	0	7.9855	-1.13623e-05
2	0	0	1	0	1	38.3751	0.366245	0.365765	-0.0228666	2	6.499e-05	13	0	8.3351	-8.36378e-06
2	0	0	1	0	1	38.7247	0.362749	0.362303	-0.032206	2	5.3361e-05	13	0	8.6847	-1.16683e-05
2	0	0	1	0	1	39.0743	0.359253	0.358801	-0.0442772	2	4.15533e-05	13	0	9.0343	-1.58867e-05
2	0	0	1	0	1	39.4239	0.355757	0.35528	-0.0344697	2	2.95358e-05	13	0	9.3839	-1.22464e-05
2	0	0	1	0	1	39.7735	0.352261	0.351775	-0.0262112	2	1.71446e-05	13	0	9.7335	-9.22045e-06
2	0	0	1	0	0	40.0297	0.350314	0.349879	0.0127603	3	9.0131e-06	13	0	0.000000000000000E+000	4.46456e-06
2	1	0	1	0	0	40.4393	0.354409	0.35397	0.0350221	3	2.02706e-05	13	0	0.4096	1.23968e-05
2	1	0	1	0	0	40.7889	0.357905	0.357499	0.021074	3	3.107e-05	13	0	0.7592	7.53395e-06
2	1	0	1	0	0	41.1385	0.3614	0.360922	0.0292639	3	4.19719e-05	13	0	1.1088	1.0562e-05
2	1	0	1	0	0	41.488	0.364895	0.364471	0.0412265	3	5.28309e-05	13	0	1.4583	1.50259e-05
2	1	0	1	0	0	41.8376	0.368392	0.367991	0.0284393	3	6.36283e-05	13	0	1.8079	1.04654e-05
2	1	0	1	0	0	42.1872	0.371888	0.371418	0.0223145	3	7.44847e-05	13	0	2.1575	8.28801e-06
2	1	0	1	0	0	42.5368	0.375385	0.374909	0.0369878	3	8.51312e-05	13	0	2.5071	1.3867e-05
2	1	0	1	0	0	42.8863	0.37888	0.378495	0.0357763	3	9.56654e-05	13	0	2.8566	1.35411e-05
2	1	0	1	0	0	43.2359	0.382376	0.381973	0.0200975	3	0.00010614	13	0	3.2062	7.6767e-06
2	1	0	1	0	0	43.5855	0.385871	0.385413	0.0284725	3	0.000116557	13	0	3.5558	1.09737e-05
2	1	0	1	0	0	43.9351	0.389367	0.388946	0.0389216	3	0.000126765	13	0	3.9054	1.51384e-05
2	1	0	1	0	0	44.2847	0.392863	0.392466	0.0258137	3	0.000136897	13	0	4.255	1.0131e-05
2	1	0	1	0	0	44.6343	0.396359	0.395908	0.0202862	3	0.000146982	13	0	4.6046	8.03148e-06
2	1	0	1	0	0	44.9839	0.399855	0.399434	0.0351832	3	0.000156906	13	0	4.9542	1.40534e-05
2	1	0	1	0	0	45.3335	0.403351	0.402954	0.0331462	3	0.000166677	13	0	5.3038	1.33564e-05
2	1	0	1	0	0	45.6831	0.406847	0.406458	0.0194046	3	0.000176418	13	0	5.6534	7.88713e-06
2	1	0	1	0	0	46.0327	0.410342	0.409886	0.0243712	3	0.000186015	13	0	6.003	9.98943e-06
2	1	0	1	0	0	46.3823	0.413838	0.413384	0.0365746	3	0.000195537	13	0	6.3526	1.51194e-05
2	1	0	1	0	0	46.7318	0.417334	0.416906	0.0283107	3	0.000204958	13	0	6.7021	1.18029e-05
2	1	0	1	0	0	47.0814	0.42083	0.420385	0.0174266	3	0.000214375	13	0	7.0517	7.32587e-06
2	1	0	1	0	0	47.431	0.424327	0.423812	0.0266729	3	0.000223698	13	0	7.4013	1.13043e-05
2	1	0	1	0	0	47.7805	0.427822	0.427384	0.0359992	3	0.000232884	13	0	7.7508	1.53855e-05
2	1	0	1	0	0	48.1301	0.431318	0.43091	0.0226858	3	0.000241999	13	0	8.1004	9.77554e-06
2	1	0	1	0	0	48.4797	0.434813	0.43441	0.0180928	3	0.000251114	13	0	8.45	7.85968e-06
2	1	0	1	0	0	48.8293	0.438309	0.437892	0.0309383	3	0.000260101	13	0	8.7996	1.35476e-05
2	1	0	1	0	0	49.1789	0.441805	0.441365	0.0331301	3	0.000268992	13	0	9.1492	1.46225e-05
2	1	0	1	0	0	49.5285	0.445301	0.444888	0.0206521	3	0.000277834	13	0	9.4988	9.18788e-06
2	1	0	1	0	0	49.8781	0.448797	0.448348	0.0168015	3	0.000286685	13	0	9.8484	7.53294e-06
2	0	0	1	0	0	50.2334	0.447647	0.447177	-0.0145368	3	0.000285738	13	0	0.1948	-6.50052e-06
2	0	0	1	0	0	50.5829	0.444152	0.443646	-0.0149228	3	0.000278277	13	0	0.5443	-6.62044e-06
2	0	0	1	0	0	50.9325	0.440657	0.440192	-0.0277411	3	0.000270485	13	0	0.8939	-1.22114e-05
2	0	0	1	0	0	51.2821	0.437161	0.436645	-0.0313878	3	0.000262515	13	0	1.2435	-1.37053e-05
2	0	0	1	0	0	51.6317	0.433665	0.433146	-0.0201417	3	0.000254302	13	0	1.5931	-8.72429e-06
2	0	0	1	0	0	51.9813	0.430169	0.429691	-0.0152674	3	0.000245899	13	0	1.9427	-6.56025e-06
2	0	0	1	0	0	52.3309	0.426673	0.426203	-0.0279564	3	0.000237343	13	0	2.2923	-1.19151e-05
2	0	0	1	0	0	52.6805	0.423177	0.422697	-0.0335949	3	0.000228733	13	0	2.6419	-1.42005e-05
2	0	0	1	0	0	53.0301	0.419681	0.419181	-0.0232182	3	0.000219914	13	0	2.9915	-9.73263e-06
2	0	0	1	0	0	53.3797	0.416186	0.415709	-0.0165995	3	0.000210961	13	0	3.3411	-6.90055e-06
2	0	0	1	0	0	53.7293	0.41269	0.412197	-0.0280683	3	0.000201848	13	0	3.6907	-1.15697e-05
2	0	0	1	0	0	54.0788	0.409195	0.408691	-0.0349611	3	0.000192712	13	0	4.0402	-1.42883e-05
2	0	0	1	0	0	54.4284	0.405698	0.405241	-0.019588	3	0.000183393	13	0	4.3898	-7.93788e-06
2	0	0	1	0	0	54.778	0.402202	0.401755	-0.0255392	3	0.000173832	13	0	4.7394	-1.02605e-05
2	0	0	1	0	0	55.1276	0.398705	0.398257	-0.0378007	3	0.000164186	13	0	5.089	-1.50544e-05
2	0	0	1	0	0	55.4771	0.39521	0.394781	-0.0221222	3	0.000154348	13	0	5.4385	-8.73342e-06
2	0	0	1	0	0	55.8267	0.391715	0.391322	-0.0225703	3	0.000144265	13	0	5.7881	-8.83228e-06
2	0	0	1	0	0	56.1763	0.388219	0.387786	-0.0380875	3	0.000134129	13	0	6.1377	-1.47698e-05
2	0	0	1	0	0	56.5259	0.384723	0.384263	-0.0305792	3	0.000123838	13	0	6.4873	-1.17505e-05
2	0	0	1	0	0	56.8755	0.381227	0.38077	-0.0204353	3	0.000113298	13	0	6.8369	-7.78115e-06
2	0	0	1	0	0	57.2251	0.377731	0.377277	-0.0353906	3	0.000102566	13	0	7.1865	-1.33521e-05
2	0	0	1	0	0	57.5747	0.374235	0.373737	-0.0386255	3	9.17301e-05	13	0	7.5361	-1.44358e-05
2	0	0	1	0	0	57.9243	0.370739	0.370282	-0.0237882	3	8.06144e-05	13	0	7.8857	-8.80834e-06
2	0	0	1	0	0	58.2739	0.367244	0.366817	-0.0318216	3	6.92355e-05	13	0	8.2353	-1.16727e-05
2	0	0	1	0	0	58.6235	0.363748	0.363277	-0.0426081	3	5.77723e-05	13	0	8.5849	-1.54786e-05
2	0	0	1	0	0	58.973	0.360253	0.35977	-0.0263021	3	4.60123e-05	13	0	8.9344	-9.46272e-06
2	0	0	1	0	0	59.3226	0.356756	0.356353	-0.0322904	3	3.39543e-05	13	0	9.284	-1.15068e-05
2	0	0	1	0	0	59.6722	0.35326	0.352803	-0.045045	3	2.17834e-05	13	0	9.6336	-1.5892e-05
2	0	0	1	0	0	59.9958	0.349989	0.349591	-0.0539601	3	1.01122e-05	13	0	9.9572	-1.8864e-05
2	1	0	1	0	1	60.323	0.35326	0.352838	0.0325918	4	1.86325e-05	12	0	0.2947	1.14996e-05
2	1	0	1	0	1	60.6876	0.356907	0.356462	0.0390778	4	2.98788e-05	13	0	0.6593	1.39298e-05
2	1	0	1	0	1	61.0371	0.360402	0.359967	0.0224334	4	4.07195e-05	13	0	1.0088	8.07529e-06
2	1	0	1	0	1	61.3867	0.363897	0.363498	0.0311115	4	5.16123e-05	13	0	1.3584	1.1309e-05
2	1	0	1	0	1	61.7363	0.367393	0.366936	0.0396644	4	6.23979e-05	13	0	1.708	1.45543e-05
2	1	0	1	0	1	62.0859	0.370889	0.370433	0.0229868	4	7.31801e-05	13	0	2.0576	8.51506e-06
2	1	0	1	0	1	62.4355	0.374385	0.37393	0.0286526	4	8.39384e-05	13	0	2.4072	1.07141e-05
2	1	0	1	0	1	62.7851	0.377881	0.377478	0.0392565	4	9.44532e-05	13	0	2.7568	1.48185e-05
2	1	0	1	0	1	63.1347	0.381377	0.380991	0.0233534	4	0.00010493	13	0	3.1064	8.89744e-06
2	1	0	1	0	1	63.4843	0.384873	0.38442	0.0243082	4	0.000115328	13	0	3.456	9.34456e-06
2	1	0	1	0	1	63.8339	0.388369	0.38791	0.0376294	4	0.000125579	13	0	3.8056	1.45968e-05
2	1	0	1	0	1	64.1835	0.391864	0.391469	0.0346616	4	0.000135666	13	0	4.1552	1.35689e-05
2	1	0	1	0	1	64.533	0.39536	0.394907	0.0219162	4	0.000145724	13	0	4.5047	8.65485e-06
2	1	0	1	0	1	64.8826	0.398856	0.398448	0.0207739	4	0.000155682	13	0	4.8543	8.27733e-06
2	1	0	1	0	1	65.2322	0.402353	0.40193	0.0335675	4	0.000165533	13	0	5.2039	1.34918e-05
2	1	0	1	0	1	65.5817	0.405848	0.405406	0.0359755	4	0.000175215	13	0	5.5534	1.45847e-05
2	1	0	1	0	1	65.9313	0.409344	0.4089	0.0242001	4	0.000184802	13	0	5.903	9.89542e-06
2	1	0	1	0	1	66.2809	0.41284	0.412366	0.0181382	4	0.000194391	13	0	6.2526	7.47958e-06
2	1	0	1	0	1	66.6305	0.416335	0.415882	0.0303369	4	0.000203926	13	0	6.6022	1.26166e-05
2	1	0	1	0	1	66.9801	0.419831	0.41936	0.0358815	4	0.000213265	13	0	6.9518	1.50473e-05
2	1	0	1	0	1	67.3297	0.423327	0.422909	0.0215596	4	0.000222588	13	0	7.3014	9.11777e-06
2	1	0	1	0	1	67.6793	0.426823	0.426372	0.0210972	4	0.00023187	13	0	7.651	8.99525e-06
2	1	0	1	0	1	68.0289	0.430319	0.429881	0.0353293	4	0.000240996	13	0	8.0006	1.51874e-05
2	1	0	1	0	1	68.3785	0.433815	0.433384	0.0239469	4	0.000250027	13	0	8.3502	1.03782e-05
2	1	0	1	0	1	68.7281	0.43731	0.436861	0.017126	4	0.000259089	13	0	8.6998	7.48169e-06
2	1	0	1	0	1	69.0777	0.440806	0.440364	0.0271842	4	0.000268041	13	0	9.0494	1.19709e-05
2	1	0	1	0	1	69.4272	0.444302	0.443888	0.0347598	4	0.000276879	13	0	9.3989	1.54295e-05
2	1	0	1	0	1	69.7768	0.447798	0.447386	0.0227956	4	0.000285676	13	0	9.7485	1.01984e-05
2	1	0	1	0	1	70.1021	0.448947	0.448489	-0.0196687	4	0.000289458	12	0	0.0649	-8.82122e-06
2	0	0	1	0	1	70.4817	0.445151	0.444675	-0.0144136	4	0.000282188	13	0	0.4445	-6.40936e-06
2	0	0	1	0	1	70.8313	0.441655	0.441217	-0.020226	4	0.000274478	13	0	0.7941	-8.92405e-06
2	0	0	1	0	1	71.1809	0.438159	0.437646	-0.0319708	4	0.000266583	13	0	1.1437	-1.39919e-05
2	0	0	1	0	1	71.5305	0.434664	0.434107	-0.0223095	4	0.000258504	13	0	1.4933	-9.68469e-06
2	0	0	1	0	1	71.88	0.431169	0.430695	-0.0164685	4	0.00025014	13	0	1.8428	-7.09291e-06
2	0	0	1	0	1	72.2296	0.427672	0.427177	-0.0333742	4	0.000241686	13	0	2.1924	-1.42567e-05
2	0	0	1	0	1	72.5792	0.424176	0.423667	-0.0252997	4	0.000233064	13	0	2.542	-1.07187e-05
2	0	0	1	0	1	72.9288	0.420679	0.420201	-0.0157174	4	0.000224264	13	0	2.8916	-6.60447e-06
2	0	0	1	0	1	73.2783	0.417184	0.416694	-0.0270645	4	0.000215315	13	0	3.2411	-1.12776e-05
2	0	0	1	0	1	73.6279	0.413688	0.413182	-0.0353626	4	0.000206332	13	0	3.5907	-1.46112e-05
2	0	0	1	0	1	73.9775	0.410193	0.40969	-0.0239399	4	0.000197153	13	0	3.9403	-9.80796e-06
2	0	0	1	0	1	74.3271	0.406697	0.406229	-0.0178901	4	0.000187855	13	0	4.2899	-7.26748e-06
2	0	0	1	0	1	74.6767	0.403201	0.402755	-0.0300329	4	0.000178353	13	0	4.6395	-1.20959e-05
2	0	0	1	0	1	75.0263	0.399705	0.399239	-0.0366956	4	0.000168771	13	0	4.9891	-1.46503e-05
2	0	0	1	0	1	75.3759	0.396209	0.395703	-0.0230173	4	0.000159004	13	0	5.3387	-9.10802e-06
2	0	0	1	0	1	75.7255	0.392713	0.392269	-0.0239358	4	0.000149003	13	0	5.6883	-9.38925e-06
2	0	0	1	0	1	76.0751	0.389217	0.388704	-0.0392325	4	0.000138931	13	0	6.0379	-1.52498e-05
2	0	0	1	0	1	76.4247	0.385722	0.385258	-0.0254701	4	0.000128683	13	0	6.3875	-9.81257e-06
2	0	0	1	0	1	76.7742	0.382227	0.381816	-0.0223185	4	0.000118156	13	0	6.737	-8.52158e-06
2	0	0	1	0	1	77.1238	0.37873	0.378254	-0.0368567	4	0.000107514	13	0	7.0866	-1.39412e-05
2	0	0	1	0	1	77.4734	0.375234	0.374735	-0.0386978	4	9.67074e-05	13	0	7.4362	-1.45014e-05
2	0	0	1	0	1	77.823	0.371738	0.371303	-0.0228897	4	8.56642e-05	13	0	7.7858	-8.49901e-06
2	0	0	1	0	1	78.1725	0.368242	0.367818	-0.032158	4	7.43356e-05	13	0	8.1353	-1.18283e-05
2	0	0	1	0	1	78.5221	0.364747	0.364272	-0.0423438	4	6.29394e-05	13	0	8.4849	-1.54247e-05
2	0	0	1	0	1	78.8717	0.361251	0.360743	-0.0276276	4	5.1235e-05	13	0	8.8345	-9.96646e-06
2	0	0	1	0	1	79.2213	0.357755	0.357298	-0.0290277	4	3.92739e-05	13	0	9.1841	-1.03715e-05
2	0	0	1	0	1	79.5709	0.354259	0.353838	-0.0451339	4	2.7171e-05	13	0	9.5337	-1.59701e-05
2	0	0	1	0	1	79.9205	0.350763	0.350305	-0.0324628	4	1.48141e-05	13	0	9.8833	-1.13719e-05
2	1	0	1	0	0	80.2217	0.352261	0.351819	0.029395	5	1.67639e-05	12	0	0.1948	1.03417e-05
2	1	0	1	0	0	80.5863	0.355907	0.355488	0.0404781	5	2.79113e-05	13	0	0.5594	1.43895e-05
2	1	0	1	0	0	80.9359	0.359403	0.358969	0.0240419	5	3.86994e-05	13	0	0.909	8.63028e-06
2	1	0	1	0	0	81.2855	0.362899	0.362473	0.0268205	5	4.96433e-05	13	0	1.2586	9.72169e-06
2	1	0	1	0	0	81.6351	0.366395	0.36599	0.0406957	5	6.04397e-05	13	0	1.6082	1.48942e-05
2	1	0	1	0	0	81.9847	0.36989	0.369525	0.026356	5	7.12083e-05	13	0	1.9578	9.73918e-06
2	1	0	1	0	0	82.3342	0.373386	0.37295	0.0224534	5	8.1949e-05	13	0	2.3073	8.374e-06
2	1	0	1	0	0	82.6838	0.376882	0.376494	0.0373046	5	9.25771e-05	13	0	2.6569	1.4045e-05
2	1	0	1	0	0	83.0334	0.380378	0.379941	0.0353314	5	0.000103007	13	0	3.0065	1.34238e-05
2	1	0	1	0	0	83.383	0.383875	0.383464	0.0207802	5	0.000113411	13	0	3.3561	7.96848e-06
2	1	0	1	0	0	83.7325	0.38737	0.386918	0.0283301	5	0.00012371	13	0	3.7056	1.09614e-05
2	1	0	1	0	0	84.0821	0.390866	0.390436	0.0389677	5	0.000133869	13	0	4.0552	1.52144e-05
2	1	0	1	0	0	84.4317	0.394361	0.393946	0.0241065	5	0.000143876	13	0	4.4048	9.49665e-06
2	1	0	1	0	0	84.7813	0.397857	0.397426	0.0218303	5	0.000153938	13	0	4.7544	8.67592e-06
2	1	0	1	0	0	85.1309	0.401353	0.400908	0.0373715	5	0.000163785	13	0	5.104	1.49825e-05
2	1	0	1	0	0	85.4805	0.404849	0.404432	0.0285725	5	0.000173553	13	0	5.4536	1.15556e-05
2	1	0	1	0	0	85.8301	0.408345	0.407882	0.0181961	5	0.000183227	13	0	5.8032	7.42187e-06
2	1	0	1	0	0	86.1797	0.411841	0.411363	0.0335463	5	0.000192827	13	0	6.1528	1.37997e-05
2	1	0	1	0	0	86.5293	0.415337	0.414902	0.0317652	5	0.000202261	13	0	6.5024	1.31795e-05
2	1	0	1	0	0	86.8789	0.418832	0.418394	0.0180248	5	0.000211698	13	0	6.852	7.54145e-06
2	1	0	1	0	0	87.2284	0.422327	0.42191	0.0263282	5	0.00022102	13	0	7.2015	1.11081e-05
2	1	0	1	0	0	87.578	0.425824	0.425401	0.0355946	5	0.000230201	13	0	7.5511	1.5142e-05
2	1	0	1	0	0	87.9276	0.42932	0.428875	0.023288	5	0.000239349	13	0	7.9007	9.98765e-06
2	1	0	1	0	0	88.2772	0.432817	0.432386	0.0180159	5	0.000248504	13	0	8.2503	7.7898e-06
2	1	0	1	0	0	88.6267	0.436312	0.435834	0.03225	5	0.000257505	13	0	8.5998	1.40556e-05
2	1	0	1	0	0	88.9763	0.439808	0.439373	0.030242	5	0.000266433	13	0	8.9494	1.32875e-05
2	1	0	1	0	0	89.3259	0.443303	0.442848	0.0158815	5	0.000275347	13	0	9.299	7.03307e-06
2	1	0	1	0	0	89.6755	0.446799	0.446391	0.0257582	5	0.000284234	13	0	9.6486	1.14982e-05
2	1	0	0	0	0	89.9934	0.450021	0.449439	0.0221042	5	0.000291965	13	0	9.9665	9.93448e-06
2	0	0	1	0	0	90.3804	0.44615	0.445678	-0.0288413	5	0.00028562	13	0	0.2797	-1.28539e-05
2	0	0	1	0	0	90.73	0.442653	0.442172	-0.0253172	5	0.00027806	13	0	0.6293	-1.11945e-05
2	0	0	1	0	0	91.0795	0.439158	0.438663	-0.013667	5	0.000270161	13	0	0.9788	-5.99521e-06
2	0	0	1	0	0	91.4291	0.435662	0.435202	-0.0245699	5	0.000262032	13	0	1.3284	-1.06929e-05
2	0	0	1	0	0	91.7787	0.432167	0.431671	-0.0328229	5	0.000253844	13	0	1.678	-1.41687e-05
2	0	0	1	0	0	92.1283	0.428671	0.428145	-0.0197953	5	0.000245414	13	0	2.0276	-8.47527e-06
2	0	0	1	0	0	92.4779	0.425175	0.42469	-0.0180847	5	0.000236773	13	0	2.3772	-7.68039e-06
2	0	0	1	0	0	92.8275	0.421679	0.421223	-0.0334826	5	0.000228046	13	0	2.7268	-1.41036e-05
2	0	0	1	0	0	93.1771	0.418183	0.417681	-0.0296841	5	0.000219221	13	0	3.0764	-1.23985e-05
2	0	0	1	0	0	93.5267	0.414687	0.414184	-0.0177205	5	0.000210167	13	0	3.426	-7.33954e-06
2	0	0	1	0	0	93.8763	0.411191	0.410701	-0.0234387	5	0.000200979	13	0	3.7756	-9.6263e-06
2	0	0	1	0	0	94.2259	0.407696	0.407166	-0.0357961	5	0.000191735	13	0	4.1252	-1.45749e-05
2	0	0	1	0	0	94.5755	0.4042	0.403721	-0.0245488	5	0.00018239	13	0	4.4748	-9.91088e-06
2	0	0	1	0	0	94.925	0.400704	0.400222	-0.0191628	5	0.000172727	13	0	4.8243	-7.66936e-06
2	0	0	1	0	0	95.2746	0.397208	0.396755	-0.0325716	5	0.00016299	13	0	5.1739	-1.29229e-05
2	0	0	1	0	0	95.6242	0.393712	0.393247	-0.0373534	5	0.000153127	13	0	5.5235	-1.46891e-05
2	0	0	1	0	0	95.9737	0.390216	0.389751	-0.0234444	5	0.000143086	13	0	5.873	-9.13747e-06
2	0	0	1	0	0	96.3233	0.38672	0.386224	-0.0208196	5	0.000132799	13	0	6.2226	-8.041e-06
2	0	0	1	0	0	96.6729	0.383225	0.38274	-0.0308922	5	0.000122394	13	0	6.5722	-1.18237e-05
2	0	0	1	0	0	97.0225	0.379729	0.379273	-0.0404623	5	0.000111865	13	0	6.9218	-1.53463e-05
2	0	0	1	0	0	97.3721	0.376233	0.375727	-0.0336382	5	0.000101148	13	0	7.2714	-1.26388e-05
2	0	0	1	0	0	97.7217	0.372737	0.372264	-0.0219049	5	9.01296e-05	13	0	7.621	-8.15439e-06
2	0	0	1	0	0	98.0713	0.369241	0.368794	-0.0329988	5	7.89273e-05	13	0	7.9706	-1.21697e-05
2	0	0	1	0	0	98.4209	0.365745	0.36528	-0.0419983	5	6.76151e-05	13	0	8.3202	-1.53412e-05
2	0	0	1	0	0	98.7705	0.362249	0.361802	-0.0277539	5	5.60114e-05	13	0	8.6698	-1.00414e-05
2	0	0	1	0	0	99.1201	0.358754	0.358308	-0.0254535	5	4.41584e-05	13	0	9.0194	-9.12018e-06
2	0	0	1	0	0	99.4696	0.355259	0.354807	-0.0375493	5	3.2104e-05	13	0	9.3689	-1.33228e-05
2	0	0	1	0	0	99.8192	0.351762	0.351332	-0.0457614	5	1.98436e-05	13	0	9.7185	-1.60775e-05
2	1	0	1	0	1	100.09	0.350963	0.350552	0.0296715	6	1.49634e-05	13	0	0.065	1.04014e-05
2	1	0	1	0	1	100.485	0.354908	0.354441	0.0233749	6	2.67738e-05	13	0	0.4595	8.28504e-06
2	1	0	1	0	1	100.835	0.358404	0.357982	0.0404723	6	3.75016e-05	13	0	0.8091	1.44883e-05
2	1	0	1	0	1	101.184	0.361901	0.361492	0.0341205	6	4.82847e-05	13	0	1.1587	1.23343e-05
2	1	0	1	0	1	101.534	0.365396	0.365034	0.0224792	6	5.91494e-05	13	0	1.5082	8.20567e-06
2	1	0	1	0	1	101.883	0.368892	0.368432	0.0275045	6	6.99787e-05	13	0	1.8578	1.01335e-05
2	1	0	1	0	1	102.233	0.372387	0.371967	0.0403405	6	8.06691e-05	13	0	2.2074	1.50053e-05
2	1	0	1	0	1	102.582	0.375883	0.375482	0.0309679	6	9.12482e-05	13	0	2.557	1.16279e-05
2	1	0	1	0	1	102.932	0.379379	0.378934	0.0201638	6	0.000101824	13	0	2.9066	7.64076e-06
2	1	0	1	0	1	103.282	0.382875	0.382456	0.0303778	6	0.000112242	13	0	3.2562	1.16182e-05
2	1	0	1	0	1	103.631	0.386371	0.385988	0.0392256	6	0.000122504	13	0	3.6058	1.51406e-05
2	1	0	1	0	1	103.981	0.389867	0.389479	0.0253538	6	0.000132685	13	0	3.9554	9.87479e-06
2	1	0	1	0	1	104.33	0.393363	0.392932	0.0217843	6	0.00014283	13	0	4.305	8.55977e-06
2	1	0	1	0	1	104.68	0.396858	0.396455	0.0367436	6	0.000152807	13	0	4.6546	1.45672e-05
2	1	0	1	0	1	105.03	0.400353	0.399946	0.0301698	6	0.000162633	13	0	5.0041	1.20663e-05
2	1	0	1	0	1	105.379	0.40385	0.403501	0.0184632	6	0.000172465	13	0	5.3537	7.4499e-06
2	1	0	1	0	1	105.729	0.407346	0.406908	0.0244611	6	0.00018216	13	0	5.7033	9.95341e-06
2	1	0	1	0	1	106.078	0.410843	0.410418	0.0360856	6	0.000191676	13	0	6.0529	1.48102e-05
2	1	0	1	0	1	106.428	0.414338	0.413897	0.030306	6	0.000201129	13	0	6.4024	1.25436e-05
2	1	0	1	0	1	106.777	0.417834	0.417403	0.017505	6	0.000210605	13	0	6.752	7.30661e-06
2	1	0	1	0	1	107.127	0.421329	0.420917	0.0276184	6	0.000219986	13	0	7.1016	1.16251e-05
2	1	0	1	0	1	107.477	0.424825	0.424384	0.0351537	6	0.0002292	13	0	7.4512	1.49187e-05
2	1	0	1	0	1	107.826	0.428321	0.427901	0.0209781	6	0.000238363	13	0	7.8008	8.97656e-06
2	1	0	1	0	1	108.176	0.431817	0.431355	0.0201371	6	0.000247517	13	0	8.1504	8.68624e-06
2	1	0	1	0	1	108.525	0.435313	0.434844	0.0339106	6	0.000256497	13	0	8.5	1.47458e-05
2	1	0	1	0	1	108.875	0.438809	0.438395	0.027238	6	0.000265435	13	0	8.8496	1.1941e-05
2	1	0	1	0	1	109.225	0.442305	0.441845	0.0162464	6	0.000274395	13	0	9.1992	7.17839e-06
2	1	0	1	0	1	109.574	0.4458	0.445362	0.0300036	6	0.000283266	13	0	9.5488	1.33624e-05
2	1	0	1	0	1	109.924	0.449295	0.448848	0.0304146	6	0.000291982	13	0	9.8983	1.36515e-05
2	0	0	1	0	1	110.279	0.447149	0.446654	-0.0298334	6	0.000288887	13	0	0.2447	-1.33252e-05
2	0	0	1	0	1	110.629	0.443653	0.443171	-0.0180535	6	0.000281409	13	0	0.5943	-8.00081e-06
2	0	0	1	0	1	110.978	0.440157	0.439664	-0.0162746	6	0.000273566	13	0	0.9439	-7.15534e-06
2	0	0	1	0	1	111.328	0.436661	0.436205	-0.0315003	6	0.000265534	13	0	1.2935	-1.37406e-05
2	0	0	1	0	1	111.677	0.433165	0.432678	-0.025257	6	0.000257397	13	0	1.6431	-1.09281e-05
2	0	0	1	0	1	112.027	0.42967	0.429163	-0.014872	6	0.000248979	13	0	1.9927	-6.38251e-06
2	0	0	1	0	1	112.377	0.426174	0.425745	-0.027594	6	0.000240436	13	0	2.3423	-1.1748e-05
2	0	0	1	0	1	112.726	0.422678	0.42219	-0.0332095	6	0.000231803	13	0	2.6918	-1.40207e-05
2	0	0	1	0	1	113.076	0.419182	0.418656	-0.0176644	6	0.000222966	13	0	3.0414	-7.3953e-06
2	0	0	1	0	1	113.425	0.415685	0.415213	-0.0221982	6	0.000213955	13	0	3.391	-9.21698e-06
2	0	0	1	0	1	113.775	0.41219	0.411748	-0.0357461	6	0.000204904	13	0	3.7405	-1.47184e-05
2	0	0	1	0	1	114.124	0.408694	0.408201	-0.0258538	6	0.000195687	13	0	4.0901	-1.05536e-05
2	0	0	1	0	1	114.474	0.405199	0.404769	-0.0181467	6	0.000186318	13	0	4.4397	-7.34521e-06
2	0	0	1	0	1	114.824	0.401703	0.401278	-0.0337884	6	0.000176774	13	0	4.7893	-1.35585e-05
2	0	0	1	0	1	115.173	0.398207	0.39774	-0.0334796	6	0.00016713	13	0	5.1389	-1.33162e-05
2	0	0	1	0	1	115.523	0.394711	0.394225	-0.0196944	6	0.000157267	13	0	5.4885	-7.76402e-06
2	0	0	1	0	1	115.872	0.391215	0.390826	-0.0266264	6	0.000147249	13	0	5.8381	-1.04063e-05
2	0	0	1	0	1	116.222	0.387719	0.387267	-0.0391625	6	0.000137147	13	0	6.1877	-1.51664e-05
2	0	0	1	0	1	116.572	0.384223	0.383741	-0.0286139	6	0.000126863	13	0	6.5373	-1.09803e-05
2	0	0	1	0	1	116.921	0.380728	0.380287	-0.0206345	6	0.000116342	13	0	6.8869	-7.84704e-06
2	0	0	1	0	1	117.271	0.377232	0.376779	-0.0310686	6	0.000105634	13	0	7.2365	-1.1706e-05
2	0	0	1	0	1	117.62	0.373737	0.37331	-0.0412075	6	9.47821e-05	13	0	7.586	-1.53832e-05
2	0	0	1	0	1	117.97	0.37024	0.369712	-0.0365794	6	8.37232e-05	13	0	7.9356	-1.35238e-05
2	0	0	1	0	1	118.32	0.366744	0.366236	-0.0255992	6	7.24182e-05	13	0	8.2852	-9.37533e-06
2	0	0	1	0	1	118.669	0.363248	0.362777	-0.025078	6	6.08665e-05	13	0	8.6347	-9.09773e-06
2	0	0	1	0	1	119.019	0.359752	0.359303	-0.0370265	6	4.91005e-05	13	0	8.9843	-1.33037e-05
2	0	0	1	0	1	119.368	0.356257	0.355759	-0.0441253	6	3.71338e-05	13	0	9.3339	-1.5698e-05
2	0	0	1	0	1	119.718	0.352761	0.352276	-0.0365657	6	2.49613e-05	13	0	9.6835	-1.28812e-05
2	0	0	0	0	0	119.997	0.350039	0.34961	-0.0167813	7	1.51817e-05	13	0	9.9622	-5.8669e-06
2	1	0	1	0	0	120.384	0.353909	0.353465	0.0343741	7	2.45224e-05	13	0	0.2946	1.21501e-05
2	1	0	1	0	0	120.733	0.357405	0.357003	0.0400099	7	3.5148e-05	13	0	0.6442	1.42837e-05
2	1	0	1	0	0	121.083	0.360901	0.360496	0.0256466	7	4.59608e-05	13	0	0.9938	9.24549e-06
2	1	0	1	0	0	121.432	0.364397	0.363973	0.0215204	7	5.68587e-05	13	0	1.3434	7.83284e-06
2	1	0	1	0	0	121.782	0.367893	0.367436	0.030602	7	6.76641e-05	13	0	1.693	1.12443e-05
2	1	0	1	0	0	122.132	0.371389	0.371001	0.0399339	7	7.83726e-05	13	0	2.0426	1.48155e-05
2	1	0	1	0	0	122.481	0.374884	0.374471	0.0358839	7	8.89759e-05	13	0	2.3922	1.34375e-05
2	1	0	1	0	0	122.831	0.37838	0.377961	0.0234764	7	9.95328e-05	13	0	2.7418	8.87315e-06
2	1	0	1	0	0	123.18	0.381876	0.381408	0.0225968	7	0.000110018	13	0	3.0913	8.61859e-06
2	1	0	1	0	0	123.53	0.385372	0.384922	0.0378997	7	0.000120295	13	0	3.4409	1.45884e-05
2	1	0	1	0	0	123.88	0.388869	0.388453	0.031566	7	0.000130481	13	0	3.7905	1.22619e-05
2	1	0	1	0	0	124.229	0.392364	0.391938	0.0191744	7	0.000140618	13	0	4.14	7.51518e-06
2	1	0	1	0	0	124.579	0.39586	0.395418	0.0312252	7	0.000150677	13	0	4.4896	1.2347e-05
2	1	0	1	0	0	124.928	0.399355	0.398899	0.0363702	7	0.000160511	13	0	4.8392	1.45081e-05
2	1	0	1	0	0	125.278	0.402851	0.402436	0.0212664	7	0.000170343	13	0	5.1888	8.55837e-06
2	1	0	1	0	0	125.627	0.406347	0.405924	0.0230953	7	0.000180083	13	0	5.5384	9.37494e-06
2	1	0	1	0	0	125.977	0.409843	0.409386	0.0369306	7	0.000189608	13	0	5.888	1.51189e-05
2	1	0	1	0	0	126.327	0.413339	0.412921	0.0263233	7	0.000199065	13	0	6.2376	1.08694e-05
2	1	0	1	0	0	126.676	0.416835	0.416344	0.0181402	7	0.000208573	13	0	6.5872	7.55254e-06
2	1	0	1	0	0	127.026	0.420331	0.419856	0.0321468	7	0.000217914	13	0	6.9368	1.3497e-05
2	1	0	1	0	0	127.375	0.423826	0.423402	0.0324584	7	0.000227139	13	0	7.2864	1.3743e-05
2	1	0	1	0	0	127.725	0.427322	0.426884	0.0174527	7	0.000236329	13	0	7.636	7.45029e-06
2	1	0	1	0	0	128.075	0.430818	0.43033	0.0236554	7	0.000245492	13	0	7.9855	1.01796e-05
2	1	0	1	0	0	128.424	0.434314	0.433845	0.0349874	7	0.000254496	13	0	8.3351	1.51791e-05
2	1	0	1	0	0	128.774	0.437811	0.437385	0.0248632	7	0.000263456	13	0	8.6847	1.08748e-05
2	1	0	1	0	0	129.123	0.441306	0.440824	0.0172248	7	0.000272434	13	0	9.0342	7.59311e-06
2	1	0	1	0	0	129.473	0.444802	0.444347	0.0316388	7	0.000281294	13	0	9.3838	1.40586e-05
2	1	0	1	0	0	129.822	0.448297	0.447823	0.0290878	7	0.00029005	13	0	9.7334	1.30262e-05
2	1	0	1	0	0	130.163	0.448297	0.447811	-0.0202278	7	0.000291393	12	0	0.1299	-9.05823e-06
2	0	0	1	0	0	130.527	0.444653	0.444134	-0.015083	7	0.000283728	13	0	0.4944	-6.69888e-06
2	0	0	1	0	0	130.877	0.441156	0.440671	-0.0190146	7	0.000275978	13	0	0.844	-8.3792e-06
2	0	0	1	0	0	131.227	0.43766	0.437162	-0.0326322	7	0.000268041	13	0	1.1936	-1.42655e-05
2	0	0	1	0	0	131.576	0.434163	0.433612	-0.019677	7	0.000259917	13	0	1.5432	-8.53218e-06
2	0	0	1	0	0	131.926	0.430668	0.430185	-0.0179768	7	0.000251525	13	0	1.8927	-7.73336e-06
2	0	0	1	0	0	132.275	0.427173	0.426694	-0.0329732	7	0.000243073	13	0	2.2423	-1.40695e-05
2	0	0	1	0	0	132.625	0.423677	0.423169	-0.0257399	7	0.000234473	13	0	2.5919	-1.08923e-05
2	0	0	1	0	0	132.974	0.420181	0.419702	-0.0163031	7	0.000225666	13	0	2.9415	-6.84245e-06
2	0	0	1	0	0	133.324	0.416685	0.416201	-0.0320119	7	0.000216726	13	0	3.2911	-1.33234e-05
2	0	0	1	0	0	133.674	0.413189	0.412635	-0.0299915	7	0.000207727	13	0	3.6407	-1.23755e-05
2	0	0	1	0	0	134.023	0.409693	0.409234	-0.0173396	7	0.000198485	13	0	3.9903	-7.09597e-06
2	0	0	1	0	0	134.373	0.406197	0.405767	-0.0305968	7	0.000189191	13	0	4.3399	-1.24152e-05
2	0	0	1	0	0	134.722	0.402701	0.402222	-0.0345121	7	0.000179758	13	0	4.6895	-1.38815e-05
2	0	0	1	0	0	135.072	0.399206	0.398759	-0.0182755	7	0.000170085	13	0	5.0391	-7.28754e-06
2	0	0	1	0	0	135.422	0.395711	0.395272	-0.0285393	7	0.00016025	13	0	5.3886	-1.12808e-05
2	0	0	1	0	0	135.771	0.392214	0.391754	-0.0377273	7	0.000150372	13	0	5.7382	-1.47798e-05
2	0	0	1	0	0	136.121	0.388718	0.388265	-0.0221956	7	0.000140267	13	0	6.0878	-8.61775e-06
2	0	0	1	0	0	136.47	0.385221	0.384813	-0.0255272	7	0.000129937	13	0	6.4374	-9.8232e-06
2	0	0	1	0	0	136.82	0.381726	0.381253	-0.0400341	7	0.000119537	13	0	6.7869	-1.52631e-05
2	0	0	1	0	0	137.169	0.378231	0.377758	-0.0265872	7	0.000108952	13	0	7.1365	-1.00435e-05
2	0	0	1	0	0	137.519	0.374735	0.374305	-0.0244867	7	9.80465e-05	13	0	7.4861	-9.16549e-06
2	0	0	1	0	0	137.869	0.371239	0.370773	-0.0408537	7	8.7052e-05	13	0	7.8357	-1.51475e-05
2	0	0	1	0	0	138.218	0.367743	0.367229	-0.0334135	7	7.58468e-05	13	0	8.1853	-1.22704e-05
2	0	0	1	0	0	138.568	0.364247	0.363786	-0.0237309	7	6.43518e-05	13	0	8.5349	-8.63297e-06
2	0	0	1	0	0	138.917	0.360751	0.360307	-0.0398429	7	5.26342e-05	13	0	8.8845	-1.43556e-05
2	0	0	1	0	0	139.267	0.357255	0.356771	-0.0400124	7	4.07904e-05	13	0	9.2341	-1.42753e-05
2	0	0	1	0	0	139.617	0.35376	0.353231	-0.0257414	7	2.86483e-05	13	0	9.5837	-9.09265e-06
2	0	0	1	0	0	139.966	0.350264	0.349808	-0.0358253	7	1.62138e-05	13	0	9.9333	-1.2532e-05
2	1	0	1	0	1	140.252	0.352611	0.352169	0.0336092	8	2.13696e-05	12	0	0.2298	1.18361e-05
2	1	0	1	0	1	140.632	0.356406	0.355976	0.0205308	8	3.34337e-05	13	0	0.6094	7.30847e-06
2	1	0	1	0	1	140.982	0.359902	0.359422	0.0326646	8	4.42339e-05	13	0	0.9589	1.17404e-05
2	1	0	1	0	1	141.331	0.363398	0.362988	0.0391674	8	5.50388e-05	13	0	1.3085	1.42173e-05
2	1	0	1	0	1	141.681	0.366894	0.366466	0.0238305	8	6.58376e-05	13	0	1.6581	8.73306e-06
2	1	0	1	0	1	142.03	0.370391	0.369959	0.0263584	8	7.66656e-05	13	0	2.0077	9.75155e-06
2	1	0	1	0	1	142.38	0.373886	0.373395	0.0398953	8	8.7242e-05	13	0	2.3572	1.48967e-05
2	1	0	1	0	1	142.729	0.377382	0.377002	0.0276666	8	9.77953e-05	13	0	2.7068	1.04304e-05
2	1	0	1	0	1	143.079	0.380877	0.380452	0.0204186	8	0.000108291	13	0	3.0564	7.7683e-06
2	1	0	1	0	1	143.429	0.384373	0.383944	0.0352213	8	0.00011865	13	0	3.406	1.3523e-05
2	1	0	1	0	1	143.778	0.387869	0.38746	0.0350054	8	0.000128809	13	0	3.7556	1.35632e-05
2	1	0	1	0	1	144.128	0.391365	0.390944	0.0197338	8	0.000138995	13	0	4.1052	7.7148e-06
2	1	0	1	0	1	144.477	0.394861	0.394423	0.0277661	8	0.000149047	13	0	4.4548	1.09516e-05
2	1	0	1	0	1	144.827	0.398357	0.397939	0.0376059	8	0.000158926	13	0	4.8044	1.49649e-05
2	1	0	1	0	1	145.177	0.401853	0.401468	0.0219676	8	0.000168722	13	0	5.154	8.81929e-06
2	1	0	1	0	1	145.526	0.405348	0.404892	0.0228931	8	0.000178506	13	0	5.5036	9.26922e-06
2	1	0	1	0	1	145.876	0.408844	0.408389	0.0363995	8	0.000188019	13	0	5.8531	1.48652e-05
2	1	0	1	0	1	146.225	0.41234	0.411882	0.0266773	8	0.000197524	13	0	6.2027	1.09879e-05
2	1	0	1	0	1	146.575	0.415836	0.415424	0.0183584	8	0.000207033	13	0	6.5523	7.62651e-06
2	1	0	1	0	1	146.925	0.419333	0.418884	0.0333365	8	0.000216398	13	0	6.9019	1.39641e-05
2	1	0	1	0	1	147.274	0.422828	0.422456	0.0305982	8	0.000225633	13	0	7.2514	1.29264e-05
2	1	0	1	0	1	147.624	0.426323	0.425871	0.0170291	8	0.000234872	13	0	7.601	7.25219e-06
2	1	0	1	0	1	147.973	0.429819	0.429346	0.0281857	8	0.000244033	13	0	7.9506	1.21014e-05
2	1	0	1	0	1	148.323	0.433315	0.432842	0.0331321	8	0.000253029	13	0	8.3002	1.4341e-05
2	1	0	1	0	1	148.672	0.436811	0.436345	0.0177258	8	0.000262025	13	0	8.6498	7.73458e-06
2	1	0	1	0	1	149.022	0.440307	0.439803	0.0209653	8	0.000271018	13	0	8.9994	9.22061e-06
2	1	0	1	0	1	149.372	0.443803	0.443353	0.0326785	8	0.000279849	13	0	9.349	1.44881e-05
2	1	0	1	0	1	149.721	0.447299	0.446892	0.0314366	8	0.000288629	13	0	9.6986	1.40488e-05
2	1	0	1	0	1	150.032	0.449596	0.449089	-0.0133692	8	0.000295172	13	0	0.000000000000000E+000	-6.00397e-06
2	0	0	1	0	1	150.426	0.445651	0.445151	-0.0270545	8	0.000287127	13	0	0.3945	-1.20433e-05
2	0	0	1	0	1	150.776	0.442155	0.441631	-0.0159656	8	0.000279469	13	0	0.7441	-7.05089e-06
2	0	0	1	0	1	151.125	0.438659	0.438176	-0.0159887	8	0.000271513	13	0	1.0937	-7.00589e-06
2	0	0	1	0	1	151.475	0.435163	0.434703	-0.0291449	8	0.000263405	13	0	1.4433	-1.26694e-05
2	0	0	1	0	1	151.824	0.431667	0.431175	-0.0318011	8	0.000255183	13	0	1.7929	-1.37118e-05
2	0	0	1	0	1	152.174	0.428171	0.427635	-0.0202697	8	0.000246747	13	0	2.1425	-8.66803e-06
2	0	0	1	0	1	152.524	0.424675	0.424206	-0.0155449	8	0.000238139	13	0	2.4921	-6.59425e-06
2	0	0	1	0	1	152.873	0.42118	0.420679	-0.0266925	8	0.000229391	13	0	2.8417	-1.1229e-05
2	0	0	1	0	1	153.223	0.417685	0.41719	-0.0350612	8	0.000220572	13	0	3.1912	-1.46272e-05
2	0	0	1	0	1	153.572	0.414188	0.413677	-0.0237552	8	0.000211578	13	0	3.5408	-9.82697e-06
2	0	0	1	0	1	153.922	0.410692	0.410208	-0.0180681	8	0.000202389	13	0	3.8904	-7.41168e-06
2	0	0	1	0	1	154.272	0.407196	0.406782	-0.0332181	8	0.000193161	13	0	4.24	-1.35125e-05
2	0	0	1	0	1	154.621	0.4037	0.403243	-0.0345666	8	0.000183814	13	0	4.5895	-1.39387e-05
2	0	0	1	0	1	154.971	0.400204	0.399764	-0.0230932	8	0.000174219	13	0	4.9391	-9.23181e-06
2	0	0	1	0	1	155.32	0.396709	0.396281	-0.0206727	8	0.000164446	13	0	5.2887	-8.19219e-06
2	0	0	1	0	1	155.67	0.393213	0.392752	-0.0375844	8	0.000154546	13	0	5.6383	-1.47613e-05
2	0	0	1	0	1	156.019	0.389717	0.38924	-0.0296979	8	0.000144578	13	0	5.9879	-1.15596e-05
2	0	0	1	0	1	156.369	0.386221	0.38575	-0.0197728	8	0.000134298	13	0	6.3375	-7.62734e-06
2	0	0	1	0	1	156.719	0.382725	0.382306	-0.0295552	8	0.000123895	13	0	6.6871	-1.12992e-05
2	0	0	1	0	1	157.068	0.379229	0.378779	-0.0404023	8	0.000113359	13	0	7.0367	-1.53036e-05
2	0	0	1	0	1	157.418	0.375733	0.375241	-0.0331792	8	0.00010265	13	0	7.3863	-1.24502e-05
2	0	0	1	0	1	157.767	0.372238	0.371752	-0.0222285	8	9.16592e-05	13	0	7.7359	-8.2635e-06
2	0	0	1	0	1	158.117	0.368743	0.36825	-0.0269553	8	8.04854e-05	13	0	8.0854	-9.92627e-06
2	0	0	1	0	1	158.467	0.365246	0.364795	-0.0418301	8	6.91062e-05	13	0	8.435	-1.52594e-05
2	0	0	1	0	1	158.816	0.36175	0.361256	-0.0393328	8	5.75403e-05	13	0	8.7846	-1.42092e-05
2	0	0	1	0	1	159.166	0.358254	0.357775	-0.0260205	8	4.56871e-05	13	0	9.1342	-9.30949e-06
2	0	0	1	0	1	159.515	0.354758	0.354289	-0.0287054	8	3.36148e-05	13	0	9.4837	-1.017e-05
2	0	0	1	0	1	159.865	0.351263	0.350806	-0.0439591	8	2.12948e-05	13	0	9.8333	-1.54211e-05
2	1	0	1	0	0	160.151	0.351612	0.351171	0.0366898	9	1.91929e-05	12	0	0.1299	1.28844e-05
2	1	0	1	0	0	160.531	0.355408	0.354948	0.0203047	9	3.07369e-05	13	0	0.5094	7.20712e-06
2	1	0	1	0	0	160.88	0.358903	0.358467	0.0340917	9	4.15104e-05	13	0	0.859	1.22207e-05
2	1	0	1	0	0	161.23	0.362399	0.361975	0.0385727	9	5.22622e-05	13	0	1.2086	1.39623e-05
2	1	0	1	0	0	161.579	0.365895	0.365455	0.0215168	9	6.31262e-05	13	0	1.5582	7.86342e-06
2	1	0	1	0	0	161.929	0.369391	0.36897	0.0318414	9	7.39257e-05	13	0	1.9078	1.17485e-05
2	1	0	1	0	0	162.279	0.372887	0.372447	0.0385517	9	8.45515e-05	13	0	2.2574	1.43585e-05
2	1	0	1	0	0	162.628	0.376383	0.375939	0.0225406	9	9.51421e-05	13	0	2.607	8.47389e-06
2	1	0	1	0	0	162.978	0.379879	0.379438	0.0262737	9	0.000105685	13	0	2.9566	9.96922e-06
2	1	0	1	0	0	163.327	0.383374	0.382956	0.039123	9	0.000115992	13	0	3.3062	1.49824e-05
2	1	0	1	0	0	163.677	0.386869	0.386481	0.0270289	9	0.000126228	13	0	3.6557	1.04462e-05
2	1	0	1	0	0	164.027	0.390366	0.389931	0.0208607	9	0.000136447	13	0	4.0053	8.13421e-06
2	1	0	1	0	0	164.376	0.393862	0.393428	0.0359318	9	0.00014649	13	0	4.3549	1.41366e-05
2	1	0	1	0	0	164.726	0.397359	0.396902	0.0330995	9	0.000156382	13	0	4.7045	1.31373e-05
2	1	0	1	0	0	165.075	0.400854	0.400425	0.018506	9	0.000166267	13	0	5.054	7.41025e-06
2	1	0	1	0	0	165.425	0.40435	0.403898	0.0298777	9	0.000176047	13	0	5.4036	1.20675e-05
2	1	0	1	0	0	165.774	0.407845	0.407363	0.0342451	9	0.00018562	13	0	5.7532	1.39502e-05
2	1	0	1	0	0	166.124	0.411341	0.410898	0.0193592	9	0.000195136	13	0	6.1028	7.95465e-06
2	1	0	1	0	0	166.474	0.414837	0.41435	0.0236966	9	0.000204668	13	0	6.4524	9.81869e-06
2	1	0	1	0	0	166.823	0.418333	0.4179	0.0361448	9	0.000213989	13	0	6.802	1.51049e-05
2	1	0	1	0	0	167.173	0.421829	0.421392	0.0239198	9	0.000223288	13	0	7.1516	1.00796e-05
2	1	0	1	0	0	167.522	0.425325	0.424887	0.0186356	9	0.000232564	13	0	7.5012	7.91804e-06
2	1	0	1	0	0	167.872	0.428821	0.428359	0.0333055	9	0.000241743	13	0	7.8508	1.42667e-05
2	1	0	1	0	0	168.222	0.432316	0.431828	0.0297594	9	0.00025078	13	0	8.2004	1.28509e-05
2	1	0	1	0	0	168.571	0.435811	0.435362	0.0166964	9	0.000259856	13	0	8.5499	7.26898e-06
2	1	0	1	0	0	168.921	0.439308	0.438821	0.0260716	9	0.00026884	13	0	8.8995	1.14407e-05
2	1	0	1	0	0	169.27	0.442804	0.442383	0.0339383	9	0.000277682	13	0	9.2491	1.50137e-05
2	1	0	1	0	0	169.62	0.446301	0.44584	0.0194635	9	0.00028648	13	0	9.5987	8.67763e-06
2	1	0	1	0	0	169.967	0.449771	0.449309	0.0172658	9	0.000295211	13	0	9.9457	7.7577e-06
2	0	0	1	0	0	170.325	0.446649	0.446183	-0.0117528	9	0.000290148	13	0	0.2947	-5.24389e-06
2	0	0	1	0	0	170.674	0.443154	0.442667	-0.0256413	9	0.000282583	13	0	0.6443	-1.13505e-05
2	0	0	1	0	0	171.024	0.439658	0.439163	-0.0291952	9	0.000274817	13	0	0.9939	-1.28215e-05
2	0	0	1	0	0	171.374	0.436162	0.435663	-0.0149367	9	0.000266745	13	0	1.3434	-6.50738e-06
2	0	0	1	0	0	171.723	0.432666	0.432192	-0.0219971	9	0.000258496	13	0	1.693	-9.50697e-06
2	0	0	1	0	0	172.073	0.429169	0.428701	-0.0339645	9	0.000250167	13	0	2.0426	-1.45606e-05
2	0	0	1	0	0	172.422	0.425674	0.425174	-0.020846	9	0.000241638	13	0	2.3921	-8.86316e-06
2	0	0	1	0	0	172.772	0.422178	0.421717	-0.0178528	9	0.000232891	13	0	2.7417	-7.52884e-06
2	0	0	1	0	0	173.121	0.418683	0.418173	-0.0333318	9	0.000224078	13	0	3.0913	-1.39385e-05
2	0	0	1	0	0	173.471	0.415187	0.41465	-0.0289681	9	0.000215185	13	0	3.4409	-1.20116e-05
2	0	0	1	0	0	173.821	0.411691	0.411199	-0.0165339	9	0.000206028	13	0	3.7905	-6.79875e-06
2	0	0	1	0	0	174.17	0.408195	0.407722	-0.029898	9	0.000196781	13	0	4.1401	-1.21901e-05
2	0	0	1	0	0	174.52	0.404699	0.404215	-0.0345185	9	0.000187509	13	0	4.4897	-1.39529e-05
2	0	0	1	0	0	174.869	0.401203	0.400724	-0.0200181	9	0.000177974	13	0	4.8393	-8.02174e-06
2	0	0	1	0	0	175.219	0.397707	0.397239	-0.0241215	9	0.000168237	13	0	5.1889	-9.582e-06
2	0	0	1	0	0	175.569	0.394212	0.393726	-0.0379148	9	0.000158435	13	0	5.5385	-1.4928e-05
2	0	0	1	0	0	175.918	0.390716	0.390235	-0.028484	9	0.000148472	13	0	5.8881	-1.11154e-05
2	0	0	1	0	0	176.268	0.38722	0.386796	-0.0200334	9	0.00013826	13	0	6.2376	-7.74885e-06
2	0	0	1	0	0	176.617	0.383724	0.383301	-0.0355134	9	0.000127911	13	0	6.5872	-1.36123e-05
2	0	0	1	0	0	176.967	0.380228	0.379808	-0.0367383	9	0.00011748	13	0	6.9368	-1.39535e-05
2	0	0	1	0	0	177.316	0.376732	0.376273	-0.0221717	9	0.000106767	13	0	7.2863	-8.3426e-06
2	0	0	1	0	0	177.666	0.373237	0.372818	-0.0301121	9	9.58154e-05	13	0	7.6359	-1.12263e-05
2	0	0	1	0	0	178.016	0.369741	0.369292	-0.0418827	9	8.47382e-05	13	0	7.9855	-1.54669e-05
2	0	0	1	0	0	178.365	0.366245	0.365751	-0.0260532	9	7.34364e-05	13	0	8.3351	-9.52897e-06
2	0	0	1	0	0	178.715	0.362749	0.362292	-0.0294857	9	6.18448e-05	13	0	8.6847	-1.06824e-05
2	0	0	1	0	0	179.064	0.359253	0.358772	-0.0437063	9	5.01568e-05	13	0	9.0343	-1.56806e-05
2	0	0	1	0	0	179.414	0.355757	0.355304	-0.0314548	9	3.82147e-05	13	0	9.3839	-1.1176e-05
2	0	0	1	0	0	179.764	0.352261	0.351838	-0.0279572	9	2.59335e-05	13	0	9.7335	-9.83638e-06
2	1	0	1	0	1	180.02	0.350314	0.349943	0.00566632	10	1.78686e-05	13	0	0.000000000000000E+000	1.98289e-06
2	1	0	1	0	1	180.429	0.354409	0.353949	0.0274602	10	2.8743e-05	13	0	0.4096	9.71949e-06
2	1	0	1	0	1	180.779	0.357905	0.357476	0.0208637	10	3.94661e-05	13	0	0.7592	7.45827e-06
2	1	0	1	0	1	181.129	0.3614	0.360927	0.0328923	10	5.02839e-05	13	0	1.1088	1.18717e-05
2	1	0	1	0	1	181.478	0.364895	0.364471	0.0396404	10	6.10625e-05	13	0	1.4583	1.44478e-05
2	1	0	1	0	1	181.828	0.368392	0.367972	0.0228795	10	7.18237e-05	13	0	1.8079	8.419e-06
2	1	0	1	0	1	182.177	0.371888	0.371457	0.027064	10	8.258e-05	13	0	2.1575	1.00531e-05
2	1	0	1	0	1	182.527	0.375385	0.374933	0.0397864	10	9.3143e-05	13	0	2.5071	1.49172e-05
2	1	0	1	0	1	182.876	0.37888	0.378473	0.026495	10	0.000103616	13	0	2.8566	1.00276e-05
2	1	0	1	0	1	183.226	0.382376	0.381946	0.0222438	10	0.000114062	13	0	3.2062	8.49595e-06
2	1	0	1	0	1	183.576	0.385871	0.38546	0.0382141	10	0.000124304	13	0	3.5558	1.473e-05
2	1	0	1	0	1	183.925	0.389367	0.389	0.0295306	10	0.000134452	13	0	3.9054	1.14874e-05
2	1	0	1	0	1	184.275	0.392863	0.392378	0.0194333	10	0.00014457	13	0	4.255	7.62519e-06
2	1	0	1	0	1	184.624	0.396359	0.395941	0.0348752	10	0.000154569	13	0	4.6046	1.38085e-05
2	1	0	1	0	1	184.974	0.399855	0.399423	0.0325414	10	0.00016437	13	0	4.9542	1.29978e-05
2	1	0	1	0	1	185.324	0.403351	0.402926	0.0179989	10	0.000174213	13	0	5.3038	7.25223e-06
2	1	0	1	0	1	185.673	0.406847	0.406432	0.0322088	10	0.000183897	13	0	5.6534	1.30907e-05
2	1	0	1	0	1	186.023	0.410342	0.409912	0.0327814	10	0.000193358	13	0	6.003	1.34375e-05
2	1	0	1	0	1	186.372	0.413838	0.413363	0.0174939	10	0.000202883	13	0	6.3526	7.23134e-06
2	1	0	1	0	1	186.722	0.417334	0.416902	0.031387	10	0.000212327	13	0	6.7021	1.30853e-05
2	1	0	1	0	1	187.072	0.42083	0.42042	0.0312413	10	0.000221568	13	0	7.0517	1.31344e-05
2	1	0	1	0	1	187.421	0.424327	0.423875	0.0170757	10	0.000230848	13	0	7.4013	7.23797e-06
2	1	0	1	0	1	187.771	0.427822	0.42735	0.0310928	10	0.000240027	13	0	7.7508	1.32875e-05
2	1	0	1	0	1	188.12	0.431318	0.430908	0.0305063	10	0.000249066	13	0	8.1004	1.31454e-05
2	1	0	1	0	1	188.47	0.434813	0.43437	0.0165585	10	0.000258113	13	0	8.45	7.19254e-06
2	1	0	1	0	1	188.819	0.438309	0.437865	0.0300458	10	0.000267098	13	0	8.7996	1.3156e-05
2	1	0	1	0	1	189.169	0.441805	0.44136	0.0303511	10	0.000275938	13	0	9.1492	1.33958e-05
2	1	0	1	0	1	189.519	0.445301	0.444832	0.0165557	10	0.000284818	13	0	9.4988	7.36449e-06
2	1	0	1	0	1	189.868	0.448797	0.448288	0.027193	10	0.000293631	13	0	9.8484	1.21903e-05
2	0	0	1	0	1	190.224	0.447647	0.447194	-0.0175576	10	0.000292218	13	0	0.1948	-7.85167e-06
2	0	0	1	0	1	190.573	0.444152	0.443662	-0.0313071	10	0.000284824	13	0	0.5443	-1.38898e-05
2	0	0	1	0	1	190.923	0.440657	0.44016	-0.0187686	10	0.000277103	13	0	0.8939	-8.2612e-06
2	0	0	1	0	1	191.272	0.437161	0.436715	-0.0171906	10	0.000269028	13	0	1.2435	-7.50739e-06
2	0	0	1	0	1	191.622	0.433665	0.433168	-0.0328576	10	0.000260891	13	0	1.5931	-1.42329e-05
2	0	0	1	0	1	191.971	0.430169	0.429654	-0.0222642	10	0.000252583	13	0	1.9427	-9.56591e-06
2	0	0	1	0	1	192.321	0.426673	0.4262	-0.0166352	10	0.00024405	13	0	2.2923	-7.08992e-06
2	0	0	1	0	1	192.671	0.423177	0.422683	-0.0324087	10	0.000235396	13	0	2.6419	-1.36986e-05
2	0	0	1	0	1	193.02	0.419681	0.419135	-0.0269654	10	0.000226664	13	0	2.9915	-1.13021e-05
2	0	0	1	0	1	193.37	0.416186	0.415663	-0.0170977	10	0.000217679	13	0	3.3411	-7.1069e-06
2	0	0	1	0	1	193.719	0.41269	0.412214	-0.0326823	10	0.000208627	13	0	3.6907	-1.34721e-05
2	0	0	1	0	1	194.069	0.409195	0.408669	-0.0303852	10	0.000199471	13	0	4.0402	-1.24175e-05
2	0	0	1	0	1	194.419	0.405698	0.405211	-0.017332	10	0.000190166	13	0	4.3898	-7.02312e-06
2	0	0	1	0	1	194.768	0.402202	0.401758	-0.0312444	10	0.000180632	13	0	4.7394	-1.25527e-05
2	0	0	1	0	1	195.118	0.398705	0.398239	-0.0346473	10	0.000171061	13	0	5.089	-1.37979e-05
2	0	0	1	0	1	195.467	0.39521	0.394705	-0.0194165	10	0.000161255	13	0	5.4385	-7.66381e-06
2	0	0	1	0	1	195.817	0.391715	0.391287	-0.0285502	10	0.00015127	13	0	5.7881	-1.11713e-05
2	0	0	1	0	1	196.166	0.388219	0.38774	-0.0384769	10	0.000141227	13	0	6.1377	-1.4919e-05
2	0	0	1	0	1	196.516	0.384723	0.384236	-0.0241326	10	0.000130965	13	0	6.4873	-9.27262e-06
2	0	0	1	0	1	196.866	0.381227	0.380775	-0.0209237	10	0.000120497	13	0	6.8369	-7.9672e-06
2	0	0	1	0	1	197.215	0.377731	0.377254	-0.0316468	10	0.000109856	13	0	7.1865	-1.19389e-05
2	0	0	1	0	1	197.565	0.374235	0.373772	-0.0409633	10	9.90618e-05	13	0	7.5361	-1.53109e-05
2	0	0	1	0	1	197.914	0.370739	0.370273	-0.0268052	10	8.80437e-05	13	0	7.8857	-9.92525e-06
2	0	0	1	0	1	198.264	0.367244	0.366794	-0.0270123	10	7.6714e-05	13	0	8.2353	-9.90795e-06
2	0	0	1	0	1	198.614	0.363748	0.363282	-0.0428922	10	6.52942e-05	13	0	8.5849	-1.5582e-05
2	0	0	1	0	1	198.963	0.360253	0.359785	-0.0303897	10	5.3654e-05	13	0	8.9344	-1.09337e-05
2	0	0	1	0	1	199.313	0.356756	0.356308	-0.0286454	10	4.16557e-05	13	0	9.284	-1.02066e-05
2	0	0	1	0	1	199.662	0.35326	0.35281	-0.0449677	10	2.95888e-05	13	0	9.6336	-1.58651e-05
2	0	0	0	0	1	199.986	0.349989	0.349553	-0.0583281	10	1.80746e-05	13	0	9.9572	-2.03887e-05