File: ACS_Catal_2026/Figures_Na_K/main_figures/data/EC/20251112_2-148_alpha_reproducibility/20251112_2-148_006_gamma_reproducibility_2_K2_01_CVA_C02.mpt
EC-Lab ASCII FILE
Nb header lines : 66

Cyclic Voltammetry Advanced

Run on channel : 2 (SN 69290)
User :
CE vs. WE compliance from -10 V to 10 V
Electrode connection : standard
Potential control : Ewe
Ewe ctrl range : min = -1.00 V, max = 1.00 V
Safety Limits :
	Do not start on E overload
Acquisition started on : 11/12/2025 20:23:02.181
Loaded Setting File :  C:\Users\User\Documents\EC-Lab\Data\Yatsuzuka\20251112_2-148_alpha_reproducibility\20251112_2-148_002_alpha_reproducibility_2_K1.mps
Saved on :
	File : 20251112_2-148_006_gamma_reproducibility_2_K2_r_01_CVA_C02.mpr
	Directory : C:\Users\User\Documents\EC-Lab\Data\Yatsuzuka\20251112_2-148_alpha_reproducibility\
	Host : 192.109.209.127
Device : SP-150e (SN .003883)
Address : 192.109.209.128
EC-Lab for windows v11.52 (software)
Internet server v11.52 (firmware)
Command interpretor v11.50 (firmware)
Electrode material :
Initial state :
Electrolyte :
Comments :
Electrode surface area : 0.001 cm2
Characteristic mass : 0.001 g
Equivalent Weight : 0.000 g/eq.
Density : 0.000 g/cm3
Volume (V) : 0.001 cm3
Cycle Definition : Charge/Discharge alternance
Ei (V)              0.350
vs.                 Ref
ti (h:m:s)          0:00:10.0000
dti (s)             0.0000
dE/dt               10.000
dE/dt unit          mV/s
E1 (V)              0.450
vs.                 Ref
t1 (h:m:s)          0:00:0.0000
dt1 (s)             0.1000
Step percent        50
N                   10
E range min (V)     -1.000
E range max (V)     1.000
I Range             Auto
I Range min         Unset
I Range max         Unset
I Range init        Unset
Bandwidth           5
E2 (V)              0.350
vs.                 Ref
t2 (h:m:s)          0:00:0.0000
dt2 (s)             0.1000
nc cycles           9
nr                  1
Reverse Scan        0
Ef (V)              0.000
vs.                 Eoc
tf (h:m:s)          0:00:0.0000
dtf (s)             0.1000

mode	ox/red	error	control changes	Ns changes	counter inc.	time/s	control/V	Ewe/V	<I>/mA	cycle number	(Q-Qo)/C	I Range	Ns	step time/s	P/W
2	1	0	0	0	0	0.000000000000000E+000	0.349989	0.349514	0.00293354	1	0.0000000E+000	13	0	0.000000000000000E+000	1.02532e-06
2	1	0	1	0	0	0.3771	0.35376	0.353342	0.00436944	1	1.55443e-06	13	0	0.3496	1.54391e-06
2	1	0	1	0	0	0.7767	0.357755	0.357333	0.00437303	1	3.27659e-06	13	0	0.7492	1.56263e-06
2	1	0	1	0	0	1.1762	0.36175	0.361351	0.00438617	1	5.00638e-06	13	0	1.1487	1.58495e-06
2	1	0	1	0	0	1.5757	0.365745	0.365342	0.00429251	1	6.73334e-06	13	0	1.5482	1.56823e-06
2	1	0	1	0	0	1.9753	0.369741	0.369347	0.00424373	1	8.44604e-06	13	0	1.9478	1.56741e-06
2	1	0	1	0	0	2.3748	0.373737	0.373331	0.00420923	1	1.01463e-05	13	0	2.3473	1.57143e-06
2	1	0	1	0	0	2.7743	0.377731	0.37731	0.00411998	1	1.1835e-05	13	0	2.7468	1.55451e-06
2	1	0	1	0	0	3.1739	0.381726	0.381334	0.00408555	1	1.3506e-05	13	0	3.1464	1.55796e-06
2	1	0	1	0	0	3.5733	0.385722	0.385302	0.00395662	1	1.51557e-05	13	0	3.5458	1.52449e-06
2	1	0	1	0	0	3.9729	0.389717	0.389296	0.00391636	1	1.67979e-05	13	0	3.9454	1.52462e-06
2	1	0	1	0	0	4.3724	0.393712	0.393278	0.00354383	1	1.84131e-05	13	0	4.3449	1.39371e-06
2	0	0	1	0	0	4.7719	0.397707	0.397288	0.00472361	1	2.00296e-05	13	0	4.7444	1.87663e-06
2	1	0	1	0	0	5.1715	0.401703	0.401322	0.00443925	1	2.16262e-05	13	0	5.144	1.78157e-06
2	0	0	1	0	0	5.571	0.405698	0.40527	0.00251381	1	2.32033e-05	13	0	5.5435	1.01877e-06
2	1	0	1	0	0	5.9705	0.409693	0.409273	0.00483853	1	2.47604e-05	13	0	5.943	1.98028e-06
2	1	0	1	0	0	6.3701	0.413688	0.413229	0.00309339	1	2.63129e-05	13	0	6.3426	1.27828e-06
2	0	0	1	0	0	6.7695	0.417684	0.417257	0.00335292	1	2.7848e-05	13	0	6.742	1.39903e-06
2	1	0	1	0	0	7.1691	0.421679	0.42127	0.00445949	1	2.93709e-05	13	0	7.1416	1.87865e-06
2	1	0	1	0	0	7.5686	0.425673	0.425247	0.00246993	1	3.08842e-05	13	0	7.5411	1.05033e-06
2	1	0	1	0	0	7.9681	0.42967	0.429186	0.0047072	1	3.23887e-05	13	0	7.9406	2.02026e-06
2	1	0	1	0	0	8.3677	0.433665	0.433273	0.00278523	1	3.38745e-05	13	0	8.3402	1.20677e-06
2	0	0	1	0	0	8.7672	0.43766	0.437249	0.0040046	1	3.53562e-05	13	0	8.7397	1.75101e-06
2	1	0	1	0	0	9.1667	0.441655	0.441231	0.00364054	1	3.68266e-05	13	0	9.1392	1.60632e-06
2	1	0	1	0	0	9.5663	0.445651	0.445255	0.00327199	1	3.82832e-05	13	0	9.5388	1.45687e-06
2	1	0	1	0	0	9.9658	0.449647	0.449246	0.00424408	1	3.97247e-05	13	0	9.9383	1.90664e-06
2	0	0	1	0	0	10.2761	0.447249	0.446805	-0.00302712	1	3.93127e-05	13	0	0.2497	-1.35253e-06
2	0	0	1	0	0	10.6757	0.443253	0.442748	-0.00145999	1	3.83853e-05	13	0	0.6493	-6.46408e-07
2	0	0	1	0	0	11.0752	0.439258	0.438785	-0.00368887	1	3.7378e-05	13	0	1.0488	-1.61862e-06
2	0	0	1	0	0	11.4747	0.435263	0.434765	-0.00227971	1	3.63129e-05	13	0	1.4483	-9.91139e-07
2	0	0	1	0	0	11.8743	0.431268	0.430755	-0.00320465	1	3.52147e-05	13	0	1.8479	-1.38042e-06
2	0	0	1	0	0	12.2737	0.427272	0.426815	-0.00363743	1	3.40724e-05	13	0	2.2473	-1.55251e-06
2	0	0	1	0	0	12.6733	0.423277	0.4228	-0.00211854	1	3.28987e-05	13	0	2.6469	-8.9572e-07
2	0	0	1	0	0	13.0728	0.419282	0.418826	-0.00428928	1	3.16917e-05	13	0	3.0464	-1.79646e-06
2	0	0	1	0	0	13.4723	0.415287	0.414802	-0.00224675	1	3.04569e-05	13	0	3.4459	-9.31957e-07
2	0	0	1	0	0	13.8719	0.411291	0.410834	-0.00463528	1	2.91912e-05	13	0	3.8455	-1.90433e-06
2	0	0	1	0	0	14.2714	0.407296	0.406891	-0.00266028	1	2.79074e-05	13	0	4.245	-1.08244e-06
2	0	0	1	0	0	14.6709	0.403301	0.402884	-0.00357102	1	2.65858e-05	13	0	4.6445	-1.43871e-06
2	0	0	1	0	0	15.0705	0.399306	0.398848	-0.00385862	1	2.5234e-05	13	0	5.0441	-1.539e-06
2	0	0	1	0	0	15.47	0.395309	0.394853	-0.00278351	1	2.38598e-05	13	0	5.4436	-1.09908e-06
2	0	0	1	0	0	15.8695	0.391315	0.390883	-0.00445809	1	2.24535e-05	13	0	5.8431	-1.74259e-06
2	0	0	1	0	0	16.269	0.387321	0.386892	-0.00232747	1	2.10208e-05	13	0	6.2426	-9.00481e-07
2	0	0	1	0	0	16.6685	0.383325	0.382909	-0.00491634	1	1.95577e-05	13	0	6.6421	-1.88251e-06
2	1	0	1	0	0	17.0681	0.379329	0.378912	-0.00223442	1	1.80649e-05	13	0	7.0417	-8.46647e-07
2	0	0	1	0	0	17.4676	0.375334	0.374906	-0.00502607	1	1.65451e-05	13	0	7.4412	-1.8843e-06
2	1	0	1	0	0	17.8671	0.371339	0.370905	-0.00247011	1	1.49918e-05	13	0	7.8407	-9.16175e-07
2	0	0	1	0	0	18.2667	0.367343	0.36689	-0.00480633	1	1.34073e-05	13	0	8.2403	-1.7634e-06
2	1	0	1	0	0	18.6662	0.363347	0.362913	-0.00300193	1	1.17901e-05	13	0	8.6398	-1.08944e-06
2	0	0	1	0	0	19.0657	0.359353	0.358917	-0.00488894	1	1.01414e-05	13	0	9.0393	-1.75472e-06
2	0	0	1	0	0	19.4653	0.355358	0.354934	-0.00332978	1	8.45985e-06	13	0	9.4389	-1.18185e-06
2	0	0	1	0	0	19.8647	0.351362	0.350915	-0.00495343	1	6.74446e-06	13	0	9.8383	-1.73824e-06
2	1	0	1	0	1	20.1311	0.351312	0.35094	0.00334787	2	6.57297e-06	13	0	0.1	1.1749e-06
2	1	0	1	0	1	20.5305	0.355308	0.354937	0.00388358	2	8.05188e-06	13	0	0.4994	1.37843e-06
2	1	0	1	0	1	20.9301	0.359303	0.358919	0.00468173	2	9.60861e-06	13	0	0.899	1.68036e-06
2	1	0	1	0	1	21.3296	0.363298	0.362922	0.00358229	2	1.11819e-05	13	0	1.2985	1.30009e-06
2	1	0	1	0	1	21.7291	0.367293	0.36689	0.00499588	2	1.27632e-05	13	0	1.698	1.83294e-06
2	1	0	1	0	1	22.1287	0.371289	0.370835	0.00341538	2	1.4341e-05	13	0	2.0976	1.26654e-06
2	1	0	1	0	1	22.5282	0.375284	0.374836	0.00464	2	1.59104e-05	13	0	2.4971	1.73924e-06
2	1	0	1	0	1	22.9277	0.379279	0.378838	0.00361828	2	1.74701e-05	13	0	2.8966	1.37074e-06
2	1	0	1	0	1	23.3273	0.383275	0.382858	0.00412469	2	1.9024e-05	13	0	3.2962	1.57917e-06
2	1	0	1	0	1	23.7268	0.387271	0.386888	0.00388608	2	2.05649e-05	13	0	3.6957	1.50348e-06
2	0	0	1	0	1	24.1263	0.391265	0.390877	0.00356953	2	2.20921e-05	13	0	4.0952	1.39525e-06
2	1	0	1	0	1	24.5258	0.395259	0.394856	0.00373991	2	2.35997e-05	13	0	4.4947	1.47673e-06
2	0	0	1	0	1	24.9253	0.399256	0.398802	0.00352167	2	2.51011e-05	13	0	4.8942	1.40445e-06
2	1	0	1	0	1	25.3249	0.403251	0.402881	0.00338616	2	2.65883e-05	13	0	5.2938	1.36422e-06
2	0	0	1	0	1	25.7244	0.407246	0.406855	0.00370472	2	2.80624e-05	13	0	5.6933	1.50728e-06
2	1	0	1	0	1	26.1239	0.411241	0.410827	0.00307643	2	2.95113e-05	13	0	6.0928	1.26388e-06
2	0	0	1	0	1	26.5235	0.415237	0.414765	0.00386559	2	3.09624e-05	13	0	6.4924	1.60331e-06
2	1	0	1	0	1	26.923	0.419232	0.418766	0.00297679	2	3.23988e-05	13	0	6.8919	1.24658e-06
2	0	0	1	0	1	27.3225	0.423227	0.422787	0.00393946	2	3.38258e-05	13	0	7.2914	1.66555e-06
2	1	0	1	0	1	27.7221	0.427222	0.426818	0.00295744	2	3.52365e-05	13	0	7.691	1.26229e-06
2	1	0	1	0	1	28.1215	0.431218	0.430786	0.00412722	2	3.66376e-05	13	0	8.0904	1.77795e-06
2	1	0	1	0	1	28.5211	0.435213	0.434782	0.0028016	2	3.80258e-05	13	0	8.49	1.21808e-06
2	1	0	1	0	1	28.9206	0.439208	0.438741	0.00407593	2	3.94051e-05	13	0	8.8895	1.78828e-06
2	1	0	1	0	1	29.3201	0.443204	0.442791	0.0031023	2	4.0772e-05	13	0	9.289	1.37367e-06
2	1	0	1	0	1	29.7197	0.447199	0.446768	0.00410351	2	4.21366e-05	13	0	9.6886	1.83332e-06
2	1	0	1	0	1	30.025	0.449747	0.449317	-0.00172442	2	4.30393e-05	13	0	0.000000000000000E+000	-7.74809e-07
2	0	0	1	0	1	30.4245	0.445751	0.445257	-0.00255641	2	4.21613e-05	13	0	0.3995	-1.13826e-06
2	0	0	1	0	1	30.8241	0.441755	0.441315	-0.00269005	2	4.1159e-05	13	0	0.7991	-1.18716e-06
2	0	0	1	0	1	31.2236	0.43776	0.437278	-0.0027484	2	4.00975e-05	13	0	1.1986	-1.20182e-06
2	1	0	1	0	1	31.6231	0.433765	0.433268	-0.00279688	2	3.89903e-05	13	0	1.5981	-1.2118e-06
2	0	0	1	0	1	32.0227	0.429769	0.429277	-0.00283258	2	3.78514e-05	13	0	1.9977	-1.21596e-06
2	1	0	1	0	1	32.4222	0.425773	0.425306	-0.00225285	2	3.66758e-05	13	0	2.3972	-9.58151e-07
2	1	0	1	0	1	32.8217	0.421779	0.421318	-0.00366593	2	3.54698e-05	13	0	2.7967	-1.54452e-06
2	1	0	1	0	1	33.2213	0.417784	0.417334	-0.00219766	2	3.42332e-05	13	0	3.1963	-9.17158e-07
2	0	0	1	0	1	33.6207	0.413788	0.413334	-0.00373087	2	3.29719e-05	13	0	3.5957	-1.5421e-06
2	1	0	1	0	1	34.0203	0.409793	0.409288	-0.00261963	2	3.16808e-05	13	0	3.9953	-1.07218e-06
2	0	0	1	0	1	34.4198	0.405798	0.405331	-0.00383571	2	3.03739e-05	13	0	4.3948	-1.55473e-06
2	0	0	1	0	1	34.8193	0.401803	0.401356	-0.00294475	2	2.90328e-05	13	0	4.7943	-1.18189e-06
2	0	0	1	0	1	35.2189	0.397807	0.397387	-0.00402846	2	2.76669e-05	13	0	5.1939	-1.60086e-06
2	0	0	1	0	1	35.6184	0.393812	0.393374	-0.00272361	2	2.6272e-05	13	0	5.5934	-1.0714e-06
2	0	0	1	0	1	36.0179	0.389817	0.389346	-0.00514968	2	2.48528e-05	13	0	5.9929	-2.00501e-06
2	0	0	1	0	1	36.4175	0.385822	0.385415	-0.00278652	2	2.34055e-05	13	0	6.3925	-1.07397e-06
2	0	0	1	0	1	36.817	0.381825	0.381372	-0.00454629	2	2.19342e-05	13	0	6.792	-1.73383e-06
2	0	0	1	0	1	37.2165	0.377831	0.377425	-0.00419811	2	2.04319e-05	13	0	7.1915	-1.58447e-06
2	0	0	1	0	1	37.6161	0.373836	0.373371	-0.00355599	2	1.89003e-05	13	0	7.5911	-1.3277e-06
2	0	0	1	0	1	38.0155	0.369841	0.369363	-0.00516424	2	1.73424e-05	13	0	7.9905	-1.90748e-06
2	0	0	1	0	1	38.4151	0.365845	0.365385	-0.002831	2	1.57493e-05	13	0	8.3901	-1.03441e-06
2	0	0	1	0	1	38.8146	0.36185	0.361476	-0.00562552	2	1.41249e-05	13	0	8.7896	-2.03349e-06
2	0	0	1	0	1	39.2141	0.357855	0.357385	-0.00318325	2	1.24697e-05	13	0	9.1891	-1.13764e-06
2	0	0	1	0	1	39.6137	0.353859	0.353454	-0.00494551	2	1.07803e-05	13	0	9.5887	-1.74801e-06
2	0	0	1	0	1	39.9933	0.350064	0.349619	-0.00543762	2	9.11598e-06	13	0	9.9683	-1.9011e-06
2	0	0	1	0	0	40.2795	0.352811	0.352461	0.00378347	3	1.003e-05	13	0	0.2498	1.33352e-06
2	1	0	1	0	0	40.679	0.356806	0.356394	0.00368772	3	1.15243e-05	13	0	0.6493	1.31428e-06
2	0	0	1	0	0	41.0785	0.360801	0.36038	0.00326947	3	1.30703e-05	13	0	1.0488	1.17825e-06
2	1	0	1	0	0	41.4781	0.364796	0.364373	0.00427855	3	1.46311e-05	13	0	1.4484	1.55899e-06
2	1	0	1	0	0	41.8775	0.368792	0.368375	0.00349888	3	1.61915e-05	13	0	1.8478	1.2889e-06
2	1	0	1	0	0	42.2771	0.372787	0.372366	0.0042276	3	1.77421e-05	13	0	2.2474	1.57422e-06
2	1	0	1	0	0	42.6766	0.376782	0.376363	0.00366938	3	1.92881e-05	13	0	2.6469	1.38102e-06
2	1	0	1	0	0	43.0761	0.380778	0.380358	0.00404987	3	2.08179e-05	13	0	3.0464	1.5404e-06
2	1	0	1	0	0	43.4757	0.384773	0.384354	0.0039766	3	2.2338e-05	13	0	3.446	1.52842e-06
2	1	0	1	0	0	43.8752	0.388768	0.38832	0.00357804	3	2.38403e-05	13	0	3.8455	1.38942e-06
2	1	0	1	0	0	44.2747	0.392763	0.392331	0.00427127	3	2.53313e-05	13	0	4.245	1.67575e-06
2	1	0	1	0	0	44.6743	0.396759	0.396358	0.00350289	3	2.68109e-05	13	0	4.6446	1.3884e-06
2	1	0	1	0	0	45.0738	0.400755	0.400354	0.00425359	3	2.82733e-05	13	0	5.0441	1.70294e-06
2	1	0	1	0	0	45.4733	0.404749	0.404337	0.00354692	3	2.97205e-05	13	0	5.4436	1.43415e-06
2	1	0	1	0	0	45.8729	0.408744	0.408335	0.00380037	3	3.11474e-05	13	0	5.8432	1.55182e-06
2	1	0	1	0	0	46.2723	0.41274	0.412324	0.00406632	3	3.2572e-05	13	0	6.2426	1.67664e-06
2	1	0	1	0	0	46.6719	0.416735	0.416343	0.00326121	3	3.39859e-05	13	0	6.6422	1.35778e-06
2	1	0	1	0	0	47.0714	0.42073	0.420302	0.00408127	3	3.53806e-05	13	0	7.0417	1.71537e-06
2	1	0	1	0	0	47.4709	0.424725	0.424271	0.00297063	3	3.67667e-05	13	0	7.4412	1.26035e-06
2	1	0	1	0	0	47.8705	0.428721	0.428338	0.00415805	3	3.81441e-05	13	0	7.8408	1.78105e-06
2	1	0	1	0	0	48.27	0.432716	0.432259	0.00260374	3	3.95079e-05	13	0	8.2403	1.12549e-06
2	1	0	1	0	0	48.6695	0.436711	0.436279	0.00428242	3	4.08578e-05	13	0	8.6398	1.86833e-06
2	0	0	1	0	0	49.0691	0.440706	0.440284	0.00225782	3	4.22027e-05	13	0	9.0394	9.94085e-07
2	1	0	1	0	0	49.4685	0.444702	0.444269	0.00422518	3	4.35346e-05	13	0	9.4388	1.87712e-06
2	0	0	1	0	0	49.8681	0.448697	0.448224	0.0021525	3	4.48614e-05	13	0	9.8384	9.64804e-07
2	1	0	1	0	0	50.1735	0.448247	0.447827	-0.00103599	3	4.49481e-05	13	0	0.1499	-4.63944e-07
2	0	0	1	0	0	50.5729	0.444252	0.443777	-0.00358265	3	4.39894e-05	13	0	0.5493	-1.5899e-06
2	0	0	1	0	0	50.9725	0.440257	0.439746	-0.00158047	3	4.29537e-05	13	0	0.9489	-6.95005e-07
2	0	0	1	0	0	51.372	0.436263	0.435812	-0.0037608	3	4.18661e-05	13	0	1.3484	-1.639e-06
2	0	0	1	0	0	51.7715	0.432266	0.431798	-0.00205315	3	4.07429e-05	13	0	1.7479	-8.86545e-07
2	0	0	1	0	0	52.1711	0.428271	0.427811	-0.00392472	3	3.95869e-05	13	0	2.1475	-1.67904e-06
2	0	0	1	0	0	52.5706	0.424276	0.423779	-0.00239425	3	3.83984e-05	13	0	2.547	-1.01463e-06
2	0	0	1	0	0	52.9701	0.420281	0.419818	-0.00382994	3	3.71838e-05	13	0	2.9465	-1.60788e-06
2	0	0	1	0	0	53.3697	0.416285	0.415773	-0.00316865	3	3.59442e-05	13	0	3.3461	-1.31744e-06
2	0	0	1	0	0	53.7692	0.412289	0.411816	-0.00369119	3	3.4676e-05	13	0	3.7456	-1.52009e-06
2	0	0	1	0	0	54.1687	0.408295	0.407796	-0.00336147	3	3.33844e-05	13	0	4.1451	-1.3708e-06
2	0	0	1	0	0	54.5683	0.4043	0.403829	-0.00382777	3	3.20725e-05	13	0	4.5447	-1.54577e-06
2	0	0	1	0	0	54.9677	0.400304	0.399857	-0.00348511	3	3.07289e-05	13	0	4.9441	-1.39355e-06
2	0	0	1	0	0	55.3673	0.396309	0.395873	-0.00408782	3	2.9356e-05	13	0	5.3437	-1.61826e-06
2	0	0	1	0	0	55.7668	0.392315	0.391875	-0.00340766	3	2.7958e-05	13	0	5.7432	-1.33538e-06
2	0	0	1	0	0	56.1663	0.388319	0.387865	-0.00447437	3	2.65339e-05	13	0	6.1427	-1.73545e-06
2	0	0	1	0	0	56.5659	0.384323	0.383915	-0.00319698	3	2.50832e-05	13	0	6.5423	-1.22737e-06
2	0	0	1	0	0	56.9654	0.380328	0.379863	-0.00483083	3	2.36056e-05	13	0	6.9418	-1.83506e-06
2	0	0	1	0	0	57.3649	0.376333	0.375869	-0.00290347	3	2.21032e-05	13	0	7.3413	-1.09132e-06
2	0	0	1	0	0	57.7645	0.372338	0.371872	-0.00529812	3	2.0564e-05	13	0	7.7409	-1.97022e-06
2	0	0	1	0	0	58.164	0.368341	0.367898	-0.00262082	3	1.89971e-05	13	0	8.1404	-9.64196e-07
2	0	0	1	0	0	58.5635	0.364347	0.363941	-0.00552817	3	1.73964e-05	13	0	8.5399	-2.01193e-06
2	0	0	1	0	0	58.9631	0.360352	0.359957	-0.00268473	3	1.57591e-05	13	0	8.9395	-9.66387e-07
2	0	0	1	0	0	59.3625	0.356356	0.355933	-0.00547782	3	1.40958e-05	13	0	9.3389	-1.94974e-06
2	1	0	1	0	0	59.7621	0.352361	0.351902	-0.00286054	3	1.2396e-05	13	0	9.7385	-1.00663e-06
2	1	0	1	0	1	60.0283	0.350314	0.349934	0.0040274	4	1.14419e-05	13	0	0.0275	1.40933e-06
2	0	0	1	0	1	60.4279	0.354309	0.353855	0.00230714	4	1.28364e-05	13	0	0.4271	8.16396e-07
2	1	0	1	0	1	60.8274	0.358304	0.357901	0.00488412	4	1.43419e-05	13	0	0.8266	1.74803e-06
2	1	0	1	0	1	61.2269	0.362299	0.361855	0.00258196	4	1.58807e-05	13	0	1.2261	9.34294e-07
2	1	0	1	0	1	61.6265	0.366295	0.365847	0.00497756	4	1.74255e-05	13	0	1.6257	1.82103e-06
2	1	0	1	0	1	62.026	0.37029	0.369872	0.00274781	4	1.89726e-05	13	0	2.0252	1.01634e-06
2	1	0	1	0	1	62.4255	0.374285	0.373912	0.00496972	4	2.05061e-05	13	0	2.4247	1.85823e-06
2	1	0	1	0	1	62.8251	0.37828	0.377844	0.0026977	4	2.20312e-05	13	0	2.8243	1.01931e-06
2	1	0	1	0	1	63.2245	0.382276	0.381883	0.00483086	4	2.35367e-05	13	0	3.2237	1.84482e-06
2	1	0	1	0	1	63.6241	0.386271	0.385887	0.00307363	4	2.50346e-05	13	0	3.6233	1.18607e-06
2	1	0	1	0	1	64.0236	0.390266	0.389859	0.00460319	4	2.65208e-05	13	0	4.0228	1.7946e-06
2	1	0	1	0	1	64.4231	0.394262	0.393866	0.0031581	4	2.79915e-05	13	0	4.4223	1.24387e-06
2	1	0	1	0	1	64.8227	0.398257	0.397845	0.00429761	4	2.94489e-05	13	0	4.8219	1.70978e-06
2	1	0	1	0	1	65.2222	0.402252	0.401839	0.00327757	4	3.08937e-05	13	0	5.2214	1.31706e-06
2	1	0	1	0	1	65.6217	0.406247	0.405831	0.0046031	4	3.23218e-05	13	0	5.6209	1.86808e-06
2	1	0	1	0	1	66.0213	0.410243	0.409787	0.00288136	4	3.37294e-05	13	0	6.0205	1.18074e-06
2	1	0	1	0	1	66.4208	0.414239	0.413799	0.00470733	4	3.5129e-05	13	0	6.42	1.94789e-06
2	1	0	1	0	1	66.8203	0.418233	0.417804	0.00278337	4	3.65176e-05	13	0	6.8195	1.1629e-06
2	1	0	1	0	1	67.2199	0.422228	0.421802	0.00460842	4	3.78952e-05	13	0	7.2191	1.94384e-06
2	1	0	1	0	1	67.6193	0.426224	0.425791	0.00277256	4	3.92601e-05	13	0	7.6185	1.18053e-06
2	1	0	1	0	1	68.0189	0.430219	0.429748	0.00434655	4	4.06117e-05	13	0	8.0181	1.86792e-06
2	1	0	1	0	1	68.4184	0.434214	0.433765	0.00294877	4	4.19541e-05	13	0	8.4176	1.27907e-06
2	1	0	1	0	1	68.8179	0.438209	0.437766	0.00398106	4	4.3284e-05	13	0	8.8171	1.74277e-06
2	1	0	1	0	1	69.2175	0.442205	0.441796	0.00311127	4	4.4608e-05	13	0	9.2167	1.37454e-06
2	1	0	1	0	1	69.617	0.4462	0.445717	0.00367448	4	4.59185e-05	13	0	9.6162	1.63778e-06
2	1	0	1	0	1	69.994	0.449971	0.449592	0.000627114	4	4.71448e-05	13	0	9.9932	2.81945e-07
2	1	0	1	0	1	70.3219	0.446749	0.446266	-0.00182046	4	4.64745e-05	13	0	0.2997	-8.12409e-07
2	0	0	1	0	1	70.7214	0.442754	0.442292	-0.00264226	4	4.54818e-05	13	0	0.6992	-1.16865e-06
2	1	0	1	0	1	71.1209	0.438759	0.438296	-0.00254346	4	4.44237e-05	13	0	1.0987	-1.11479e-06
2	0	0	1	0	1	71.5205	0.434764	0.434272	-0.00238307	4	4.33264e-05	13	0	1.4983	-1.0349e-06
2	1	0	1	0	1	71.92	0.430767	0.430315	-0.00314738	4	4.21895e-05	13	0	1.8978	-1.35437e-06
2	0	0	1	0	1	72.3195	0.426773	0.426314	-0.00239582	4	4.10252e-05	13	0	2.2973	-1.02137e-06
2	1	0	1	0	1	72.719	0.422779	0.422314	-0.00322132	4	3.98305e-05	13	0	2.6968	-1.36041e-06
2	0	0	1	0	1	73.1185	0.418782	0.418329	-0.00276554	4	3.86051e-05	13	0	3.0963	-1.1569e-06
2	1	0	1	0	1	73.5181	0.414787	0.414341	-0.00323161	4	3.73547e-05	13	0	3.4959	-1.33899e-06
2	0	0	1	0	1	73.9176	0.410792	0.410333	-0.00299787	4	3.60782e-05	13	0	3.8954	-1.23012e-06
2	1	0	1	0	1	74.3171	0.406797	0.406335	-0.00339996	4	3.47836e-05	13	0	4.2949	-1.38152e-06
2	0	0	1	0	1	74.7167	0.402801	0.402384	-0.0029463	4	3.34608e-05	13	0	4.6945	-1.18554e-06
2	0	0	1	0	1	75.1162	0.398806	0.398365	-0.00400549	4	3.21104e-05	13	0	5.094	-1.59565e-06
2	0	0	1	0	1	75.5157	0.394811	0.394365	-0.00278943	4	3.07372e-05	13	0	5.4935	-1.10005e-06
2	0	0	1	0	1	75.9153	0.390816	0.390355	-0.00445084	4	2.93342e-05	13	0	5.8931	-1.73741e-06
2	0	0	1	0	1	76.3147	0.38682	0.3863	-0.0026363	4	2.79042e-05	13	0	6.2925	-1.0184e-06
2	0	0	1	0	1	76.7143	0.382825	0.382394	-0.00489147	4	2.64482e-05	13	0	6.6921	-1.87047e-06
2	0	0	1	0	1	77.1138	0.378831	0.378368	-0.00263024	4	2.49655e-05	13	0	7.0916	-9.95198e-07
2	0	0	1	0	1	77.5133	0.374835	0.374374	-0.00536359	4	2.34509e-05	13	0	7.4911	-2.00799e-06
2	0	0	1	0	1	77.9129	0.370839	0.370375	-0.00276625	4	2.19087e-05	13	0	7.8907	-1.02455e-06
2	0	0	1	0	1	78.3124	0.366844	0.366351	-0.0056472	4	2.03323e-05	13	0	8.2902	-2.06886e-06
2	0	0	1	0	1	78.7119	0.362849	0.362362	-0.00290912	4	1.87281e-05	13	0	8.6897	-1.05415e-06
2	0	0	1	0	1	79.1115	0.358854	0.358361	-0.00590099	4	1.70886e-05	13	0	9.0893	-2.11468e-06
2	0	0	1	0	1	79.511	0.354857	0.354389	-0.00303797	4	1.54186e-05	13	0	9.4888	-1.07662e-06
2	0	0	1	0	1	79.9105	0.350863	0.350411	-0.00613067	4	1.37115e-05	13	0	9.8883	-2.14825e-06
2	1	0	1	0	0	80.1768	0.351813	0.351405	0.0023163	5	1.39077e-05	13	0	0.1499	8.13961e-07
2	1	0	1	0	0	80.5763	0.355807	0.355409	0.0052465	5	1.53558e-05	13	0	0.5494	1.86465e-06
2	1	0	1	0	0	80.9759	0.359802	0.359386	0.00287783	5	1.68649e-05	13	0	0.949	1.03425e-06
2	1	0	1	0	0	81.3753	0.363798	0.363408	0.0051008	5	1.83926e-05	13	0	1.3484	1.85367e-06
2	1	0	1	0	0	81.7749	0.367793	0.367388	0.00339129	5	1.99251e-05	13	0	1.748	1.24592e-06
2	1	0	1	0	0	82.1744	0.371788	0.371413	0.00462854	5	2.14529e-05	13	0	2.1475	1.7191e-06
2	1	0	1	0	0	82.5739	0.375783	0.375368	0.00346182	5	2.29716e-05	13	0	2.547	1.29945e-06
2	1	0	1	0	0	82.9735	0.379779	0.379364	0.00437134	5	2.44759e-05	13	0	2.9466	1.65833e-06
2	1	0	1	0	0	83.373	0.383774	0.38331	0.00334343	5	2.59703e-05	13	0	3.3461	1.28157e-06
2	1	0	1	0	0	83.7725	0.387769	0.387347	0.00425285	5	2.745e-05	13	0	3.7456	1.64733e-06
2	1	0	1	0	0	84.1721	0.391764	0.391358	0.00343956	5	2.89202e-05	13	0	4.1452	1.3461e-06
2	1	0	1	0	0	84.5715	0.39576	0.395357	0.00397791	5	3.03748e-05	13	0	4.5446	1.5727e-06
2	1	0	1	0	0	84.9711	0.399755	0.399345	0.00349318	5	3.18138e-05	13	0	4.9442	1.39499e-06
2	1	0	1	0	0	85.3706	0.40375	0.403357	0.00383455	5	3.3238e-05	13	0	5.3437	1.54669e-06
2	0	0	1	0	0	85.7701	0.407746	0.407286	0.00330741	5	3.46441e-05	13	0	5.7432	1.34706e-06
2	1	0	1	0	0	86.1697	0.411741	0.411309	0.00332389	5	3.60335e-05	13	0	6.1428	1.36714e-06
2	0	0	1	0	0	86.5692	0.415736	0.415292	0.00378605	5	3.74206e-05	13	0	6.5423	1.57232e-06
2	1	0	1	0	0	86.9687	0.419731	0.419298	0.00298196	5	3.87903e-05	13	0	6.9418	1.25033e-06
2	0	0	1	0	0	87.3683	0.423727	0.423267	0.003827	5	4.01518e-05	13	0	7.3414	1.61984e-06
2	1	0	1	0	0	87.7678	0.427723	0.427283	0.00287409	5	4.14997e-05	13	0	7.7409	1.22805e-06
2	0	0	1	0	0	88.1673	0.431717	0.431262	0.0038621	5	4.28368e-05	13	0	8.1404	1.66558e-06
2	1	0	1	0	0	88.5669	0.435712	0.435247	0.00256896	5	4.4159e-05	13	0	8.54	1.11813e-06
2	0	0	1	0	0	88.9663	0.439708	0.439295	0.00395624	5	4.54735e-05	13	0	8.9394	1.73796e-06
2	1	0	1	0	0	89.3659	0.443703	0.443258	0.00234066	5	4.678e-05	13	0	9.339	1.03752e-06
2	0	0	1	0	0	89.7654	0.447698	0.447257	0.00405886	5	4.80819e-05	13	0	9.7385	1.81535e-06
2	1	0	1	0	0	90.0707	0.449246	0.44872	-0.00241672	5	4.86951e-05	13	0	0.0499	-1.08443e-06
2	0	0	1	0	0	90.4703	0.445251	0.444745	-0.00184985	5	4.77762e-05	13	0	0.4495	-8.22711e-07
2	1	0	1	0	0	90.8698	0.441256	0.44082	-0.00316088	5	4.67566e-05	13	0	0.849	-1.39338e-06
2	0	0	1	0	0	91.2693	0.437261	0.436813	-0.00191542	5	4.56857e-05	13	0	1.2485	-8.3668e-07
2	1	0	1	0	0	91.6689	0.433265	0.432786	-0.00362897	5	4.45792e-05	13	0	1.6481	-1.57057e-06
2	0	0	1	0	0	92.0684	0.42927	0.428814	-0.00179151	5	4.34345e-05	13	0	2.0476	-7.68224e-07
2	0	0	1	0	0	92.4679	0.425275	0.424832	-0.00404177	5	4.22565e-05	13	0	2.4471	-1.71707e-06
2	0	0	1	0	0	92.8675	0.42128	0.420778	-0.00186215	5	4.10529e-05	13	0	2.8467	-7.83552e-07
2	0	0	1	0	0	93.267	0.417283	0.416808	-0.00422706	5	3.9823e-05	13	0	3.2462	-1.76187e-06
2	0	0	1	0	0	93.6665	0.413289	0.412812	-0.00207381	5	3.85683e-05	13	0	3.6457	-8.56095e-07
2	0	0	1	0	0	94.0661	0.409294	0.408805	-0.004415	5	3.72885e-05	13	0	4.0453	-1.80487e-06
2	0	0	1	0	0	94.4655	0.405298	0.404831	-0.00217891	5	3.59926e-05	13	0	4.4447	-8.82092e-07
2	0	0	1	0	0	94.8651	0.401303	0.400864	-0.00457957	5	3.46634e-05	13	0	4.8443	-1.83578e-06
2	0	0	1	0	0	95.2646	0.397308	0.396867	-0.00258587	5	3.33097e-05	13	0	5.2438	-1.02624e-06
2	0	0	1	0	0	95.6641	0.393313	0.392863	-0.00448131	5	3.19264e-05	13	0	5.6433	-1.76054e-06
2	0	0	1	0	0	96.0637	0.389317	0.388894	-0.00260883	5	3.05214e-05	13	0	6.0429	-1.01456e-06
2	0	0	1	0	0	96.4632	0.385322	0.384857	-0.00498258	5	2.90871e-05	13	0	6.4424	-1.91758e-06
2	0	0	1	0	0	96.8627	0.381327	0.380884	-0.00261404	5	2.76274e-05	13	0	6.8419	-9.95646e-07
2	0	0	1	0	0	97.2623	0.377332	0.376883	-0.00532462	5	2.61401e-05	13	0	7.2415	-2.00676e-06
2	0	0	1	0	0	97.6617	0.373336	0.372906	-0.00268225	5	2.462e-05	13	0	7.6409	-1.00023e-06
2	0	0	1	0	0	98.0613	0.369341	0.368876	-0.00541615	5	2.30713e-05	13	0	8.0405	-1.99789e-06
2	0	0	1	0	0	98.4608	0.365347	0.364884	-0.00317651	5	2.14907e-05	13	0	8.44	-1.15906e-06
2	0	0	1	0	0	98.8603	0.361351	0.360889	-0.00532148	5	1.98774e-05	13	0	8.8395	-1.92047e-06
2	0	0	1	0	0	99.2599	0.357355	0.356864	-0.00343265	5	1.823e-05	13	0	9.2391	-1.22499e-06
2	0	0	1	0	0	99.6594	0.35336	0.352879	-0.00546396	5	1.6557e-05	13	0	9.6386	-1.92812e-06
2	0	0	1	0	0	99.993	0.349989	0.349667	-0.00927872	5	1.51562e-05	13	0	9.9722	-3.24446e-06
2	1	0	1	0	1	100.325	0.35331	0.352909	0.0048257	6	1.62138e-05	13	0	0.2997	1.70303e-06
2	1	0	1	0	1	100.725	0.357305	0.356866	0.003099	6	1.76842e-05	13	0	0.6992	1.10593e-06
2	1	0	1	0	1	101.124	0.361301	0.36086	0.00492789	6	1.91948e-05	13	0	1.0988	1.77828e-06
2	1	0	1	0	1	101.524	0.365297	0.364856	0.00335398	6	2.07204e-05	13	0	1.4983	1.22372e-06
2	1	0	1	0	1	101.923	0.369291	0.368854	0.00464969	6	2.22374e-05	13	0	1.8978	1.71506e-06
2	1	0	1	0	1	102.323	0.373286	0.372859	0.00346974	6	2.37517e-05	13	0	2.2974	1.29372e-06
2	1	0	1	0	1	102.722	0.377282	0.376884	0.00466047	6	2.52539e-05	13	0	2.6968	1.75646e-06
2	1	0	1	0	1	103.122	0.381277	0.38081	0.00329795	6	2.67444e-05	13	0	3.0964	1.25589e-06
2	1	0	1	0	1	103.521	0.385272	0.384852	0.00459856	6	2.82193e-05	13	0	3.4959	1.76976e-06
2	1	0	1	0	1	103.921	0.389267	0.388829	0.00318843	6	2.96845e-05	13	0	3.8954	1.23975e-06
2	1	0	1	0	1	104.32	0.393263	0.392852	0.00448388	6	3.11344e-05	13	0	4.295	1.7615e-06
2	1	0	1	0	1	104.72	0.397258	0.396815	0.00360096	6	3.25766e-05	13	0	4.6945	1.42891e-06
2	1	0	1	0	1	105.119	0.401253	0.400837	0.00366523	6	3.39974e-05	13	0	5.094	1.46916e-06
2	1	0	1	0	1	105.519	0.405248	0.404852	0.00426164	6	3.54071e-05	13	0	5.4936	1.72533e-06
2	1	0	1	0	1	105.918	0.409244	0.408811	0.00289511	6	3.67935e-05	13	0	5.893	1.18355e-06
2	1	0	1	0	1	106.318	0.413239	0.412816	0.00477475	6	3.81744e-05	13	0	6.2926	1.97109e-06
2	1	0	1	0	1	106.718	0.417233	0.416801	0.00243188	6	3.95439e-05	13	0	6.6921	1.01361e-06
2	1	0	1	0	1	107.117	0.42123	0.420826	0.00473998	6	4.08997e-05	13	0	7.0916	1.99471e-06
2	1	0	1	0	1	107.517	0.425225	0.424801	0.00262725	6	4.22444e-05	13	0	7.4912	1.11606e-06
2	1	0	1	0	1	107.916	0.42922	0.42878	0.00429668	6	4.35773e-05	13	0	7.8907	1.84233e-06
2	1	0	1	0	1	108.316	0.433215	0.432782	0.0029614	6	4.49002e-05	13	0	8.2902	1.28164e-06
2	1	0	1	0	1	108.715	0.437211	0.436788	0.00373173	6	4.62101e-05	13	0	8.6898	1.62997e-06
2	1	0	1	0	1	109.115	0.441207	0.44078	0.0033982	6	4.75153e-05	13	0	9.0893	1.49786e-06
2	1	0	1	0	1	109.514	0.445201	0.444763	0.00349816	6	4.88079e-05	13	0	9.4888	1.55585e-06
2	1	0	1	0	1	109.914	0.449196	0.448752	0.00333012	6	5.00927e-05	13	0	9.8884	1.4944e-06
2	1	0	1	0	1	110.219	0.447748	0.44725	-0.00174157	6	4.98914e-05	13	0	0.1998	-7.78916e-07
2	0	0	1	0	1	110.619	0.443753	0.443315	-0.00272107	6	4.89201e-05	13	0	0.5993	-1.20629e-06
2	1	0	1	0	1	111.018	0.439758	0.439271	-0.00254347	6	4.78793e-05	13	0	0.9989	-1.11727e-06
2	0	0	1	0	1	111.418	0.435762	0.435289	-0.00249269	6	4.67974e-05	13	0	1.3983	-1.08504e-06
2	1	0	1	0	1	111.817	0.431767	0.431303	-0.003201	6	4.56765e-05	13	0	1.7979	-1.3806e-06
2	0	0	1	0	1	112.217	0.427772	0.427306	-0.00211224	6	4.45275e-05	13	0	2.1974	-9.02571e-07
2	1	0	1	0	1	112.616	0.423777	0.423282	-0.00386458	6	4.33473e-05	13	0	2.5969	-1.63581e-06
2	0	0	1	0	1	113.016	0.419781	0.419284	-0.00180119	6	4.21414e-05	13	0	2.9965	-7.55208e-07
2	0	0	1	0	1	113.415	0.415786	0.415319	-0.00418601	6	4.09083e-05	13	0	3.396	-1.73853e-06
2	1	0	1	0	1	113.815	0.411791	0.411269	-0.00183507	6	3.96475e-05	13	0	3.7955	-7.54708e-07
2	0	0	1	0	1	114.214	0.407795	0.407355	-0.00416985	6	3.83682e-05	13	0	4.1951	-1.69861e-06
2	1	0	1	0	1	114.614	0.4038	0.403349	-0.00214591	6	3.70649e-05	13	0	4.5946	-8.6555e-07
2	0	0	1	0	1	115.013	0.399805	0.399325	-0.00393468	6	3.57297e-05	13	0	4.9941	-1.57122e-06
2	1	0	1	0	1	115.413	0.39581	0.395366	-0.0028673	6	3.43668e-05	13	0	5.3937	-1.13363e-06
2	0	0	1	0	1	115.812	0.391814	0.391391	-0.00343246	6	3.29814e-05	13	0	5.7931	-1.34344e-06
2	1	0	1	0	1	116.212	0.387819	0.38741	-0.00360237	6	3.15666e-05	13	0	6.1927	-1.39559e-06
2	0	0	1	0	1	116.612	0.383824	0.383384	-0.00293092	6	3.01295e-05	13	0	6.5922	-1.12367e-06
2	1	0	1	0	1	117.011	0.379829	0.379354	-0.00425503	6	2.86606e-05	13	0	6.9917	-1.61416e-06
2	0	0	1	0	1	117.411	0.375833	0.375352	-0.00249152	6	2.71677e-05	13	0	7.3913	-9.35196e-07
2	1	0	1	0	1	117.81	0.371838	0.371372	-0.00476353	6	2.56417e-05	13	0	7.7908	-1.76904e-06
2	0	0	1	0	1	118.21	0.367843	0.367353	-0.00249503	6	2.40867e-05	13	0	8.1903	-9.16556e-07
2	1	0	1	0	1	118.609	0.363848	0.363412	-0.00514251	6	2.24996e-05	13	0	8.5899	-1.86885e-06
2	1	0	1	0	1	119.009	0.359852	0.359389	-0.00244594	6	2.08808e-05	13	0	8.9893	-8.79045e-07
2	1	0	1	0	1	119.408	0.355857	0.3554	-0.00540593	6	1.92307e-05	13	0	9.3889	-1.92127e-06
2	1	0	1	0	1	119.808	0.351863	0.351412	-0.00253419	6	1.75432e-05	13	0	9.7884	-8.90544e-07
2	1	0	1	0	0	120.074	0.350813	0.350391	0.00468108	7	1.69719e-05	13	0	0.05	1.64021e-06
2	1	0	1	0	0	120.474	0.354807	0.354361	0.00232005	7	1.83698e-05	13	0	0.4495	8.22134e-07
2	1	0	1	0	0	120.873	0.358804	0.358382	0.00508005	7	1.98547e-05	13	0	0.849	1.8206e-06
2	1	0	1	0	0	121.273	0.362799	0.362365	0.0028257	7	2.13682e-05	13	0	1.2486	1.02393e-06
2	1	0	1	0	0	121.672	0.366794	0.366379	0.0048156	7	2.2885e-05	13	0	1.6481	1.76434e-06
2	1	0	1	0	0	122.072	0.370789	0.370316	0.00306062	7	2.44024e-05	13	0	2.0476	1.13339e-06
2	1	0	1	0	0	122.471	0.374785	0.374361	0.00446034	7	2.59036e-05	13	0	2.4472	1.66978e-06
2	1	0	1	0	0	122.871	0.378781	0.378363	0.00333315	7	2.74003e-05	13	0	2.8467	1.26114e-06
2	1	0	1	0	0	123.27	0.382775	0.38235	0.00407633	7	2.88775e-05	13	0	3.2462	1.55859e-06
2	1	0	1	0	0	123.67	0.38677	0.386326	0.00379584	7	3.03469e-05	13	0	3.6458	1.46643e-06
2	1	0	1	0	0	124.069	0.390766	0.390314	0.00345594	7	3.18011e-05	13	0	4.0452	1.3489e-06
2	1	0	1	0	0	124.469	0.394761	0.394305	0.00433965	7	3.32434e-05	13	0	4.4448	1.71115e-06
2	1	0	1	0	0	124.868	0.398756	0.398331	0.00285975	7	3.46672e-05	13	0	4.8443	1.13913e-06
2	1	0	1	0	0	125.268	0.402751	0.402386	0.00475141	7	3.60802e-05	13	0	5.2438	1.9119e-06
2	1	0	1	0	0	125.667	0.406747	0.406345	0.00248705	7	3.7476e-05	13	0	5.6434	1.0106e-06
2	1	0	1	0	0	126.067	0.410742	0.410305	0.00480545	7	3.88511e-05	13	0	6.0429	1.9717e-06
2	1	0	1	0	0	126.466	0.414737	0.414264	0.00242584	7	4.02234e-05	13	0	6.4424	1.00494e-06
2	1	0	1	0	0	126.866	0.418732	0.418321	0.00467191	7	4.15789e-05	13	0	6.842	1.95436e-06
2	1	0	1	0	0	127.266	0.422729	0.422319	0.00255646	7	4.29263e-05	13	0	7.2415	1.07964e-06
2	1	0	1	0	0	127.665	0.426723	0.426273	0.00419005	7	4.42581e-05	13	0	7.641	1.78611e-06
2	1	0	1	0	0	128.065	0.430717	0.430269	0.00312372	7	4.55805e-05	13	0	8.0405	1.34404e-06
2	1	0	1	0	0	128.464	0.434714	0.434257	0.00368966	7	4.68885e-05	13	0	8.44	1.60226e-06
2	1	0	1	0	0	128.864	0.438709	0.438254	0.00352414	7	4.81897e-05	13	0	8.8396	1.54447e-06
2	1	0	1	0	0	129.263	0.442704	0.442308	0.00304574	7	4.94799e-05	13	0	9.2391	1.34716e-06
2	1	0	1	0	0	129.663	0.446699	0.446241	0.00400789	7	5.07636e-05	13	0	9.6386	1.78849e-06
2	0	0	1	0	0	129.991	0.450021	0.449554	-0.000253399	7	5.1787e-05	13	0	0.000000000000000E+000	-1.13917e-07
2	0	0	1	0	0	130.368	0.44625	0.445749	-0.00204461	7	5.09938e-05	13	0	0.377	-9.11383e-07
2	0	0	1	0	0	130.767	0.442255	0.44175	-0.00337491	7	4.99922e-05	13	0	0.7765	-1.49087e-06
2	0	0	1	0	0	131.167	0.438259	0.437744	-0.00197344	7	4.89351e-05	13	0	1.1761	-8.6386e-07
2	0	0	1	0	0	131.566	0.434264	0.433779	-0.00387611	7	4.7837e-05	13	0	1.5756	-1.68137e-06
2	0	0	1	0	0	131.966	0.430269	0.429761	-0.00187092	7	4.67067e-05	13	0	1.9751	-8.0405e-07
2	0	0	1	0	0	132.365	0.426274	0.425818	-0.00415421	7	4.55469e-05	13	0	2.3747	-1.76894e-06
2	0	0	1	0	0	132.765	0.422278	0.421793	-0.00190924	7	4.43598e-05	13	0	2.7741	-8.05304e-07
2	0	0	1	0	0	133.164	0.418283	0.417784	-0.00424411	7	4.31446e-05	13	0	3.1737	-1.77312e-06
2	0	0	1	0	0	133.564	0.414288	0.41382	-0.00205218	7	4.19039e-05	13	0	3.5732	-8.49233e-07
2	0	0	1	0	0	133.963	0.410293	0.409779	-0.00430555	7	4.06418e-05	13	0	3.9727	-1.76433e-06
2	0	0	1	0	0	134.363	0.406297	0.405835	-0.00203181	7	3.93611e-05	13	0	4.3723	-8.24578e-07
2	0	0	1	0	0	134.762	0.402302	0.401851	-0.00450368	7	3.80492e-05	13	0	4.7718	-1.80981e-06
2	0	0	1	0	0	135.162	0.398307	0.39785	-0.00214899	7	3.67081e-05	13	0	5.1713	-8.54975e-07
2	0	0	1	0	0	135.561	0.394311	0.393818	-0.00453862	7	3.53438e-05	13	0	5.5709	-1.78739e-06
2	0	0	1	0	0	135.961	0.390316	0.38986	-0.00229577	7	3.39554e-05	13	0	5.9704	-8.95028e-07
2	0	0	1	0	0	136.36	0.386321	0.385823	-0.00462339	7	3.2537e-05	13	0	6.3699	-1.78381e-06
2	0	0	1	0	0	136.76	0.382326	0.381879	-0.00230134	7	3.10959e-05	13	0	6.7695	-8.78834e-07
2	1	0	1	0	0	137.159	0.37833	0.377854	-0.00477532	7	2.9628e-05	13	0	7.1689	-1.80437e-06
2	0	0	1	0	0	137.559	0.374335	0.373897	-0.00259972	7	2.81261e-05	13	0	7.5685	-9.72026e-07
2	1	0	1	0	0	137.959	0.37034	0.369901	-0.00453163	7	2.65954e-05	13	0	7.968	-1.67625e-06
2	0	0	1	0	0	138.358	0.366345	0.365894	-0.00325063	7	2.5032e-05	13	0	8.3675	-1.18939e-06
2	1	0	1	0	0	138.758	0.362349	0.361851	-0.00455038	7	2.34369e-05	13	0	8.7671	-1.64656e-06
2	0	0	1	0	0	139.157	0.358354	0.357894	-0.00332051	7	2.18101e-05	13	0	9.1666	-1.18839e-06
2	1	0	1	0	0	139.557	0.354359	0.353905	-0.00439025	7	2.01517e-05	13	0	9.5661	-1.55373e-06
2	0	0	1	0	0	139.956	0.350364	0.349919	-0.00381972	7	1.84555e-05	13	0	9.9657	-1.33659e-06
2	0	0	1	0	1	140.222	0.352311	0.351916	0.00350822	8	1.90226e-05	13	0	0.2273	1.2346e-06
2	1	0	1	0	1	140.622	0.356307	0.355875	0.00312925	8	2.04611e-05	13	0	0.6269	1.11362e-06
2	0	0	1	0	1	141.021	0.360302	0.359875	0.00411858	8	2.19543e-05	13	0	1.0263	1.48217e-06
2	1	0	1	0	1	141.421	0.364297	0.363881	0.00315602	8	2.34616e-05	13	0	1.4259	1.14842e-06
2	0	0	1	0	1	141.821	0.368291	0.36784	0.00430828	8	2.4969e-05	13	0	1.8254	1.58476e-06
2	1	0	1	0	1	142.22	0.372288	0.371883	0.00325664	8	2.64717e-05	13	0	2.2249	1.21109e-06
2	0	0	1	0	1	142.62	0.376283	0.375866	0.00390816	8	2.79647e-05	13	0	2.6245	1.46894e-06
2	1	0	1	0	1	143.019	0.380278	0.379855	0.00366506	8	2.94438e-05	13	0	3.024	1.39219e-06
2	0	0	1	0	1	143.419	0.384273	0.383822	0.00341	8	3.09111e-05	13	0	3.4235	1.30883e-06
2	1	0	1	0	1	143.818	0.388269	0.387813	0.00420214	8	3.23637e-05	13	0	3.8231	1.62965e-06
2	1	0	1	0	1	144.218	0.392265	0.391839	0.0029061	8	3.3805e-05	13	0	4.2226	1.13872e-06
2	1	0	1	0	1	144.617	0.396259	0.395867	0.00428681	8	3.52305e-05	13	0	4.6221	1.69701e-06
2	1	0	1	0	1	145.017	0.400254	0.399826	0.00301502	8	3.66447e-05	13	0	5.0217	1.20548e-06
2	1	0	1	0	1	145.416	0.40425	0.403838	0.00416738	8	3.8042e-05	13	0	5.4211	1.68295e-06
2	1	0	1	0	1	145.816	0.408245	0.407776	0.00292406	8	3.94191e-05	13	0	5.8207	1.19236e-06
2	1	0	1	0	1	146.215	0.41224	0.411825	0.00421737	8	4.07873e-05	13	0	6.2202	1.73682e-06
2	1	0	1	0	1	146.615	0.416236	0.415789	0.00294918	8	4.2148e-05	13	0	6.6197	1.22624e-06
2	1	0	1	0	1	147.014	0.420231	0.419798	0.00411307	8	4.34939e-05	13	0	7.0193	1.72666e-06
2	1	0	1	0	1	147.414	0.424226	0.423785	0.00290995	8	4.48282e-05	13	0	7.4188	1.23319e-06
2	1	0	1	0	1	147.813	0.428221	0.427785	0.004171	8	4.61514e-05	13	0	7.8183	1.78429e-06
2	1	0	1	0	1	148.213	0.432217	0.431787	0.00280445	8	4.74623e-05	13	0	8.2179	1.21092e-06
2	1	0	1	0	1	148.613	0.436213	0.435774	0.00413309	8	4.876e-05	13	0	8.6174	1.80109e-06
2	1	0	1	0	1	149.012	0.440207	0.439761	0.00281059	8	5.00521e-05	13	0	9.0169	1.23599e-06
2	1	0	1	0	1	149.412	0.444202	0.443754	0.00423457	8	5.13319e-05	13	0	9.4165	1.87911e-06
2	1	0	1	0	1	149.811	0.448198	0.447755	0.00260896	8	5.26033e-05	13	0	9.8159	1.16817e-06
2	0	0	1	0	1	150.116	0.448747	0.448287	-0.00119787	8	5.29276e-05	13	0	0.0999	-5.36987e-07
2	0	0	1	0	1	150.516	0.444752	0.444285	-0.00357091	8	5.19875e-05	13	0	0.4995	-1.5865e-06
2	0	0	1	0	1	150.915	0.440756	0.440258	-0.00167352	8	5.0965e-05	13	0	0.8989	-7.36778e-07
2	0	0	1	0	1	151.315	0.436761	0.436276	-0.00371448	8	4.98914e-05	13	0	1.2985	-1.62054e-06
2	0	0	1	0	1	151.715	0.432766	0.4323	-0.00185204	8	4.87842e-05	13	0	1.698	-8.00636e-07
2	0	0	1	0	1	152.114	0.428771	0.428278	-0.0037396	8	4.76465e-05	13	0	2.0975	-1.60159e-06
2	1	0	1	0	1	152.514	0.424775	0.424327	-0.00195206	8	4.64758e-05	13	0	2.4971	-8.28312e-07
2	0	0	1	0	1	152.913	0.42078	0.4203	-0.00364799	8	4.52814e-05	13	0	2.8966	-1.53325e-06
2	1	0	1	0	1	153.313	0.416785	0.416308	-0.0020765	8	4.40591e-05	13	0	3.2961	-8.64464e-07
2	0	0	1	0	1	153.712	0.41279	0.412321	-0.00394159	8	4.28107e-05	13	0	3.6957	-1.6252e-06
2	1	0	1	0	1	154.112	0.408794	0.408294	-0.00188862	8	4.15399e-05	13	0	4.0951	-7.71113e-07
2	1	0	1	0	1	154.511	0.404799	0.404332	-0.00425149	8	4.02532e-05	13	0	4.4947	-1.71901e-06
2	1	0	1	0	1	154.911	0.400805	0.400345	-0.00187674	8	3.89359e-05	13	0	4.8942	-7.51343e-07
2	1	0	1	0	1	155.31	0.396808	0.39632	-0.00443648	8	3.75916e-05	13	0	5.2937	-1.75827e-06
2	1	0	1	0	1	155.71	0.392813	0.392328	-0.00198468	8	3.62196e-05	13	0	5.6933	-7.78646e-07
2	1	0	1	0	1	156.109	0.388818	0.388366	-0.00466805	8	3.48225e-05	13	0	6.0928	-1.81291e-06
2	0	0	1	0	1	156.509	0.384823	0.384369	-0.00219203	8	3.3399e-05	13	0	6.4923	-8.42548e-07
2	0	0	1	0	1	156.908	0.380827	0.380366	-0.00466276	8	3.19473e-05	13	0	6.8919	-1.77355e-06
2	0	0	1	0	1	157.308	0.376832	0.376374	-0.00267014	8	3.04677e-05	13	0	7.2914	-1.00497e-06
2	0	0	1	0	1	157.707	0.372837	0.372384	-0.00467972	8	2.89549e-05	13	0	7.6909	-1.74266e-06
2	0	0	1	0	1	158.107	0.368842	0.368393	-0.00268784	8	2.74184e-05	13	0	8.0905	-9.90183e-07
2	0	0	1	0	1	158.506	0.364846	0.364412	-0.00505428	8	2.58497e-05	13	0	8.4899	-1.84184e-06
2	0	0	1	0	1	158.906	0.360851	0.360349	-0.00291978	8	2.42448e-05	13	0	8.8895	-1.05214e-06
2	0	0	1	0	1	159.306	0.356856	0.35642	-0.00540559	8	2.26094e-05	13	0	9.289	-1.92666e-06
2	0	0	1	0	1	159.705	0.352861	0.352384	-0.00304757	8	2.09448e-05	13	0	9.6885	-1.07391e-06
2	1	0	0	0	0	159.994	0.350039	0.349629	0.00143267	9	1.97753e-05	13	0	0.000000000000000E+000	5.00901e-07
2	1	0	1	0	0	160.371	0.353809	0.353399	0.0026908	9	2.09891e-05	13	0	0.3771	9.50926e-07
2	1	0	1	0	0	160.77	0.357805	0.357351	0.0050766	9	2.24481e-05	13	0	0.7767	1.81413e-06
2	1	0	1	0	0	161.17	0.3618	0.361343	0.00277204	9	2.39407e-05	13	0	1.1762	1.00166e-06
2	1	0	1	0	0	161.569	0.365795	0.365387	0.00518613	9	2.54435e-05	13	0	1.5757	1.89495e-06
2	1	0	1	0	0	161.969	0.369791	0.369394	0.00264935	9	2.69413e-05	13	0	1.9753	9.78652e-07
2	1	0	1	0	0	162.368	0.373786	0.373337	0.00522516	9	2.8432e-05	13	0	2.3747	1.95075e-06
2	1	0	1	0	0	162.768	0.377781	0.377353	0.00254088	9	2.99144e-05	13	0	2.7743	9.5881e-07
2	1	0	1	0	0	163.168	0.381775	0.38138	0.00513151	9	3.13823e-05	13	0	3.1738	1.95706e-06
2	1	0	1	0	0	163.567	0.385772	0.385334	0.00245719	9	3.2835e-05	13	0	3.5733	9.4684e-07
2	1	0	1	0	0	163.967	0.389767	0.389362	0.00493715	9	3.42772e-05	13	0	3.9729	1.92234e-06
2	1	0	1	0	0	164.366	0.393762	0.393334	0.00250768	9	3.57054e-05	13	0	4.3724	9.86356e-07
2	1	0	1	0	0	164.766	0.397757	0.397346	0.00470313	9	3.71192e-05	13	0	4.7719	1.86877e-06
2	1	0	1	0	0	165.165	0.401753	0.40131	0.00236709	9	3.85203e-05	13	0	5.1715	9.49936e-07
2	1	0	1	0	0	165.565	0.405749	0.405336	0.00459635	9	3.99059e-05	13	0	5.571	1.86307e-06
2	1	0	1	0	0	165.964	0.409743	0.409277	0.00226792	9	4.12711e-05	13	0	5.9705	9.28206e-07
2	1	0	1	0	0	166.364	0.413738	0.413263	0.00445598	9	4.26305e-05	13	0	6.3701	1.84149e-06
2	0	0	1	0	0	166.763	0.417734	0.417301	0.00211137	9	4.39765e-05	13	0	6.7695	8.81077e-07
2	1	0	1	0	0	167.163	0.421729	0.421269	0.0043126	9	4.53123e-05	13	0	7.1691	1.81676e-06
2	0	0	1	0	0	167.562	0.425724	0.425292	0.00200141	9	4.66374e-05	13	0	7.5686	8.51183e-07
2	1	0	1	0	0	167.962	0.429719	0.429271	0.00417168	9	4.79507e-05	13	0	7.9681	1.79078e-06
2	0	0	1	0	0	168.361	0.433715	0.433248	0.00194495	9	4.925e-05	13	0	8.3677	8.42646e-07
2	1	0	1	0	0	168.761	0.43771	0.437239	0.00413833	9	5.05409e-05	13	0	8.7672	1.80944e-06
2	0	0	1	0	0	169.16	0.441705	0.441265	0.00191886	9	5.18255e-05	13	0	9.1667	8.46726e-07
2	1	0	1	0	0	169.56	0.445701	0.445299	0.00401785	9	5.30963e-05	13	0	9.5663	1.78915e-06
2	1	0	1	0	0	169.96	0.449697	0.449217	0.00191794	9	5.43613e-05	13	0	9.9658	8.61571e-07
2	0	0	1	0	0	170.265	0.447249	0.446731	-0.0014111	9	5.38763e-05	13	0	0.2497	-6.30383e-07
2	0	0	1	0	0	170.664	0.443253	0.442778	-0.00370851	9	5.2898e-05	13	0	0.6493	-1.64204e-06
2	0	0	1	0	0	171.064	0.439258	0.438752	-0.00174841	9	5.18574e-05	13	0	1.0488	-7.67117e-07
2	0	0	1	0	0	171.463	0.435263	0.434775	-0.00405083	9	5.07733e-05	13	0	1.4483	-1.7612e-06
2	0	0	1	0	0	171.863	0.431268	0.430822	-0.00204457	9	4.96547e-05	13	0	1.8479	-8.80847e-07
2	0	0	1	0	0	172.262	0.427272	0.426819	-0.00398628	9	4.85067e-05	13	0	2.2473	-1.70142e-06
2	0	0	1	0	0	172.662	0.423277	0.422813	-0.00252241	9	4.73317e-05	13	0	2.6469	-1.06651e-06
2	0	0	1	0	0	173.062	0.419282	0.41877	-0.00393474	9	4.61274e-05	13	0	3.0464	-1.64775e-06
2	0	0	1	0	0	173.461	0.415287	0.414821	-0.00275143	9	4.49003e-05	13	0	3.4459	-1.14135e-06
2	0	0	1	0	0	173.861	0.411291	0.410817	-0.00406422	9	4.36431e-05	13	0	3.8455	-1.66965e-06
2	0	0	1	0	0	174.26	0.407296	0.406836	-0.00266066	9	4.23773e-05	13	0	4.245	-1.08245e-06
2	0	0	1	0	0	174.66	0.403301	0.402828	-0.0044044	9	4.1075e-05	13	0	4.6445	-1.77421e-06
2	0	0	1	0	0	175.059	0.399306	0.398812	-0.0024299	9	3.97479e-05	13	0	5.0441	-9.69074e-07
2	0	0	1	0	0	175.459	0.395309	0.394881	-0.00444039	9	3.83966e-05	13	0	5.4436	-1.75342e-06
2	0	0	1	0	0	175.858	0.391315	0.390885	-0.00276375	9	3.70202e-05	13	0	5.8431	-1.08031e-06
2	0	0	1	0	0	176.258	0.387321	0.38687	-0.00428713	9	3.56159e-05	13	0	6.2426	-1.65856e-06
2	0	0	1	0	0	176.657	0.383325	0.38287	-0.00276674	9	3.4187e-05	13	0	6.6421	-1.0593e-06
2	1	0	1	0	0	177.057	0.379329	0.378861	-0.00442038	9	3.27307e-05	13	0	7.0417	-1.67471e-06
2	0	0	1	0	0	177.456	0.375334	0.374873	-0.00274504	9	3.12465e-05	13	0	7.4412	-1.02904e-06
2	1	0	1	0	0	177.856	0.371339	0.370835	-0.00450444	9	2.97293e-05	13	0	7.8407	-1.6704e-06
2	0	0	1	0	0	178.255	0.367343	0.36685	-0.00299593	9	2.81816e-05	13	0	8.2403	-1.09906e-06
2	1	0	1	0	0	178.655	0.363347	0.362866	-0.00464412	9	2.66021e-05	13	0	8.6398	-1.68519e-06
2	0	0	1	0	0	179.054	0.359353	0.358879	-0.00289436	9	2.49934e-05	13	0	9.0393	-1.03873e-06
2	1	0	1	0	0	179.454	0.355358	0.354952	-0.00492496	9	2.335e-05	13	0	9.4389	-1.74813e-06
2	0	0	1	0	0	179.853	0.351362	0.350931	-0.00284828	9	2.16719e-05	13	0	9.8383	-9.9955e-07
2	1	0	1	0	1	180.12	0.351312	0.350927	0.00454293	10	2.14788e-05	13	0	0.1	1.59424e-06
2	1	0	1	0	1	180.519	0.355308	0.354913	0.0023734	10	2.28843e-05	13	0	0.4994	8.42351e-07
2	1	0	1	0	1	180.919	0.359303	0.358875	0.00509019	10	2.43573e-05	13	0	0.899	1.82674e-06
2	1	0	1	0	1	181.318	0.363298	0.36289	0.00270699	10	2.58511e-05	13	0	1.2985	9.8234e-07
2	1	0	1	0	1	181.718	0.367293	0.366874	0.00493553	10	2.73482e-05	13	0	1.698	1.81072e-06
2	1	0	1	0	1	182.117	0.371289	0.370839	0.00280067	10	2.88429e-05	13	0	2.0976	1.0386e-06
2	1	0	1	0	1	182.517	0.375284	0.374853	0.00494646	10	3.03262e-05	13	0	2.4971	1.8542e-06
2	1	0	1	0	1	182.916	0.379279	0.378884	0.00295762	10	3.17975e-05	13	0	2.8966	1.1206e-06
2	1	0	1	0	1	183.316	0.383275	0.382877	0.00465747	10	3.32555e-05	13	0	3.2962	1.78324e-06
2	1	0	1	0	1	183.716	0.387271	0.386823	0.00300935	10	3.47009e-05	13	0	3.6957	1.16409e-06
2	1	0	1	0	1	184.115	0.391265	0.39081	0.00468481	10	3.61336e-05	13	0	4.0952	1.83087e-06
2	1	0	1	0	1	184.515	0.395259	0.394836	0.00317998	10	3.7551e-05	13	0	4.4947	1.25557e-06
2	1	0	1	0	1	184.914	0.399256	0.398847	0.00352099	10	3.89521e-05	13	0	4.8942	1.40433e-06
2	1	0	1	0	1	185.314	0.403251	0.402825	0.00469862	10	4.03437e-05	13	0	5.2938	1.89272e-06
2	1	0	1	0	1	185.713	0.407246	0.406814	0.00248539	10	4.17194e-05	13	0	5.6933	1.01109e-06
2	1	0	1	0	1	186.113	0.411241	0.410777	0.00404277	10	4.30707e-05	13	0	6.0928	1.66068e-06
2	1	0	1	0	1	186.512	0.415237	0.414772	0.00400487	10	4.4422e-05	13	0	6.4924	1.66111e-06
2	1	0	1	0	1	186.912	0.419232	0.418815	0.0026775	10	4.57576e-05	13	0	6.8919	1.12138e-06
2	1	0	1	0	1	187.311	0.423227	0.422774	0.00461325	10	4.7084e-05	13	0	7.2914	1.95036e-06
2	1	0	1	0	1	187.711	0.427222	0.426762	0.00258324	10	4.83965e-05	13	0	7.691	1.10243e-06
2	1	0	1	0	1	188.11	0.431218	0.430747	0.00376121	10	4.96958e-05	13	0	8.0904	1.62013e-06
2	1	0	1	0	1	188.51	0.435213	0.43473	0.00364682	10	5.09867e-05	13	0	8.49	1.58538e-06
2	1	0	1	0	1	188.909	0.439208	0.438749	0.00252353	10	5.22662e-05	13	0	8.8895	1.1072e-06
2	1	0	1	0	1	189.309	0.443204	0.442762	0.00435941	10	5.35365e-05	13	0	9.289	1.93018e-06
2	1	0	1	0	1	189.708	0.447199	0.446737	0.00227767	10	5.48004e-05	13	0	9.6886	1.01752e-06
2	1	0	1	0	1	190.014	0.449747	0.449276	-0.00122047	10	5.56482e-05	13	0	0.000000000000000E+000	-5.48328e-07
2	1	0	1	0	1	190.413	0.445751	0.445305	-0.00200385	10	5.4755e-05	13	0	0.3995	-8.92324e-07
2	1	0	1	0	1	190.813	0.441755	0.441254	-0.00309542	10	5.37487e-05	13	0	0.7991	-1.36586e-06
2	1	0	1	0	1	191.212	0.43776	0.437294	-0.0016709	10	5.26887e-05	13	0	1.1986	-7.30676e-07
2	1	0	1	0	1	191.612	0.433765	0.433268	-0.00369907	10	5.15911e-05	13	0	1.5981	-1.60269e-06
2	1	0	1	0	1	192.011	0.429769	0.42928	-0.00160213	10	5.04646e-05	13	0	1.9977	-6.87764e-07
2	1	0	1	0	1	192.411	0.425773	0.425288	-0.00376267	10	4.93053e-05	13	0	2.3972	-1.60022e-06
2	1	0	1	0	1	192.81	0.421779	0.421343	-0.00182694	10	4.81205e-05	13	0	2.7967	-7.69769e-07
2	1	0	1	0	1	193.21	0.417784	0.417283	-0.00403136	10	4.69057e-05	13	0	3.1963	-1.68222e-06
2	1	0	1	0	1	193.609	0.413788	0.413306	-0.00185124	10	4.56688e-05	13	0	3.5957	-7.65129e-07
2	0	0	1	0	1	194.009	0.409793	0.409315	-0.00430124	10	4.44072e-05	13	0	3.9953	-1.76056e-06
2	0	0	1	0	1	194.409	0.405798	0.405323	-0.00198793	10	4.31295e-05	13	0	4.3948	-8.05752e-07
2	0	0	1	0	1	194.808	0.401803	0.401302	-0.00449348	10	4.18207e-05	13	0	4.7943	-1.80324e-06
2	0	0	1	0	1	195.208	0.397807	0.397368	-0.0020298	10	4.04871e-05	13	0	5.1939	-8.06575e-07
2	0	0	1	0	1	195.607	0.393812	0.393327	-0.00467508	10	3.91306e-05	13	0	5.5934	-1.83884e-06
2	0	0	1	0	1	196.007	0.389817	0.389363	-0.00222376	10	3.77481e-05	13	0	5.9929	-8.65851e-07
2	0	0	1	0	1	196.406	0.385822	0.385344	-0.0048288	10	3.63405e-05	13	0	6.3925	-1.86075e-06
2	0	0	1	0	1	196.806	0.381825	0.381388	-0.00227203	10	3.49066e-05	13	0	6.792	-8.66525e-07
2	0	0	1	0	1	197.205	0.377831	0.377394	-0.0050915	10	3.3444e-05	13	0	7.1915	-1.9215e-06
2	0	0	1	0	1	197.605	0.373836	0.373372	-0.00253527	10	3.1949e-05	13	0	7.5911	-9.46599e-07
2	0	0	1	0	1	198.004	0.369841	0.369387	-0.00531421	10	3.04271e-05	13	0	7.9905	-1.963e-06
2	0	0	1	0	1	198.404	0.365845	0.365368	-0.00263077	10	2.88724e-05	13	0	8.3901	-9.612e-07
2	0	0	1	0	1	198.803	0.36185	0.361406	-0.00555301	10	2.72873e-05	13	0	8.7896	-2.00689e-06
2	0	0	1	0	1	199.203	0.357855	0.357454	-0.00286214	10	2.56702e-05	13	0	9.1891	-1.02308e-06
2	0	0	1	0	1	199.602	0.353859	0.353403	-0.00577694	10	2.40196e-05	13	0	9.5887	-2.04159e-06
2	0	0	1	0	1	199.982	0.350064	0.349638	-0.00504635	10	2.23859e-05	13	0	9.9683	-1.7644e-06
2	1	0	1	0	1	199.986	0.349989	0.349514	0.000572115	10	2.23784e-05	13	0	9.9722	1.99962e-07