File: ACS_Catal_2026/Figures_Na_K/main_figures/data/EC/20251112_2-148_alpha_reproducibility/20251112_2-148_003_alpha_Na_first_1_K1_03_CVA_C01.mpt
EC-Lab ASCII FILE
Nb header lines : 66

Cyclic Voltammetry Advanced

Run on channel : 1 (SN 69187)
User :
CE vs. WE compliance from -10 V to 10 V
Electrode connection : standard
Potential control : Ewe
Ewe ctrl range : min = -1.00 V, max = 1.00 V
Safety Limits :
	Do not start on E overload
Acquisition started on : 11/12/2025 16:18:27.289
Loaded Setting File :  C:\Users\User\Documents\EC-Lab\Data\Yatsuzuka\20251030_2-147_gamma_reproducibility\20251030_2-147_001_gamma1_K_1.mps
Saved on :
	File : 20251112_2-148_003_alpha_Na_first_1_K1_03_CVA_C01.mpr
	Directory : C:\Users\User\Documents\EC-Lab\Data\Yatsuzuka\20251112_2-148_alpha_reproducibility\
	Host : 192.109.209.127
Device : SP-150e (SN .003883)
Address : 192.109.209.128
EC-Lab for windows v11.52 (software)
Internet server v11.52 (firmware)
Command interpretor v11.50 (firmware)
Electrode material :
Initial state :
Electrolyte :
Comments :
Electrode surface area : 0.001 cm2
Characteristic mass : 0.001 g
Equivalent Weight : 0.000 g/eq.
Density : 0.000 g/cm3
Volume (V) : 0.001 cm3
Cycle Definition : Charge/Discharge alternance
Ei (V)              0.450
vs.                 Ref
ti (h:m:s)          0:00:10.0000
dti (s)             0.0000
dE/dt               5.000
dE/dt unit          mV/s
E1 (V)              0.700
vs.                 Ref
t1 (h:m:s)          0:00:0.0000
dt1 (s)             0.1000
Step percent        50
N                   10
E range min (V)     -1.000
E range max (V)     1.000
I Range             10 mA
I Range min         Unset
I Range max         Unset
I Range init        Unset
Bandwidth           5
E2 (V)              0.450
vs.                 Ref
t2 (h:m:s)          0:00:0.0000
dt2 (s)             0.1000
nc cycles           14
nr                  1
Reverse Scan        0
Ef (V)              0.000
vs.                 Eoc
tf (h:m:s)          0:00:0.0000
dtf (s)             0.1000

mode	ox/red	error	control changes	Ns changes	counter inc.	time/s	control/V	Ewe/V	<I>/mA	cycle number	(Q-Qo)/C	I Range	Ns	step time/s	P/W
2	0	0	1	0	0	231.837	0.449961	0.449831	-0.00915854	1	0.0000000E+000	11	0	0.000000000000000E+000	-4.11979e-06
2	1	0	1	0	0	233.29	0.457226	0.456985	0.013399	1	1.87877e-05	11	0	1.398	6.12313e-06
2	1	0	0	0	0	234.788	0.464715	0.464431	0.0137261	1	3.88688e-05	11	0	2.8959	6.37484e-06
2	1	0	1	0	0	236.286	0.472205	0.471972	0.0141641	1	5.90304e-05	11	0	4.3938	6.68506e-06
2	1	0	1	0	0	237.784	0.479695	0.479464	0.0140805	1	7.9106e-05	11	0	5.8918	6.75108e-06
2	1	0	1	0	0	239.282	0.487184	0.487004	0.0132062	1	9.90681e-05	11	0	7.3897	6.43149e-06
2	1	0	1	0	0	240.78	0.494674	0.494471	0.0127717	1	0.00011895	11	0	8.8876	6.31526e-06
2	0	0	1	0	0	242.278	0.502164	0.501927	0.0123333	1	0.000138772	11	0	10.3856	6.19041e-06
2	1	0	0	0	0	243.776	0.509653	0.509445	0.0127227	1	0.000158768	11	0	11.8835	6.48149e-06
2	1	0	1	0	0	245.274	0.517143	0.516949	0.0142413	1	0.000179149	11	0	13.3814	7.36203e-06
2	1	0	1	0	0	246.772	0.524632	0.524444	0.0146744	1	0.000200016	11	0	14.8793	7.69588e-06
2	1	0	1	0	0	248.269	0.532122	0.531914	0.0147136	1	0.000221402	11	0	16.3772	7.82638e-06
2	1	0	1	0	0	249.767	0.539612	0.539363	0.0145651	1	0.00024341	11	0	17.8752	7.85587e-06
2	1	0	0	0	0	251.265	0.547101	0.546912	0.0146473	1	0.000266352	11	0	19.3731	8.01081e-06
2	1	0	1	0	0	252.763	0.554591	0.554345	0.0164392	1	0.00029082	11	0	20.871	9.11297e-06
2	1	0	1	0	0	254.261	0.56208	0.561858	0.0189717	1	0.000317588	11	0	22.3689	1.06594e-05
2	1	0	1	0	0	255.759	0.569569	0.569334	0.021721	1	0.000347558	11	0	23.8668	1.23665e-05
2	1	0	1	0	0	257.257	0.57706	0.576843	0.0254236	1	0.000381958	11	0	25.3648	1.46655e-05
2	1	0	0	0	0	258.755	0.584549	0.584361	0.0295807	1	0.000422473	11	0	26.8627	1.72858e-05
2	1	0	1	0	0	260.253	0.592039	0.591815	0.0359092	1	0.000471577	11	0	28.3606	2.12516e-05
2	1	0	1	0	0	261.751	0.599528	0.599289	0.0452874	1	0.00053296	11	0	29.8585	2.71403e-05
2	1	0	1	0	0	263.249	0.607018	0.606811	0.059137	1	0.000611807	11	0	31.3564	3.5885e-05
2	1	0	1	0	0	264.747	0.614508	0.614264	0.0796164	1	0.000715499	11	0	32.8544	4.89055e-05
2	1	0	0	0	0	266.245	0.621997	0.621794	0.10745	1	0.00085404	11	0	34.3523	6.68119e-05
2	1	0	1	0	0	267.742	0.629487	0.629294	0.145068	1	0.00104104	11	0	35.8502	9.12901e-05
2	1	0	1	0	0	269.24	0.636977	0.636799	0.196365	1	0.00129495	11	0	37.3482	0.000125045
2	1	0	1	0	0	270.738	0.644466	0.644277	0.265782	1	0.00163987	11	0	38.8461	0.000171237
2	1	0	1	0	0	272.236	0.651956	0.651756	0.358421	1	0.00210583	11	0	40.344	0.000233603
2	1	0	0	0	0	273.734	0.659445	0.659227	0.477964	1	0.00272947	11	0	41.8419	0.000315087
2	1	0	1	0	0	275.232	0.666935	0.666738	0.626532	1	0.00355263	11	0	43.3398	0.000417732
2	1	0	1	0	0	276.73	0.674425	0.674222	0.8034	1	0.0046201	11	0	44.8378	0.00054167
2	1	0	1	0	0	278.228	0.681914	0.681701	1.00903	1	0.00597529	11	0	46.3357	0.000687856
2	1	0	1	0	0	279.726	0.689404	0.689227	1.24034	1	0.00765882	11	0	47.8336	0.000854876
2	1	0	1	0	0	281.224	0.696894	0.696678	1.4952	1	0.00970743	11	0	49.3316	0.00104168
2	1	0	1	0	0	282.504	0.696693	0.696442	1.41958	1	0.0116623	11	0	50.612	0.000988659
2	1	0	0	0	0	284.002	0.689204	0.689021	1.09791	1	0.0135371	11	0	52.1099	0.000756484
2	1	0	1	0	0	285.5	0.681715	0.681552	0.845512	1	0.0149824	11	0	53.6078	0.00057626
2	1	0	1	0	0	286.998	0.674224	0.673994	0.647061	1	0.016093	11	0	55.1058	0.000436115
2	1	0	1	0	0	288.496	0.666735	0.666533	0.487805	1	0.0169377	11	0	56.6037	0.000325138
2	1	0	1	0	0	289.994	0.659246	0.658995	0.363046	1	0.017571	11	0	58.1016	0.000239246
2	1	0	0	0	0	291.492	0.651756	0.651542	0.266931	1	0.0180382	11	0	59.5995	0.000173917
2	1	0	1	0	0	292.99	0.644267	0.644076	0.19295	1	0.0183794	11	0	61.0974	0.000124275
2	1	0	1	0	0	294.488	0.636777	0.636533	0.137228	1	0.0186245	11	0	62.5954	8.73502e-05
2	1	0	1	0	0	295.986	0.629287	0.629081	0.0987852	1	0.0187994	11	0	64.0933	6.21439e-05
2	1	0	1	0	0	297.483	0.621798	0.62158	0.0685636	1	0.0189229	11	0	65.5912	4.26177e-05
2	1	0	1	0	0	298.981	0.614307	0.614067	0.0462243	1	0.0190083	11	0	67.0892	2.83848e-05
2	1	0	0	0	0	300.479	0.606818	0.606614	0.0321564	1	0.0190661	11	0	68.5871	1.95065e-05
2	1	0	1	0	0	301.977	0.599329	0.59909	0.019724	1	0.0191039	11	0	70.085	1.18164e-05
2	1	0	1	0	0	303.475	0.591839	0.591646	0.0105667	1	0.0191265	11	0	71.5829	6.25172e-06
2	1	0	1	0	0	304.973	0.58435	0.584168	0.00616893	1	0.0191386	11	0	73.0808	3.60369e-06
2	1	0	1	0	0	306.471	0.576859	0.57661	0.00101453	1	0.0191433	11	0	74.5788	5.84988e-07
2	0	0	0	0	0	307.969	0.56937	0.56919	-0.00244239	1	0.0191423	11	0	0.0999	-1.39018e-06
2	1	0	1	0	0	309.467	0.561881	0.561618	-0.00309682	1	0.0191379	11	0	1.5978	-1.73923e-06
2	0	0	1	0	0	310.965	0.554391	0.554157	-0.00587691	1	0.0191306	11	0	3.0957	-3.25673e-06
2	0	0	1	0	0	312.463	0.546902	0.546757	-0.00709473	1	0.019121	11	0	4.5936	-3.87909e-06
2	1	0	1	0	0	313.961	0.539411	0.539197	-0.00684033	1	0.0191101	11	0	6.0916	-3.68828e-06
2	0	0	0	0	0	315.459	0.531922	0.531712	-0.00863889	1	0.019098	11	0	7.5895	-4.5934e-06
2	0	0	1	0	0	316.956	0.524433	0.524156	-0.00958864	1	0.0190845	11	0	9.0874	-5.02594e-06
2	1	0	1	0	0	318.454	0.516942	0.516694	-0.0086718	1	0.0190707	11	0	10.5854	-4.48067e-06
2	0	0	1	0	0	319.952	0.509453	0.509233	-0.00984953	1	0.0190563	11	0	12.0833	-5.0157e-06
2	0	0	1	0	0	321.45	0.501964	0.501693	-0.010928	1	0.019041	11	0	13.5812	-5.48252e-06
2	1	0	0	0	0	322.948	0.494474	0.494256	-0.00944532	1	0.0190257	11	0	15.0791	-4.6684e-06
2	0	0	1	0	0	324.446	0.486985	0.486815	-0.0109839	1	0.0190099	11	0	16.577	-5.34714e-06
2	0	0	1	0	0	325.944	0.479494	0.479249	-0.0114518	1	0.0189932	11	0	18.075	-5.48825e-06
2	1	0	1	0	0	327.442	0.472005	0.471741	-0.0102005	1	0.0189766	11	0	19.5729	-4.812e-06
2	0	0	1	0	0	328.94	0.464516	0.464268	-0.0125863	1	0.0189591	11	0	21.0708	-5.84344e-06
2	0	0	0	0	0	330.438	0.457026	0.4568	-0.0115825	1	0.0189412	11	0	22.5687	-5.2909e-06
2	0	0	1	0	1	331.838	0.450011	0.449812	-0.0265886	1	0.0189241	11	0	23.9693	-1.19599e-05
2	1	0	1	0	1	333.291	0.457276	0.45704	0.0123418	2	0.0189403	11	0	1.3981	5.64068e-06
2	1	0	1	0	1	334.789	0.464765	0.464464	0.0126506	2	0.0189589	11	0	2.896	5.87574e-06
2	0	0	1	0	1	336.287	0.472255	0.472022	0.0112135	2	0.0189771	11	0	4.3939	5.29302e-06
2	1	0	1	0	1	337.785	0.479745	0.479537	0.0126987	2	0.0189954	11	0	5.8919	6.08948e-06
2	1	0	0	0	1	339.283	0.487234	0.487013	0.0123464	2	0.0190141	11	0	7.3898	6.01284e-06
2	0	0	1	0	1	340.781	0.494724	0.494491	0.0113467	2	0.0190323	11	0	8.8877	5.61084e-06
2	1	0	1	0	1	342.279	0.502213	0.501913	0.0131914	2	0.0190509	11	0	10.3856	6.62094e-06
2	1	0	1	0	1	343.776	0.509702	0.509462	0.0119314	2	0.0190697	11	0	11.8835	6.07862e-06
2	1	0	1	0	1	345.274	0.517193	0.51699	0.0121439	2	0.0190882	11	0	13.3815	6.27826e-06
2	1	0	0	0	1	346.772	0.524682	0.524444	0.0134207	2	0.0191073	11	0	14.8794	7.03841e-06
2	0	0	1	0	1	348.27	0.532172	0.531968	0.0120155	2	0.0191264	11	0	16.3773	6.39185e-06
2	1	0	1	0	1	349.768	0.539662	0.539414	0.013907	2	0.0191462	11	0	17.8753	7.50162e-06
2	1	0	1	0	1	351.266	0.547151	0.546938	0.0142983	2	0.0191672	11	0	19.3732	7.82027e-06
2	1	0	1	0	1	352.764	0.554641	0.554427	0.0144749	2	0.0191891	11	0	20.8711	8.02528e-06
2	1	0	0	0	1	354.262	0.56213	0.561875	0.0176708	2	0.0192133	11	0	22.369	9.92878e-06
2	1	0	1	0	1	355.76	0.56962	0.569441	0.0181399	2	0.0192401	11	0	23.8669	1.03296e-05
2	1	0	1	0	1	357.258	0.57711	0.576893	0.021617	2	0.0192705	11	0	25.3649	1.24707e-05
2	1	0	1	0	1	358.756	0.584599	0.5844	0.0270291	2	0.0193067	11	0	26.8628	1.57958e-05
2	1	0	1	0	1	360.254	0.592089	0.59188	0.0319546	2	0.0193507	11	0	28.3607	1.89133e-05
2	1	0	0	0	1	361.752	0.599578	0.599304	0.0413953	2	0.0194058	11	0	29.8586	2.48084e-05
2	1	0	1	0	1	363.249	0.607068	0.606862	0.0551604	2	0.0194775	11	0	31.3565	3.34747e-05
2	1	0	1	0	1	364.747	0.614558	0.614343	0.0719143	2	0.019572	11	0	32.8545	4.418e-05
2	1	0	1	0	1	366.245	0.622047	0.621818	0.0976816	2	0.0196987	11	0	34.3524	6.07402e-05
2	1	0	1	0	1	367.743	0.629537	0.629336	0.134684	2	0.0198714	11	0	35.8503	8.47618e-05
2	1	0	0	0	1	369.241	0.637026	0.636862	0.182947	2	0.0201075	11	0	37.3482	0.000116512
2	1	0	0	0	1	370.739	0.644516	0.644347	0.249863	2	0.0204303	11	0	38.8462	0.000160999
2	1	0	1	0	1	372.237	0.652006	0.651746	0.339421	2	0.0208692	11	0	40.3441	0.000221216
2	1	0	1	0	1	373.735	0.659495	0.659235	0.452497	2	0.021459	11	0	41.842	0.000298302
2	1	0	1	0	1	375.233	0.666985	0.666754	0.593702	2	0.0222402	11	0	43.3399	0.000395853
2	1	0	1	0	1	376.731	0.674475	0.674273	0.766529	2	0.0232568	11	0	44.8379	0.00051685
2	1	0	0	0	1	378.229	0.681964	0.681736	0.964537	2	0.0245508	11	0	46.3358	0.000657559
2	1	0	1	0	1	379.727	0.689454	0.689277	1.18685	2	0.0261608	11	0	47.8337	0.000818071
2	1	0	1	0	1	381.225	0.696943	0.6967	1.43414	2	0.0281235	11	0	49.3316	0.000999162
2	1	0	1	0	1	382.495	0.696693	0.696469	1.35968	2	0.0299828	11	0	50.6021	0.000946974
2	1	0	1	0	1	383.993	0.689204	0.688958	1.05224	2	0.031778	11	0	52.1	0.000724951
2	1	0	1	0	1	385.491	0.681715	0.681531	0.806204	2	0.033163	11	0	53.5979	0.000549453
2	1	0	1	0	1	386.989	0.674224	0.674034	0.613829	2	0.0342191	11	0	55.0959	0.000413741
2	1	0	0	0	1	388.487	0.666735	0.666507	0.471928	2	0.0350247	11	0	56.5938	0.000314543
2	1	0	1	0	1	389.985	0.659246	0.65903	0.354982	2	0.0356405	11	0	58.0917	0.000233944
2	1	0	1	0	1	391.483	0.651756	0.651523	0.259183	2	0.0360969	11	0	59.5896	0.000168864
2	1	0	1	0	1	392.98	0.644267	0.644037	0.188745	2	0.03643	11	0	61.0875	0.000121559
2	1	0	1	0	1	394.478	0.636777	0.636582	0.136918	2	0.0366718	11	0	62.5855	8.71596e-05
2	1	0	0	0	1	395.976	0.629287	0.629023	0.0949718	2	0.0368432	11	0	64.0834	5.97395e-05
2	1	0	1	0	1	397.474	0.621798	0.621562	0.0649922	2	0.0369619	11	0	65.5813	4.03967e-05
2	1	0	1	0	1	398.972	0.614307	0.614073	0.0452761	2	0.0370434	11	0	67.0793	2.78028e-05
2	1	0	1	0	1	400.47	0.606818	0.60664	0.0295539	2	0.0370978	11	0	68.5772	1.79286e-05
2	1	0	1	0	1	401.968	0.599329	0.599128	0.0172236	2	0.0371324	11	0	70.0751	1.03191e-05
2	1	0	0	0	1	403.466	0.591839	0.591597	0.00946969	2	0.0371527	11	0	71.573	5.60224e-06
2	1	0	1	0	1	404.964	0.58435	0.584158	0.00491373	2	0.0371633	11	0	73.0709	2.87039e-06
2	1	0	1	0	1	406.462	0.576859	0.576619	0.00111483	2	0.0371668	11	0	0.0999	6.42835e-07
2	0	0	1	0	1	407.96	0.56937	0.569175	-0.00266636	2	0.0371652	11	0	0.4993	-1.51763e-06
2	0	0	1	0	1	409.458	0.561881	0.561671	-0.00511009	2	0.0371598	11	0	1.9972	-2.87019e-06
2	1	0	0	0	1	410.956	0.554391	0.554183	-0.00507045	2	0.037152	11	0	3.4951	-2.80996e-06
2	0	0	1	0	1	412.453	0.546902	0.546713	-0.00659178	2	0.0371423	11	0	4.993	-3.60381e-06
2	0	0	1	0	1	413.951	0.539411	0.539141	-0.00877891	2	0.0371307	11	0	6.491	-4.73307e-06
2	0	0	1	0	1	415.449	0.531922	0.531708	-0.0082039	2	0.0371184	11	0	7.9889	-4.36208e-06
2	1	0	1	0	1	416.947	0.524433	0.524223	-0.00816837	2	0.0371054	11	0	9.4868	-4.28204e-06
2	0	0	1	0	1	418.445	0.516942	0.516729	-0.010251	2	0.0370914	11	0	10.9848	-5.297e-06
2	0	0	0	0	1	419.943	0.509453	0.509247	-0.00971045	2	0.0370767	11	0	12.4827	-4.94502e-06
2	1	0	1	0	1	421.441	0.501964	0.501721	-0.00928112	2	0.0370618	11	0	13.9806	-4.65653e-06
2	0	0	1	0	1	422.939	0.494474	0.494293	-0.0111602	2	0.0370461	11	0	15.4785	-5.51639e-06
2	0	0	1	0	1	424.437	0.486985	0.486812	-0.0109008	2	0.0370298	11	0	16.9764	-5.30662e-06
2	0	0	1	0	1	425.935	0.479494	0.479265	-0.01014	2	0.0370136	11	0	18.4744	-4.85975e-06
2	0	0	0	0	1	427.433	0.472005	0.471745	-0.0119504	2	0.0369967	11	0	19.9723	-5.63754e-06
2	0	0	1	0	1	428.931	0.464516	0.464278	-0.0118608	2	0.0369791	11	0	21.4702	-5.50669e-06
2	1	0	1	0	1	430.429	0.457026	0.456782	-0.011006	2	0.0369616	11	0	22.9681	-5.02732e-06
2	0	0	0	0	0	431.829	0.450011	0.449907	-0.018637	2	0.0369443	11	0	24.3687	-8.3849e-06
2	1	0	1	0	0	433.282	0.457276	0.457042	0.0126188	3	0.0369603	11	0	1.3981	5.76733e-06
2	1	0	0	0	0	434.78	0.464765	0.464521	0.0121485	3	0.0369785	11	0	2.896	5.64325e-06
2	0	0	1	0	0	436.278	0.472255	0.472041	0.0111036	3	0.0369965	11	0	4.3939	5.24135e-06
2	1	0	1	0	0	437.776	0.479745	0.479534	0.0128469	3	0.0370149	11	0	5.8919	6.16055e-06
2	1	0	1	0	0	439.274	0.487234	0.487043	0.0123311	3	0.0370335	11	0	7.3898	6.00578e-06
2	1	0	1	0	0	440.771	0.494724	0.494523	0.0112891	3	0.0370516	11	0	8.8877	5.58273e-06
2	1	0	0	0	0	442.269	0.502213	0.501967	0.0127921	3	0.0370699	11	0	10.3856	6.4212e-06
2	1	0	1	0	0	443.767	0.509702	0.509491	0.0118559	3	0.0370884	11	0	11.8835	6.04046e-06
2	0	0	1	0	0	445.265	0.517193	0.516991	0.0118163	3	0.0371064	11	0	13.3815	6.10892e-06
2	1	0	1	0	0	446.763	0.524682	0.52444	0.0132023	3	0.0371252	11	0	14.8794	6.92383e-06
2	1	0	1	0	0	448.261	0.532172	0.531927	0.0118823	3	0.0371441	11	0	16.3773	6.3205e-06
2	1	0	1	0	0	449.759	0.539662	0.539442	0.0135895	3	0.0371635	11	0	17.8753	7.33073e-06
2	1	0	0	0	0	451.257	0.547151	0.54696	0.0140522	3	0.0371841	11	0	19.3732	7.686e-06
2	1	0	1	0	0	452.755	0.554641	0.554446	0.0140835	3	0.0372054	11	0	20.8711	7.80851e-06
2	1	0	1	0	0	454.253	0.56213	0.561952	0.0170834	3	0.0372288	11	0	22.369	9.60006e-06
2	1	0	1	0	0	455.751	0.56962	0.569425	0.0172962	3	0.0372546	11	0	23.8669	9.84889e-06
2	1	0	1	0	0	457.249	0.57711	0.576865	0.0219176	3	0.0372841	11	0	25.3649	1.26435e-05
2	1	0	0	0	0	458.747	0.584599	0.584381	0.0249911	3	0.0373192	11	0	26.8628	1.46043e-05
2	1	0	1	0	0	460.244	0.592089	0.591886	0.0313343	3	0.0373615	11	0	28.3607	1.85463e-05
2	1	0	1	0	0	461.742	0.599578	0.599347	0.040643	3	0.0374152	11	0	29.8586	2.43593e-05
2	1	0	1	0	0	463.24	0.607068	0.606884	0.0514948	3	0.0374837	11	0	31.3565	3.12513e-05
2	1	0	1	0	0	464.738	0.614558	0.614354	0.070258	3	0.0375745	11	0	32.8545	4.31633e-05
2	1	0	0	0	0	466.236	0.622047	0.621828	0.0930376	3	0.0376959	11	0	34.3524	5.78534e-05
2	1	0	1	0	0	467.734	0.629537	0.6293	0.1291	3	0.0378613	11	0	35.8503	8.12428e-05
2	1	0	1	0	0	469.232	0.637026	0.636797	0.174682	3	0.0380872	11	0	37.3482	0.000111237
2	1	0	1	0	0	470.73	0.644516	0.644362	0.240041	3	0.0383961	11	0	38.8462	0.000154673
2	1	0	1	0	0	472.228	0.652006	0.651829	0.324102	3	0.0388165	11	0	40.3441	0.000211259
2	1	0	0	0	0	473.726	0.659495	0.659244	0.433967	3	0.0393817	11	0	41.842	0.00028609
2	1	0	1	0	0	475.224	0.666985	0.66678	0.571774	3	0.0401326	11	0	43.3399	0.000381247
2	1	0	1	0	0	476.722	0.674475	0.674263	0.736748	3	0.0411102	11	0	44.8379	0.000496762
2	1	0	1	0	0	478.22	0.681964	0.681791	0.929007	3	0.0423557	11	0	46.3358	0.000633389
2	1	0	1	0	0	479.717	0.689454	0.689271	1.14229	3	0.0439059	11	0	47.8337	0.000787345
2	1	0	0	0	0	481.215	0.696943	0.696749	1.37265	3	0.0457895	11	0	49.3316	0.000956395
2	1	0	1	0	0	482.486	0.696693	0.696451	1.29041	3	0.0475616	11	0	50.6021	0.000898703
2	1	0	0	0	0	483.984	0.689204	0.688979	0.988844	3	0.0492562	11	0	52.1	0.000681293
2	1	0	1	0	0	485.482	0.681715	0.681494	0.761551	3	0.0505578	11	0	53.5979	0.000518992
2	1	0	1	0	0	486.98	0.674224	0.674057	0.581241	3	0.0515589	11	0	55.0959	0.00039179
2	1	0	1	0	0	488.478	0.666735	0.666529	0.440061	3	0.0523178	11	0	56.5938	0.000293313
2	1	0	1	0	0	489.975	0.659246	0.659002	0.329899	3	0.0528913	11	0	58.0917	0.000217404
2	1	0	0	0	0	491.473	0.651756	0.65151	0.243261	3	0.0533163	11	0	59.5896	0.000158487
2	1	0	1	0	0	492.971	0.644267	0.644121	0.18068	3	0.053632	11	0	61.0875	0.00011638
2	1	0	1	0	0	494.469	0.636777	0.636597	0.126882	3	0.0538602	11	0	62.5855	8.07728e-05
2	1	0	1	0	0	495.967	0.629287	0.629077	0.0898923	3	0.0540206	11	0	64.0834	5.65492e-05
2	1	0	1	0	0	497.465	0.621798	0.621569	0.0617526	3	0.0541326	11	0	65.5813	3.83835e-05
2	1	0	1	0	0	498.963	0.614307	0.614092	0.0424695	3	0.0542099	11	0	67.0793	2.60802e-05
2	1	0	0	0	0	500.461	0.606818	0.606642	0.0288519	3	0.0542623	11	0	68.5772	1.75028e-05
2	1	0	1	0	0	501.959	0.599329	0.59909	0.0167314	3	0.0542957	11	0	70.0751	1.00236e-05
2	1	0	1	0	0	503.457	0.591839	0.591616	0.011138	3	0.0543161	11	0	71.573	6.58942e-06
2	0	0	1	0	0	504.955	0.58435	0.584127	0.0035945	3	0.0543265	11	0	73.0709	2.09965e-06
2	1	0	1	0	0	506.453	0.576859	0.576663	0.00112579	3	0.0543298	11	0	0.000000000000000E+000	6.49203e-07
2	0	0	0	0	0	507.951	0.56937	0.569183	-0.00291441	3	0.0543283	11	0	0.4993	-1.65883e-06
2	1	0	1	0	0	509.448	0.561881	0.561668	-0.00406063	3	0.0543228	11	0	1.9972	-2.28073e-06
2	0	0	1	0	0	510.946	0.554391	0.554168	-0.00631873	3	0.0543149	11	0	3.4951	-3.50164e-06
2	0	0	1	0	0	512.444	0.546902	0.546723	-0.00641233	3	0.0543049	11	0	4.993	-3.50577e-06
2	0	0	1	0	0	513.942	0.539411	0.539208	-0.00825344	3	0.0542938	11	0	6.491	-4.45032e-06
2	0	0	0	0	0	515.44	0.531922	0.531697	-0.00801689	3	0.0542812	11	0	7.9889	-4.26256e-06
2	0	0	1	0	0	516.938	0.524433	0.524183	-0.00914859	3	0.0542682	11	0	9.4868	-4.79554e-06
2	0	0	1	0	0	518.436	0.516942	0.516745	-0.00949507	3	0.0542539	11	0	10.9848	-4.90653e-06
2	0	0	1	0	0	519.934	0.509453	0.509224	-0.00999553	3	0.0542395	11	0	12.4827	-5.08997e-06
2	0	0	1	0	0	521.432	0.501964	0.501738	-0.010343	3	0.0542239	11	0	13.9806	-5.18948e-06
2	0	0	0	0	0	522.93	0.494474	0.494269	-0.0103196	3	0.0542084	11	0	15.4785	-5.10068e-06
2	0	0	1	0	0	524.428	0.486985	0.486784	-0.0108449	3	0.054192	11	0	16.9764	-5.27915e-06
2	0	0	1	0	0	525.926	0.479494	0.4793	-0.0108389	3	0.0541758	11	0	18.4744	-5.19508e-06
2	0	0	1	0	0	527.424	0.472005	0.471776	-0.0115692	3	0.0541586	11	0	19.9723	-5.45809e-06
2	0	0	1	0	0	528.921	0.464516	0.464292	-0.0111343	3	0.0541414	11	0	21.4702	-5.16955e-06
2	0	0	0	0	0	530.419	0.457026	0.45678	-0.0131446	3	0.0541232	11	0	22.9681	-6.00419e-06
2	0	0	1	0	1	531.82	0.450011	0.449888	-0.0222629	3	0.0541061	11	0	24.3687	-1.00158e-05
2	1	0	1	0	1	533.273	0.457276	0.457036	0.0120192	4	0.0541216	11	0	1.3981	5.49319e-06
2	1	0	1	0	1	534.771	0.464765	0.464521	0.0116096	4	0.0541396	11	0	2.896	5.39293e-06
2	1	0	1	0	1	536.268	0.472255	0.472034	0.0119999	4	0.0541575	11	0	4.3939	5.66436e-06
2	1	0	1	0	1	537.766	0.479745	0.479532	0.0121696	4	0.0541758	11	0	5.8919	5.8357e-06
2	1	0	0	0	1	539.264	0.487234	0.487049	0.0115232	4	0.0541936	11	0	7.3898	5.61237e-06
2	1	0	1	0	1	540.762	0.494724	0.494487	0.0123733	4	0.0542118	11	0	8.8877	6.11843e-06
2	1	0	1	0	1	542.26	0.502213	0.501962	0.011496	4	0.0542295	11	0	10.3856	5.77057e-06
2	1	0	1	0	1	543.758	0.509702	0.509481	0.0121258	4	0.0542478	11	0	11.8835	6.17787e-06
2	1	0	1	0	1	545.256	0.517193	0.516964	0.0118155	4	0.0542656	11	0	13.3815	6.10819e-06
2	1	0	0	0	1	546.754	0.524682	0.524493	0.012643	4	0.0542842	11	0	14.8794	6.63116e-06
2	1	0	1	0	1	548.252	0.532172	0.531974	0.0121283	4	0.0543026	11	0	16.3773	6.45196e-06
2	1	0	1	0	1	549.75	0.539662	0.539482	0.0134888	4	0.0543221	11	0	17.8753	7.27699e-06
2	1	0	1	0	1	551.248	0.547151	0.546924	0.0126726	4	0.0543417	11	0	19.3732	6.93095e-06
2	1	0	1	0	1	552.746	0.554641	0.554392	0.0152621	4	0.0543631	11	0	20.8711	8.46119e-06
2	1	0	0	0	1	554.244	0.56213	0.561906	0.0150884	4	0.0543858	11	0	22.369	8.47829e-06
2	1	0	1	0	1	555.741	0.56962	0.569396	0.0187313	4	0.0544114	11	0	23.8669	1.06655e-05
2	1	0	1	0	1	557.239	0.57711	0.576891	0.019886	4	0.0544403	11	0	25.3649	1.1472e-05
2	1	0	1	0	1	558.737	0.584599	0.584397	0.0257567	4	0.0544747	11	0	26.8628	1.50521e-05
2	1	0	1	0	1	560.235	0.592089	0.59189	0.0299591	4	0.0545162	11	0	28.3607	1.77325e-05
2	1	0	0	0	1	561.733	0.599578	0.59937	0.0398889	4	0.0545682	11	0	29.8586	2.39082e-05
2	1	0	1	0	1	563.231	0.607068	0.606884	0.0499966	4	0.0546352	11	0	31.3565	3.03422e-05
2	1	0	1	0	1	564.729	0.614558	0.614364	0.0680713	4	0.0547233	11	0	32.8545	4.18206e-05
2	1	0	1	0	1	566.227	0.622047	0.621813	0.0918676	4	0.0548421	11	0	34.3524	5.71245e-05
2	1	0	1	0	1	567.725	0.629537	0.629335	0.12391	4	0.0550029	11	0	35.8503	7.79808e-05
2	1	0	0	0	1	569.223	0.637026	0.636836	0.171972	4	0.0552232	11	0	37.3482	0.000109518
2	1	0	0	0	1	570.721	0.644516	0.644328	0.233125	4	0.0555246	11	0	38.8462	0.000150209
2	1	0	1	0	1	572.219	0.652006	0.651815	0.31661	4	0.0559344	11	0	40.3441	0.000206371
2	1	0	1	0	1	573.717	0.659495	0.659305	0.424979	4	0.0564871	11	0	41.842	0.000280191
2	1	0	1	0	1	575.214	0.666985	0.666812	0.557883	4	0.0572206	11	0	43.3399	0.000372003
2	1	0	1	0	1	576.712	0.674475	0.674234	0.720963	4	0.0581762	11	0	44.8379	0.000486098
2	1	0	0	0	1	578.21	0.681964	0.681792	0.907884	4	0.0593939	11	0	46.3358	0.000618988
2	1	0	1	0	1	579.708	0.689454	0.689247	1.11918	4	0.0609112	11	0	47.8337	0.000771391
2	1	0	1	0	1	581.206	0.696943	0.696696	1.3446	4	0.0627565	11	0	49.3316	0.000936778
2	1	0	1	0	1	582.477	0.696693	0.696438	1.26894	4	0.0644952	11	0	50.6021	0.00088374
2	1	0	1	0	1	583.975	0.689204	0.688985	0.973478	4	0.0661627	11	0	52.1	0.000670711
2	1	0	1	0	1	585.472	0.681715	0.681509	0.7474	4	0.0674437	11	0	53.5979	0.00050936
2	1	0	1	0	1	586.97	0.674224	0.673986	0.565206	4	0.0684207	11	0	55.0959	0.000380941
2	1	0	0	0	1	588.468	0.666735	0.66652	0.425143	4	0.0691568	11	0	56.5938	0.000283366
2	1	0	1	0	1	589.966	0.659246	0.658999	0.317334	4	0.0697079	11	0	58.0917	0.000209123
2	1	0	1	0	1	591.464	0.651756	0.651521	0.231815	4	0.0701161	11	0	59.5896	0.000151032
2	1	0	1	0	1	592.962	0.644267	0.644063	0.167601	4	0.0704125	11	0	61.0875	0.000107945
2	1	0	1	0	1	594.46	0.636777	0.636616	0.118086	4	0.0706242	11	0	62.5855	7.51753e-05
2	1	0	0	0	1	595.958	0.629287	0.629063	0.0846419	4	0.0707745	11	0	64.0834	5.32451e-05
2	1	0	1	0	1	597.456	0.621798	0.621547	0.0567812	4	0.070879	11	0	65.5813	3.52922e-05
2	1	0	1	0	1	598.954	0.614307	0.614056	0.0398432	4	0.0709507	11	0	67.0793	2.44659e-05
2	1	0	1	0	1	600.452	0.606818	0.606607	0.0244603	4	0.0709981	11	0	68.5772	1.48378e-05
2	1	0	1	0	1	601.95	0.599329	0.59911	0.01612	4	0.071028	11	0	70.0751	9.65766e-06
2	1	0	0	0	1	603.448	0.591839	0.591603	0.00776236	4	0.0710455	11	0	71.573	4.59223e-06
2	1	0	1	0	1	604.945	0.58435	0.584114	0.00441413	4	0.0710542	11	0	73.0709	2.57836e-06
2	0	0	1	0	1	606.443	0.576859	0.576608	-0.0010829	4	0.0710566	11	0	0.000000000000000E+000	-6.24408e-07
2	1	0	1	0	1	607.941	0.56937	0.569155	-0.00202603	4	0.071054	11	0	0.6991	-1.15312e-06
2	0	0	1	0	1	609.439	0.561881	0.56166	-0.00557828	4	0.0710482	11	0	2.197	-3.1331e-06
2	1	0	0	0	1	610.937	0.554391	0.554189	-0.00533437	4	0.0710397	11	0	3.6949	-2.95625e-06
2	0	0	1	0	1	612.435	0.546902	0.546676	-0.00800282	4	0.0710296	11	0	5.1928	-4.37495e-06
2	1	0	1	0	1	613.933	0.539411	0.539189	-0.00722298	4	0.071018	11	0	6.6908	-3.89455e-06
2	0	0	1	0	1	615.431	0.531922	0.531722	-0.00946675	4	0.0710054	11	0	8.1887	-5.03368e-06
2	1	0	1	0	1	616.929	0.524433	0.524211	-0.00816615	4	0.0709919	11	0	9.6866	-4.28079e-06
2	0	0	1	0	1	618.427	0.516942	0.516743	-0.0102842	4	0.070978	11	0	11.1846	-5.31429e-06
2	0	0	0	0	1	619.925	0.509453	0.509222	-0.00930867	4	0.0709632	11	0	12.6825	-4.74018e-06
2	0	0	1	0	1	621.423	0.501964	0.501701	-0.0102384	4	0.0709484	11	0	14.1804	-5.13661e-06
2	0	0	1	0	1	622.921	0.494474	0.49421	-0.010652	4	0.0709326	11	0	15.6783	-5.26432e-06
2	0	0	1	0	1	624.418	0.486985	0.486757	-0.00988066	4	0.0709169	11	0	17.1762	-4.80948e-06
2	0	0	1	0	1	625.916	0.479494	0.479208	-0.0120447	4	0.0709001	11	0	18.6742	-5.7719e-06
2	0	0	0	0	1	627.414	0.472005	0.471779	-0.0102932	4	0.0708833	11	0	20.1721	-4.85612e-06
2	0	0	1	0	1	628.912	0.464516	0.464296	-0.0127335	4	0.0708656	11	0	21.67	-5.91209e-06
2	0	0	1	0	1	630.41	0.457026	0.456756	-0.0113605	4	0.0708476	11	0	23.1679	-5.189e-06
2	0	0	0	0	0	631.811	0.450011	0.449831	-0.00976287	4	0.0708303	11	0	24.5685	-4.39164e-06
2	1	0	1	0	0	633.263	0.457276	0.457066	0.0125997	5	0.0708462	11	0	1.3981	5.75888e-06
2	0	0	0	0	0	634.761	0.464765	0.464501	0.010706	5	0.0708636	11	0	2.896	4.97296e-06
2	1	0	1	0	0	636.259	0.472255	0.472014	0.0129128	5	0.0708817	11	0	4.3939	6.09502e-06
2	0	0	1	0	0	637.757	0.479745	0.479522	0.0107992	5	0.0708994	11	0	5.8919	5.17845e-06
2	1	0	1	0	0	639.255	0.487234	0.487015	0.0126498	5	0.0709173	11	0	7.3898	6.16067e-06
2	0	0	1	0	0	640.753	0.494724	0.494482	0.0109974	5	0.0709351	11	0	8.8877	5.43804e-06
2	1	0	0	0	0	642.251	0.502213	0.50197	0.0125747	5	0.0709529	11	0	10.3856	6.31213e-06
2	1	0	1	0	0	643.749	0.509702	0.509514	0.0112617	5	0.070971	11	0	11.8835	5.73802e-06
2	1	0	1	0	0	645.247	0.517193	0.516961	0.0124739	5	0.0709889	11	0	13.3815	6.44853e-06
2	1	0	1	0	0	646.745	0.524682	0.524461	0.0121078	5	0.0710073	11	0	14.8794	6.35007e-06
2	1	0	1	0	0	648.243	0.532172	0.531981	0.0117881	5	0.0710256	11	0	16.3773	6.27105e-06
2	1	0	1	0	0	649.741	0.539662	0.53941	0.0137275	5	0.0710448	11	0	17.8753	7.40477e-06
2	0	0	0	0	0	651.239	0.547151	0.546877	0.0124233	5	0.0710644	11	0	19.3732	6.79402e-06
2	1	0	1	0	0	652.736	0.554641	0.554406	0.0154577	5	0.0710856	11	0	20.8711	8.56985e-06
2	0	0	1	0	0	654.234	0.56213	0.561873	0.0149487	5	0.0711084	11	0	22.369	8.39927e-06
2	1	0	1	0	0	655.732	0.56962	0.569414	0.0183172	5	0.0711335	11	0	23.8669	1.04301e-05
2	1	0	1	0	0	657.23	0.57711	0.576903	0.0199778	5	0.0711623	11	0	25.3649	1.15253e-05
2	1	0	0	0	0	658.728	0.584599	0.584409	0.0243955	5	0.0711957	11	0	26.8628	1.4257e-05
2	1	0	1	0	0	660.226	0.592089	0.591861	0.0305311	5	0.0712367	11	0	28.3607	1.80702e-05
2	1	0	1	0	0	661.724	0.599578	0.599365	0.0374825	5	0.0712875	11	0	29.8586	2.24657e-05
2	1	0	1	0	0	663.222	0.607068	0.606854	0.0504454	5	0.0713532	11	0	31.3565	3.0613e-05
2	1	0	1	0	0	664.72	0.614558	0.61433	0.0659492	5	0.0714398	11	0	32.8545	4.05146e-05
2	1	0	0	0	0	666.218	0.622047	0.621831	0.0895972	5	0.0715556	11	0	34.3524	5.57143e-05
2	1	0	1	0	0	667.716	0.629537	0.629306	0.122104	5	0.0717133	11	0	35.8503	7.68407e-05
2	1	0	1	0	0	669.214	0.637026	0.636806	0.166953	5	0.0719283	11	0	37.3482	0.000106317
2	1	0	1	0	0	670.712	0.644516	0.64428	0.229545	5	0.0722233	11	0	38.8462	0.000147891
2	1	0	1	0	0	672.209	0.652006	0.651759	0.309755	5	0.0726252	11	0	40.3441	0.000201885
2	1	0	0	0	0	673.707	0.659495	0.659244	0.416899	5	0.0731672	11	0	41.842	0.000274838
2	1	0	1	0	0	675.205	0.666985	0.666797	0.548871	5	0.0738874	11	0	43.3399	0.000365985
2	1	0	1	0	0	676.703	0.674475	0.674291	0.707529	5	0.0748261	11	0	44.8379	0.00047708
2	1	0	1	0	0	678.201	0.681964	0.681774	0.896173	5	0.0760254	11	0	46.3358	0.000610987
2	1	0	1	0	0	679.699	0.689454	0.689265	1.10692	5	0.0775243	11	0	47.8337	0.00076296
2	1	0	0	0	0	681.197	0.696943	0.696774	1.33156	5	0.0793506	11	0	49.3316	0.000927794
2	1	0	1	0	0	682.467	0.696693	0.696428	1.25573	5	0.0810732	11	0	50.6021	0.000874524
2	1	0	0	0	0	683.965	0.689204	0.688961	0.961164	5	0.0827209	11	0	52.1	0.000662205
2	1	0	1	0	0	685.463	0.681715	0.681556	0.738283	5	0.0839855	11	0	53.5979	0.000503181
2	1	0	1	0	0	686.961	0.674224	0.674038	0.56219	5	0.0849539	11	0	55.0959	0.000378937
2	1	0	1	0	0	688.459	0.666735	0.666503	0.419231	5	0.085684	11	0	56.5938	0.000279419
2	1	0	1	0	0	689.957	0.659246	0.659013	0.310573	5	0.086226	11	0	58.0917	0.000204672
2	1	0	0	0	0	691.455	0.651756	0.651533	0.2298	5	0.0866274	11	0	59.5896	0.000149722
2	1	0	1	0	0	692.953	0.644267	0.644068	0.164471	5	0.0869197	11	0	61.0875	0.000105931
2	1	0	1	0	0	694.451	0.636777	0.636561	0.117237	5	0.087129	11	0	62.5855	7.46285e-05
2	1	0	1	0	0	695.949	0.629287	0.629029	0.0829616	5	0.087277	11	0	64.0834	5.21853e-05
2	1	0	1	0	0	697.447	0.621798	0.621573	0.0557101	5	0.0873797	11	0	65.5813	3.46279e-05
2	1	0	1	0	0	698.945	0.614307	0.614058	0.0385367	5	0.0874494	11	0	67.0793	2.36638e-05
2	1	0	0	0	0	700.443	0.606818	0.606636	0.024229	5	0.0874954	11	0	68.5772	1.46982e-05
2	1	0	1	0	0	701.94	0.599329	0.599126	0.0142931	5	0.0875239	11	0	70.0751	8.56338e-06
2	1	0	1	0	0	703.438	0.591839	0.591629	0.00876441	5	0.0875407	11	0	71.573	5.18528e-06
2	0	0	1	0	0	704.936	0.58435	0.584092	0.00230951	5	0.0875485	11	0	73.0709	1.34897e-06
2	1	0	1	0	0	706.434	0.576859	0.576619	0.000127419	5	0.0875504	11	0	0.000000000000000E+000	7.34721e-08
2	1	0	0	0	0	707.932	0.56937	0.56916	-0.00263308	5	0.087548	11	0	0.8988	-1.49864e-06
2	0	0	1	0	0	709.43	0.561881	0.561664	-0.00545735	5	0.0875419	11	0	2.3967	-3.0652e-06
2	1	0	1	0	0	710.928	0.554391	0.554159	-0.00525698	5	0.0875338	11	0	3.8946	-2.9132e-06
2	0	0	1	0	0	712.426	0.546902	0.54672	-0.00759017	5	0.0875236	11	0	5.3925	-4.1497e-06
2	0	0	1	0	0	713.924	0.539411	0.539162	-0.00826859	5	0.0875119	11	0	6.8905	-4.45811e-06
2	1	0	0	0	0	715.422	0.531922	0.531704	-0.00765148	5	0.0874995	11	0	8.3884	-4.06832e-06
2	0	0	1	0	0	716.92	0.524433	0.524213	-0.00991667	5	0.0874861	11	0	9.8863	-5.19844e-06
2	0	0	1	0	0	718.418	0.516942	0.516769	-0.00923866	5	0.087472	11	0	11.3843	-4.77425e-06
2	0	0	1	0	0	719.916	0.509453	0.509236	-0.00902646	5	0.0874578	11	0	12.8822	-4.5966e-06
2	0	0	1	0	0	721.413	0.501964	0.50166	-0.0110544	5	0.0874426	11	0	14.3801	-5.54553e-06
2	1	0	0	0	0	722.911	0.494474	0.494251	-0.00992176	5	0.087427	11	0	15.878	-4.90384e-06
2	0	0	1	0	0	724.409	0.486985	0.486807	-0.0103426	5	0.0874112	11	0	17.3759	-5.03485e-06
2	0	0	1	0	0	725.907	0.479494	0.479296	-0.0119207	5	0.0873944	11	0	18.8739	-5.71354e-06
2	1	0	1	0	0	727.405	0.472005	0.471771	-0.0102854	5	0.0873777	11	0	20.3718	-4.85236e-06
2	0	0	1	0	0	728.903	0.464516	0.464289	-0.0120531	5	0.0873605	11	0	21.8697	-5.59614e-06
2	0	0	0	0	0	730.401	0.457026	0.456796	-0.0122292	5	0.0873426	11	0	23.3676	-5.58625e-06
2	0	0	1	0	1	731.802	0.450011	0.449735	-0.0204818	5	0.0873257	11	0	24.7682	-9.21136e-06
2	1	0	1	0	1	733.254	0.457276	0.45707	0.0111384	6	0.0873411	11	0	1.3981	5.09103e-06
2	1	0	1	0	1	734.752	0.464765	0.464516	0.0125435	6	0.0873589	11	0	2.896	5.82663e-06
2	1	0	1	0	1	736.25	0.472255	0.472004	0.0116452	6	0.0873768	11	0	4.3939	5.4966e-06
2	1	0	1	0	1	737.748	0.479745	0.479485	0.0114787	6	0.0873945	11	0	5.8919	5.50388e-06
2	1	0	0	0	1	739.246	0.487234	0.487041	0.0127068	6	0.0874127	11	0	7.3898	6.18874e-06
2	1	0	1	0	1	740.744	0.494724	0.494492	0.0112245	6	0.0874306	11	0	8.8877	5.55042e-06
2	1	0	1	0	1	742.242	0.502213	0.501973	0.0116195	6	0.0874484	11	0	10.3856	5.83268e-06
2	1	0	1	0	1	743.74	0.509702	0.509475	0.0125648	6	0.0874665	11	0	11.8835	6.40146e-06
2	1	0	1	0	1	745.238	0.517193	0.516976	0.011396	6	0.0874843	11	0	13.3815	5.89144e-06
2	1	0	0	0	1	746.736	0.524682	0.524504	0.0118098	6	0.0875023	11	0	14.8794	6.19431e-06
2	1	0	1	0	1	748.233	0.532172	0.531957	0.0133782	6	0.087521	11	0	16.3773	7.11664e-06
2	0	0	1	0	1	749.731	0.539662	0.539423	0.0120148	6	0.0875399	11	0	17.8753	6.48108e-06
2	1	0	1	0	1	751.229	0.547151	0.54694	0.0135058	6	0.0875596	11	0	19.3732	7.38688e-06
2	1	0	1	0	1	752.727	0.554641	0.55437	0.0151564	6	0.0875807	11	0	20.8711	8.40225e-06
2	1	0	0	0	1	754.225	0.56213	0.56192	0.0146712	6	0.0876031	11	0	22.369	8.24404e-06
2	1	0	1	0	1	755.723	0.56962	0.569405	0.0174178	6	0.0876277	11	0	23.8669	9.91778e-06
2	1	0	1	0	1	757.221	0.57711	0.576865	0.021037	6	0.0876562	11	0	25.3649	1.21355e-05
2	1	0	1	0	1	758.719	0.584599	0.584389	0.0232943	6	0.0876893	11	0	26.8628	1.36129e-05
2	1	0	1	0	1	760.217	0.592089	0.591845	0.0294975	6	0.0877293	11	0	28.3607	1.74579e-05
2	1	0	0	0	1	761.715	0.599578	0.599377	0.0385991	6	0.0877798	11	0	29.8586	2.31354e-05
2	1	0	1	0	1	763.213	0.607068	0.606822	0.0484491	6	0.0878443	11	0	31.3565	2.94e-05
2	1	0	1	0	1	764.711	0.614558	0.614321	0.0645346	6	0.0879289	11	0	32.8545	3.96449e-05
2	1	0	1	0	1	766.209	0.622047	0.621863	0.0884836	6	0.0880427	11	0	34.3524	5.50246e-05
2	1	0	1	0	1	767.706	0.629537	0.629313	0.119012	6	0.0881969	11	0	35.8503	7.48959e-05
2	1	0	0	0	1	769.204	0.637026	0.63686	0.163419	6	0.0884074	11	0	37.3482	0.000104075
2	1	0	0	0	1	770.702	0.644516	0.644306	0.224607	6	0.088696	11	0	38.8462	0.000144715
2	1	0	1	0	1	772.2	0.652006	0.65175	0.304215	6	0.0890894	11	0	40.3441	0.000198272
2	1	0	1	0	1	773.698	0.659495	0.659286	0.407861	6	0.0896206	11	0	41.842	0.000268897
2	1	0	1	0	1	775.196	0.666985	0.666749	0.539434	6	0.0903272	11	0	43.3399	0.000359667
2	1	0	1	0	1	776.694	0.674475	0.67426	0.69882	6	0.0912522	11	0	44.8379	0.000471187
2	1	0	0	0	1	778.192	0.681964	0.681775	0.885141	6	0.0924369	11	0	46.3358	0.000603467
2	1	0	1	0	1	779.69	0.689454	0.689183	1.09857	6	0.0939209	11	0	47.8337	0.000757117
2	1	0	1	0	1	781.188	0.696943	0.696699	1.32383	6	0.0957355	11	0	49.3316	0.000922308
2	1	0	1	0	1	782.458	0.696693	0.696485	1.24739	6	0.0974465	11	0	50.6021	0.000868789
2	1	0	1	0	1	783.956	0.689204	0.689014	0.954254	6	0.0990829	11	0	52.1	0.000657495
2	1	0	1	0	1	785.454	0.681715	0.681519	0.727812	6	0.100335	11	0	53.5979	0.000496018
2	1	0	1	0	1	786.952	0.674224	0.674023	0.550874	6	0.101287	11	0	55.0959	0.000371302
2	1	0	0	0	1	788.45	0.666735	0.666485	0.411548	6	0.102002	11	0	56.5938	0.000274291
2	1	0	1	0	1	789.948	0.659246	0.659002	0.303225	6	0.102533	11	0	58.0917	0.000199826
2	1	0	1	0	1	791.446	0.651756	0.651519	0.221196	6	0.102923	11	0	59.5896	0.000144113
2	1	0	1	0	1	792.944	0.644267	0.644076	0.158636	6	0.103204	11	0	61.0875	0.000102174
2	1	0	1	0	1	794.442	0.636777	0.636584	0.110355	6	0.103403	11	0	62.5855	7.02501e-05
2	1	0	0	0	1	795.94	0.629287	0.629069	0.076832	6	0.103542	11	0	64.0834	4.83326e-05
2	1	0	1	0	1	797.437	0.621798	0.621555	0.0533698	6	0.103638	11	0	65.5813	3.31723e-05
2	1	0	1	0	1	798.935	0.614307	0.614074	0.0350979	6	0.103703	11	0	67.0793	2.15527e-05
2	1	0	1	0	1	800.433	0.606818	0.606611	0.0223801	6	0.103746	11	0	68.5772	1.3576e-05
2	1	0	1	0	1	801.931	0.599329	0.599089	0.0148065	6	0.103774	11	0	70.0751	8.87039e-06
2	1	0	0	0	1	803.429	0.591839	0.591557	0.00744797	6	0.103789	11	0	71.573	4.4059e-06
2	0	0	1	0	1	804.927	0.58435	0.584155	0.00217989	6	0.103797	11	0	73.0709	1.27339e-06
2	1	0	1	0	1	806.425	0.576859	0.576603	-0.000507569	6	0.103798	11	0	0.1998	-2.92666e-07
2	1	0	1	0	1	807.923	0.56937	0.56916	-0.00215532	6	0.103795	11	0	1.2982	-1.22672e-06
2	0	0	1	0	1	809.421	0.561881	0.561673	-0.00537559	6	0.103789	11	0	2.7961	-3.01932e-06
2	0	0	0	0	1	810.919	0.554391	0.554223	-0.00687238	6	0.10378	11	0	4.294	-3.80883e-06
2	1	0	1	0	1	812.417	0.546902	0.546714	-0.00633774	6	0.10377	11	0	5.7919	-3.46493e-06
2	0	0	1	0	1	813.915	0.539411	0.539183	-0.00762447	6	0.103758	11	0	7.2899	-4.11099e-06
2	0	0	1	0	1	815.413	0.531922	0.531727	-0.00898177	6	0.103746	11	0	8.7878	-4.77584e-06
2	0	0	1	0	1	816.91	0.524433	0.524189	-0.00937692	6	0.103733	11	0	10.2857	-4.91528e-06
2	1	0	1	0	1	818.408	0.516942	0.516703	-0.00903274	6	0.103719	11	0	11.7837	-4.66724e-06
2	1	0	0	0	1	819.906	0.509453	0.509238	-0.00909574	6	0.103705	11	0	13.2816	-4.6319e-06
2	0	0	1	0	1	821.404	0.501964	0.501775	-0.0109895	6	0.103689	11	0	14.7795	-5.51424e-06
2	0	0	1	0	1	822.902	0.494474	0.494269	-0.0105943	6	0.103674	11	0	16.2774	-5.23646e-06
2	1	0	1	0	1	824.4	0.486985	0.48679	-0.00968151	6	0.103658	11	0	17.7753	-4.71286e-06
2	0	0	1	0	1	825.898	0.479494	0.479264	-0.0112829	6	0.103641	11	0	19.2733	-5.4075e-06
2	0	0	0	0	1	827.396	0.472005	0.471752	-0.0120892	6	0.103625	11	0	20.7712	-5.7031e-06
2	0	0	1	0	1	828.894	0.464516	0.464308	-0.0112835	6	0.103607	11	0	22.2691	-5.239e-06
2	0	0	1	0	1	830.392	0.457026	0.456751	-0.0112006	6	0.10359	11	0	23.767	-5.11586e-06
2	0	0	0	0	0	831.792	0.450011	0.449869	-0.00734556	6	0.103572	11	0	25.1676	-3.30454e-06
2	1	0	1	0	0	833.245	0.457276	0.457044	0.0124834	7	0.103588	11	0	1.3981	5.70549e-06
2	1	0	0	0	0	834.743	0.464765	0.464535	0.0117082	7	0.103606	11	0	2.896	5.43888e-06
2	1	0	1	0	0	836.241	0.472255	0.472044	0.0110614	7	0.103623	11	0	4.3939	5.22145e-06
2	1	0	1	0	0	837.739	0.479745	0.479544	0.0124808	7	0.103641	11	0	5.8919	5.9851e-06
2	1	0	1	0	0	839.237	0.487234	0.487033	0.0119404	7	0.103659	11	0	7.3898	5.81536e-06
2	1	0	1	0	0	840.735	0.494724	0.49454	0.0109185	7	0.103677	11	0	8.8877	5.39961e-06
2	1	0	0	0	0	842.233	0.502213	0.501963	0.0122275	7	0.103695	11	0	10.3856	6.13773e-06
2	1	0	1	0	0	843.73	0.509702	0.509451	0.0120084	7	0.103713	11	0	11.8835	6.11771e-06
2	0	0	1	0	0	845.228	0.517193	0.516962	0.0110786	7	0.10373	11	0	13.3815	5.72722e-06
2	1	0	1	0	0	846.726	0.524682	0.524444	0.0123735	7	0.103748	11	0	14.8794	6.48918e-06
2	1	0	1	0	0	848.224	0.532172	0.531964	0.0130456	7	0.103767	11	0	16.3773	6.9398e-06
2	0	0	1	0	0	849.722	0.539662	0.539456	0.0119354	7	0.103785	11	0	17.8753	6.43861e-06
2	1	0	0	0	0	851.22	0.547151	0.546954	0.0128061	7	0.103805	11	0	19.3732	7.00433e-06
2	1	0	1	0	0	852.718	0.554641	0.554411	0.0150202	7	0.103825	11	0	20.8711	8.32737e-06
2	1	0	1	0	0	854.216	0.56213	0.56192	0.0151979	7	0.103848	11	0	22.369	8.54002e-06
2	1	0	1	0	0	855.714	0.56962	0.569403	0.0165088	7	0.103872	11	0	23.8669	9.40013e-06
2	1	0	1	0	0	857.212	0.57711	0.576892	0.0207515	7	0.1039	11	0	25.3649	1.19714e-05
2	1	0	0	0	0	858.71	0.584599	0.584378	0.0242895	7	0.103933	11	0	26.8628	1.41943e-05
2	1	0	1	0	0	860.208	0.592089	0.591862	0.0285231	7	0.103973	11	0	28.3607	1.68817e-05
2	1	0	1	0	0	861.706	0.599578	0.599372	0.0370676	7	0.104022	11	0	29.8586	2.22173e-05
2	1	0	1	0	0	863.203	0.607068	0.606882	0.0488958	7	0.104086	11	0	31.3565	2.9674e-05
2	1	0	1	0	0	864.701	0.614558	0.61434	0.0641494	7	0.10417	11	0	32.8545	3.94095e-05
2	1	0	0	0	0	866.199	0.622047	0.621778	0.0855348	7	0.104282	11	0	34.3524	5.31837e-05
2	1	0	1	0	0	867.697	0.629537	0.629374	0.117967	7	0.104434	11	0	35.8503	7.42456e-05
2	1	0	1	0	0	869.195	0.637026	0.636849	0.162905	7	0.104642	11	0	37.3482	0.000103746
2	1	0	1	0	0	870.693	0.644516	0.644312	0.221486	7	0.104928	11	0	38.8462	0.000142706
2	1	0	1	0	0	872.191	0.652006	0.651728	0.301047	7	0.105318	11	0	40.3441	0.000196201
2	1	0	0	0	0	873.689	0.659495	0.659282	0.406339	7	0.105845	11	0	41.842	0.000267892
2	1	0	1	0	0	875.187	0.666985	0.666782	0.537172	7	0.106549	11	0	43.3399	0.000358177
2	1	0	1	0	0	876.685	0.674475	0.674224	0.69376	7	0.107468	11	0	44.8379	0.000467749
2	1	0	1	0	0	878.183	0.681964	0.681772	0.875672	7	0.10864	11	0	46.3358	0.000597009
2	1	0	1	0	0	879.681	0.689454	0.689278	1.07837	7	0.110102	11	0	47.8337	0.000743299
2	1	0	0	0	0	881.179	0.696943	0.696724	1.29567	7	0.11188	11	0	49.3316	0.000902727
2	1	0	1	0	0	882.449	0.696693	0.696428	1.24008	7	0.113563	11	0	50.6021	0.000863626
2	1	0	0	0	0	883.947	0.689204	0.689024	0.972448	7	0.115208	11	0	52.1	0.00067004
2	1	0	1	0	0	885.445	0.681715	0.681488	0.752475	7	0.116493	11	0	53.5979	0.000512802
2	1	0	1	0	0	886.943	0.674224	0.673958	0.572716	7	0.117479	11	0	55.0959	0.000385986
2	1	0	1	0	0	888.441	0.666735	0.66651	0.427891	7	0.118222	11	0	56.5938	0.000285194
2	1	0	1	0	0	889.939	0.659246	0.659007	0.316171	7	0.118776	11	0	58.0917	0.000208359
2	1	0	0	0	0	891.437	0.651756	0.651551	0.230049	7	0.119182	11	0	59.5896	0.000149888
2	1	0	1	0	0	892.934	0.644267	0.644088	0.164731	7	0.119476	11	0	61.0875	0.000106102
2	1	0	1	0	0	894.432	0.636777	0.636548	0.116872	7	0.119684	11	0	62.5855	7.4395e-05
2	1	0	1	0	0	895.93	0.629287	0.629097	0.0825961	7	0.119831	11	0	64.0834	5.19609e-05
2	1	0	1	0	0	897.428	0.621798	0.62161	0.0570347	7	0.119934	11	0	65.5813	3.54533e-05
2	1	0	1	0	0	898.926	0.614307	0.614089	0.0382562	7	0.120005	11	0	67.0793	2.34927e-05
2	1	0	0	0	0	900.424	0.606818	0.606637	0.0259532	7	0.120053	11	0	68.5772	1.57442e-05
2	1	0	1	0	0	901.922	0.599329	0.599078	0.0164035	7	0.120083	11	0	70.0751	9.827e-06
2	1	0	1	0	0	903.42	0.591839	0.591635	0.008899	7	0.120101	11	0	71.573	5.26496e-06
2	0	0	1	0	0	904.918	0.58435	0.584105	0.00279195	7	0.12011	11	0	73.0709	1.63079e-06
2	0	0	1	0	0	906.416	0.576859	0.57662	-0.00075693	7	0.120112	11	0	0.0999	-4.36461e-07
2	1	0	0	0	0	907.914	0.56937	0.569151	-0.00244445	7	0.12011	11	0	1.1983	-1.39126e-06
2	1	0	1	0	0	909.412	0.561881	0.561638	-0.00410727	7	0.120104	11	0	2.6962	-2.3068e-06
2	0	0	1	0	0	910.91	0.554391	0.554141	-0.00600728	7	0.120095	11	0	4.1941	-3.32888e-06
2	0	0	1	0	0	912.407	0.546902	0.546709	-0.00783742	7	0.120085	11	0	5.692	-4.28479e-06
2	0	0	1	0	0	913.905	0.539411	0.539231	-0.00836914	7	0.120074	11	0	7.19	-4.5129e-06
2	1	0	0	0	0	915.403	0.531922	0.53174	-0.00776774	7	0.120061	11	0	8.6879	-4.13042e-06
2	0	0	1	0	0	916.901	0.524433	0.524193	-0.00855212	7	0.120048	11	0	10.1858	-4.48296e-06
2	0	0	1	0	0	918.399	0.516942	0.516762	-0.0103005	7	0.120034	11	0	11.6838	-5.32292e-06
2	0	0	1	0	0	919.897	0.509453	0.509235	-0.0101987	7	0.120019	11	0	13.1817	-5.19352e-06
2	1	0	1	0	0	921.395	0.501964	0.501694	-0.00956565	7	0.120004	11	0	14.6796	-4.79903e-06
2	1	0	0	0	0	922.893	0.494474	0.494248	-0.00965523	7	0.119989	11	0	16.1775	-4.77208e-06
2	0	0	1	0	0	924.391	0.486985	0.486774	-0.011061	7	0.119973	11	0	17.6754	-5.38419e-06
2	0	0	1	0	0	925.889	0.479494	0.479304	-0.0118713	7	0.119956	11	0	19.1734	-5.68996e-06
2	0	0	1	0	0	927.387	0.472005	0.471752	-0.0117713	7	0.119939	11	0	20.6713	-5.55312e-06
2	0	0	1	0	0	928.885	0.464516	0.464263	-0.011556	7	0.119922	11	0	22.1692	-5.365e-06
2	0	0	0	0	0	930.383	0.457026	0.456744	-0.0115245	7	0.119904	11	0	23.6671	-5.26375e-06
2	0	0	1	0	1	931.783	0.450011	0.449812	-0.0205772	7	0.119887	11	0	25.0677	-9.25585e-06
2	0	0	1	0	1	933.236	0.457276	0.457054	0.0110272	8	0.119903	11	0	1.3981	5.04001e-06
2	1	0	1	0	1	934.734	0.464765	0.464551	0.0108017	8	0.11992	11	0	2.896	5.01796e-06
2	1	0	1	0	1	936.232	0.472255	0.472043	0.0114063	8	0.119938	11	0	4.3939	5.38427e-06
2	1	0	1	0	1	937.73	0.479745	0.479539	0.0123131	8	0.119956	11	0	5.8919	5.90462e-06
2	1	0	0	0	1	939.228	0.487234	0.487049	0.012486	8	0.119974	11	0	7.3898	6.08127e-06
2	1	0	1	0	1	940.725	0.494724	0.494471	0.0120667	8	0.119992	11	0	8.8877	5.96661e-06
2	1	0	1	0	1	942.223	0.502213	0.501952	0.0110372	8	0.120009	11	0	10.3856	5.54012e-06
2	0	0	1	0	1	943.721	0.509702	0.509442	0.0108641	8	0.120027	11	0	11.8835	5.53462e-06
2	1	0	1	0	1	945.219	0.517193	0.517013	0.0118448	8	0.120045	11	0	13.3815	6.12393e-06
2	1	0	0	0	1	946.717	0.524682	0.524471	0.0124614	8	0.120063	11	0	14.8794	6.53567e-06
2	1	0	1	0	1	948.215	0.532172	0.531985	0.012993	8	0.120081	11	0	16.3773	6.9121e-06
2	1	0	1	0	1	949.713	0.539662	0.539451	0.0130313	8	0.1201	11	0	17.8753	7.02977e-06
2	1	0	1	0	1	951.211	0.547151	0.546907	0.0125882	8	0.120119	11	0	19.3732	6.88459e-06
2	0	0	1	0	1	952.709	0.554641	0.554398	0.0134892	8	0.12014	11	0	20.8711	7.47841e-06
2	1	0	0	0	1	954.207	0.56213	0.561916	0.0151886	8	0.120162	11	0	22.369	8.53474e-06
2	1	0	1	0	1	955.705	0.56962	0.569377	0.0177446	8	0.120186	11	0	23.8669	1.01033e-05
2	1	0	1	0	1	957.203	0.57711	0.576891	0.020657	8	0.120214	11	0	25.3649	1.19168e-05
2	1	0	1	0	1	958.701	0.584599	0.584352	0.0236139	8	0.120247	11	0	26.8628	1.37988e-05
2	1	0	1	0	1	960.198	0.592089	0.591816	0.0286655	8	0.120286	11	0	28.3607	1.69647e-05
2	1	0	0	0	1	961.696	0.599578	0.599354	0.0360126	8	0.120335	11	0	29.8586	2.15843e-05
2	1	0	1	0	1	963.194	0.607068	0.606847	0.0474178	8	0.120398	11	0	31.3565	2.87754e-05
2	1	0	1	0	1	964.692	0.614558	0.61433	0.0639232	8	0.120481	11	0	32.8545	3.92699e-05
2	1	0	1	0	1	966.19	0.622047	0.621823	0.0866191	8	0.120592	11	0	34.3524	5.38617e-05
2	1	0	1	0	1	967.688	0.629537	0.629307	0.117581	8	0.120744	11	0	35.8503	7.39944e-05
2	1	0	0	0	1	969.186	0.637026	0.636828	0.160383	8	0.12095	11	0	37.3482	0.000102136
2	1	0	0	0	1	970.684	0.644516	0.644347	0.219339	8	0.121234	11	0	38.8462	0.00014133
2	1	0	1	0	1	972.182	0.652006	0.651755	0.299403	8	0.121621	11	0	40.3441	0.000195137
2	1	0	1	0	1	973.68	0.659495	0.659258	0.403135	8	0.122144	11	0	41.842	0.00026577
2	1	0	1	0	1	975.178	0.666985	0.666806	0.533788	8	0.122842	11	0	43.3399	0.000355933
2	1	0	1	0	1	976.676	0.674475	0.674292	0.694453	8	0.123759	11	0	44.8379	0.000468265
2	1	0	0	0	1	978.174	0.681964	0.681777	0.888403	8	0.124939	11	0	46.3358	0.000605693
2	1	0	1	0	1	979.671	0.689454	0.689242	1.10654	8	0.126433	11	0	47.8337	0.000762677
2	1	0	1	0	1	981.169	0.696943	0.696712	1.35078	8	0.128275	11	0	49.3316	0.000941101
2	1	0	1	0	1	982.44	0.696693	0.696474	1.28513	8	0.130028	11	0	50.6021	0.000895061
2	1	0	1	0	1	983.938	0.689204	0.689046	0.98395	8	0.131717	11	0	52.1	0.000677987
2	1	0	1	0	1	985.436	0.681715	0.681515	0.74816	8	0.133006	11	0	53.5979	0.000509882
2	1	0	1	0	1	986.934	0.674224	0.674013	0.58827	8	0.133998	11	0	55.0959	0.000396502
2	1	0	0	0	1	988.432	0.666735	0.666467	0.450908	8	0.134773	11	0	56.5938	0.000300516
2	1	0	1	0	1	989.929	0.659246	0.65904	0.339433	8	0.13536	11	0	58.0917	0.0002237
2	1	0	1	0	1	991.427	0.651756	0.651531	0.251282	8	0.135801	11	0	59.5896	0.000163718
2	1	0	1	0	1	992.925	0.644267	0.644102	0.182171	8	0.136123	11	0	61.0875	0.000117336
2	1	0	1	0	1	994.423	0.636777	0.63658	0.127699	8	0.136352	11	0	62.5855	8.12905e-05
2	1	0	0	0	1	995.921	0.629287	0.629033	0.0890682	8	0.136512	11	0	64.0834	5.60268e-05
2	1	0	1	0	1	997.419	0.621798	0.621579	0.060726	8	0.136623	11	0	65.5813	3.7746e-05
2	1	0	1	0	1	998.917	0.614307	0.614085	0.0412507	8	0.136699	11	0	67.0793	2.53315e-05
2	1	0	1	0	1	1000.41	0.606818	0.6066	0.0275031	8	0.136749	11	0	68.5772	1.66834e-05
2	1	0	1	0	1	1001.91	0.599329	0.599121	0.0163038	8	0.136781	11	0	70.0751	9.76797e-06
2	1	0	0	0	1	1003.41	0.591839	0.591612	0.00810015	8	0.136798	11	0	71.573	4.79215e-06
2	1	0	1	0	1	1004.91	0.58435	0.584117	0.00337801	8	0.136807	11	0	73.0709	1.97315e-06
2	1	0	1	0	1	1006.41	0.576859	0.576613	0.000602192	8	0.13681	11	0	0.000000000000000E+000	3.47231e-07
2	1	0	1	0	1	1007.9	0.56937	0.569205	-0.0023011	8	0.136807	11	0	0.8988	-1.3098e-06
2	0	0	1	0	1	1009.4	0.561881	0.561687	-0.00531986	8	0.136802	11	0	2.3967	-2.9881e-06
2	0	0	0	0	1	1010.9	0.554391	0.554188	-0.00688633	8	0.136793	11	0	3.8946	-3.81632e-06
2	0	0	1	0	1	1012.4	0.546902	0.546719	-0.00687276	8	0.136783	11	0	5.3925	-3.75747e-06
2	1	0	1	0	1	1013.9	0.539411	0.539213	-0.00718585	8	0.136772	11	0	6.8905	-3.8747e-06
2	0	0	1	0	1	1015.39	0.531922	0.531734	-0.00822223	8	0.136759	11	0	8.3884	-4.37204e-06
2	0	0	1	0	1	1016.89	0.524433	0.524189	-0.00961936	8	0.136746	11	0	9.8863	-5.04236e-06
2	0	0	1	0	1	1018.39	0.516942	0.516693	-0.00998536	8	0.136732	11	0	11.3843	-5.15936e-06
2	0	0	0	0	1	1019.89	0.509453	0.50922	-0.00889511	8	0.136718	11	0	12.8822	-4.52957e-06
2	0	0	1	0	1	1021.39	0.501964	0.501723	-0.00980419	8	0.136703	11	0	14.3801	-4.91899e-06
2	0	0	1	0	1	1022.88	0.494474	0.494212	-0.0114108	8	0.136687	11	0	15.878	-5.63935e-06
2	0	0	1	0	1	1024.38	0.486985	0.486775	-0.0102541	8	0.136671	11	0	17.3759	-4.99145e-06
2	1	0	1	0	1	1025.88	0.479494	0.479268	-0.0102893	8	0.136655	11	0	18.8739	-4.93131e-06
2	0	0	0	0	1	1027.38	0.472005	0.471752	-0.0120879	8	0.136638	11	0	20.3718	-5.70247e-06
2	0	0	1	0	1	1028.88	0.464516	0.464259	-0.0112013	8	0.136621	11	0	21.8697	-5.20028e-06
2	1	0	1	0	1	1030.37	0.457026	0.456782	-0.0113527	8	0.136603	11	0	23.3676	-5.18572e-06
2	0	0	0	0	0	1031.77	0.450011	0.449716	-0.00416488	8	0.136586	11	0	24.7682	-1.87302e-06
2	1	0	1	0	0	1033.23	0.457276	0.457009	0.0122324	9	0.136602	11	0	1.3981	5.59031e-06
2	0	0	0	0	0	1034.72	0.464765	0.464585	0.0104749	9	0.136619	11	0	2.896	4.86648e-06
2	1	0	1	0	0	1036.22	0.472255	0.472009	0.0125636	9	0.136637	11	0	4.3939	5.93015e-06
2	1	0	1	0	0	1037.72	0.479745	0.479553	0.0115344	9	0.136655	11	0	5.8919	5.53135e-06
2	1	0	1	0	0	1039.22	0.487234	0.486982	0.0112955	9	0.136672	11	0	7.3898	5.5007e-06
2	1	0	1	0	0	1040.72	0.494724	0.494507	0.0126564	9	0.13669	11	0	8.8877	6.25867e-06
2	1	0	0	0	0	1042.21	0.502213	0.50196	0.0107359	9	0.136708	11	0	10.3856	5.38902e-06
2	1	0	1	0	0	1043.71	0.509702	0.509436	0.0125906	9	0.136726	11	0	11.8835	6.4141e-06
2	0	0	1	0	0	1045.21	0.517193	0.516955	0.0112964	9	0.136743	11	0	13.3815	5.83971e-06
2	1	0	1	0	0	1046.71	0.524682	0.524484	0.012104	9	0.136761	11	0	14.8794	6.34834e-06
2	1	0	1	0	0	1048.21	0.532172	0.531973	0.0125412	9	0.13678	11	0	16.3773	6.67158e-06
2	1	0	1	0	0	1049.7	0.539662	0.539419	0.0119222	9	0.136798	11	0	17.8753	6.43104e-06
2	1	0	0	0	0	1051.2	0.547151	0.546962	0.0140714	9	0.136818	11	0	19.3732	7.6965e-06
2	1	0	1	0	0	1052.7	0.554641	0.554425	0.0134759	9	0.136838	11	0	20.8711	7.47136e-06
2	1	0	1	0	0	1054.2	0.56213	0.561924	0.0154425	9	0.13686	11	0	22.369	8.67752e-06
2	1	0	1	0	0	1055.7	0.56962	0.569435	0.0174617	9	0.136885	11	0	23.8669	9.94331e-06
2	1	0	1	0	0	1057.19	0.57711	0.576872	0.0190632	9	0.136912	11	0	25.3649	1.0997e-05
2	1	0	0	0	0	1058.69	0.584599	0.584349	0.0243327	9	0.136945	11	0	26.8628	1.42188e-05
2	1	0	1	0	0	1060.19	0.592089	0.591896	0.0285719	9	0.136984	11	0	28.3607	1.69116e-05
2	1	0	1	0	0	1061.69	0.599578	0.599361	0.036313	9	0.137033	11	0	29.8586	2.17646e-05
2	1	0	1	0	0	1063.19	0.607068	0.606843	0.0483927	9	0.137096	11	0	31.3565	2.93668e-05
2	1	0	1	0	0	1064.68	0.614558	0.614382	0.0629774	9	0.137178	11	0	32.8545	3.86922e-05
2	1	0	0	0	0	1066.18	0.622047	0.621824	0.0847653	9	0.137289	11	0	34.3524	5.2709e-05
2	1	0	1	0	0	1067.68	0.629537	0.629344	0.117194	9	0.137439	11	0	35.8503	7.37552e-05
2	1	0	1	0	0	1069.18	0.637026	0.636815	0.159578	9	0.137645	11	0	37.3482	0.000101622
2	1	0	1	0	0	1070.18	0.64202	0.641815	0.196582	9	0.137822	11	0	38.3469	0.000126169