File: ACS_Catal_2026/Figures_Na_K/main_figures/data/EC/20251112_2-148_alpha_reproducibility/20251112_2-148_003_alpha_Na_first_1_K1_02_PEIS_C01.mpt
EC-Lab ASCII FILE
Nb header lines : 63

Potentio Electrochemical Impedance Spectroscopy

Run on channel : 1 (SN 69187)
User :
CE vs. WE compliance from -10 V to 10 V
Electrode connection : standard
Potential control : Ewe
Ewe ctrl range : min = -1.00 V, max = 1.00 V
Safety Limits :
	Do not start on E overload
Acquisition started on : 11/12/2025 16:18:27.289
Loaded Setting File :  C:\Users\User\Documents\EC-Lab\Data\Yatsuzuka\20251030_2-147_gamma_reproducibility\20251030_2-147_001_gamma1_K_1.mps
Saved on :
	File : 20251112_2-148_003_alpha_Na_first_1_K1_02_PEIS_C01.mpr
	Directory : C:\Users\User\Documents\EC-Lab\Data\Yatsuzuka\20251112_2-148_alpha_reproducibility\
	Host : 192.109.209.127
Device : SP-150e (SN .003883)
Address : 192.109.209.128
EC-Lab for windows v11.52 (software)
Internet server v11.52 (firmware)
Command interpretor v11.50 (firmware)
Electrode material :
Initial state :
Electrolyte :
Comments :
Electrode surface area : 0.001 cm2
Characteristic mass : 0.001 g
Equivalent Weight : 0.000 g/eq.
Density : 0.000 g/cm3
Volume (V) : 0.001 cm3
Cycle Definition : Charge/Discharge alternance
Mode                Single sine
E (V)               0.4500
vs.                 Ref
tE (h:m:s)          0:00:0.0000
record              0
dI                  0.000
unit dI             mA
dt (s)              0.000
fi                  500.000
unit fi             kHz
ff                  1.000
unit ff             Hz
Nd                  6
Points              per decade
spacing             Logarithmic
Va (mV)             10.0
pw                  0.10
Na                  2
corr                0
E range min (V)     -1.000
E range max (V)     1.000
I Range             Auto
Bandwidth           5
nc cycles           0
goto Ns'            0
nr cycles           0
inc. cycle          0

freq/Hz	Re(Z)/Ohm	-Im(Z)/Ohm	|Z|/Ohm	Phase(Z)/deg	time/s	<Ewe>/V	<I>/mA	Cs/uF	Cp/uF	cycle number	I Range	|Ewe|/V	|I|/A	Ns	(Q-Qo)/mA.h	Re(Y)/Ohm-1	Im(Y)/Ohm-1	|Y|/Ohm-1	Phase(Y)/deg	Re(C)/nF	Im(C)/nF	|C|/nF	Phase(C)/deg	Re(M)	Im(M)	|M|	Phase(M)/deg	Re(Permittivity)	Im(Permittivity)	|Permittivity|	Phase(Permittivity)/deg	Re(Resistivity)/Ohm.cm	Im(Resistivity)/Ohm.cm	|Resistivity|/Ohm.cm	Phase(Resistivity)/deg	Re(Conductivity)/mS/cm	Im(Conductivity)/mS/cm	|Conductivity|/mS/cm	Phase(Conductivity)/deg	Tan(Delta)	Loss Angle(Delta)/deg	dq/mA.h
500019	15.4984	-2.17031	15.6496	7.97154	201.599	0.450141	0.010282	-0.14666	-0.00282064	1	10	0.00502173	0.000320885	0	2.10304e-05	0.0632819	-0.00886163	0.0638993	-7.97154	-2.82064	20.1425	20.339	-97.9715	0.0000000E+000	0.0000000E+000	0.0000000E+000	97.9715	0.0000000E+000	0.0000000E+000	0.0000000E+000	-97.9715	0.0000000E+000	0.0000000E+000	0.0000000E+000	7.97154	0.0000000E+000	0.0000000E+000	0.0000000E+000	-7.97154	7.14111	82.0285	2.10304e-05
339899	10.302	-1.5913	10.4242	8.78082	202.022	0.450007	0.00924962	-0.29425	-0.00685707	1	10	0.00762617	0.000731584	0	2.32766e-05	0.0948064	-0.0146443	0.0959308	-8.78082	-6.85708	44.3923	44.9188	-98.7808	0.0000000E+000	0.0000000E+000	0.0000000E+000	98.7808	0.0000000E+000	0.0000000E+000	0.0000000E+000	-98.7808	0.0000000E+000	0.0000000E+000	0.0000000E+000	8.78082	0.0000000E+000	0.0000000E+000	0.0000000E+000	-8.78082	6.47394	81.2192	2.24624e-06
231063	8.3461	-0.975499	8.40292	6.66653	202.444	0.449829	0.0098888	-0.706096	-0.00951606	1	10	0.0101687	0.00121014	0	2.55076e-05	0.118202	-0.0138155	0.119006	-6.66653	-9.51606	81.4168	81.971	-96.6665	0.0000000E+000	0.0000000E+000	0.0000000E+000	96.6665	0.0000000E+000	0.0000000E+000	0.0000000E+000	-96.6665	0.0000000E+000	0.0000000E+000	0.0000000E+000	6.66653	0.0000000E+000	0.0000000E+000	0.0000000E+000	-6.66653	8.55573	83.3335	2.23091e-06
157076	7.58293	-0.524169	7.60103	3.95427	202.866	0.449781	0.0115938	-1.93304	-0.00919258	1	10	0.0109101	0.00143535	0	2.99205e-05	0.131248	-0.00907249	0.131561	-3.95427	-9.19258	132.985	133.303	-93.9543	0.0000000E+000	0.0000000E+000	0.0000000E+000	93.9543	0.0000000E+000	0.0000000E+000	0.0000000E+000	-93.9543	0.0000000E+000	0.0000000E+000	0.0000000E+000	3.95427	0.0000000E+000	0.0000000E+000	0.0000000E+000	-3.95427	14.4666	86.0457	4.41294e-06
106786	7.34444	-0.25949	7.34902	2.0235	203.288	0.449767	0.0133101	-5.7436	-0.00716087	1	10	0.0109803	0.00149411	0	3.55989e-05	0.135988	-0.00480464	0.136073	-2.0235	-7.16086	202.677	202.803	-92.0235	0.0000000E+000	0.0000000E+000	0.0000000E+000	92.0235	0.0000000E+000	0.0000000E+000	0.0000000E+000	-92.0235	0.0000000E+000	0.0000000E+000	0.0000000E+000	2.0235	0.0000000E+000	0.0000000E+000	0.0000000E+000	-2.0235	28.3034	87.9765	5.67843e-06
72595	7.26753	-0.134047	7.26877	1.05668	203.71	0.44977	0.0141896	-16.3553	-0.00556222	1	10	0.0107713	0.00148186	0	3.64823e-05	0.137552	-0.00253708	0.137575	-1.05668	-5.56222	301.563	301.615	-91.0567	0.0000000E+000	0.0000000E+000	0.0000000E+000	91.0567	0.0000000E+000	0.0000000E+000	0.0000000E+000	-91.0567	0.0000000E+000	0.0000000E+000	0.0000000E+000	1.05668	0.0000000E+000	0.0000000E+000	0.0000000E+000	-1.05668	54.2164	88.9433	8.8333e-07
49352.4	7.2435	-0.0749282	7.24389	0.592658	204.133	0.449761	0.0143685	-43.0394	-0.00460484	1	10	0.0106431	0.00146926	0	3.81472e-05	0.13804	-0.00142791	0.138047	-0.592658	-4.60484	445.161	445.185	-90.5927	0.0000000E+000	0.0000000E+000	0.0000000E+000	90.5927	0.0000000E+000	0.0000000E+000	0.0000000E+000	-90.5927	0.0000000E+000	0.0000000E+000	0.0000000E+000	0.592658	0.0000000E+000	0.0000000E+000	0.0000000E+000	-0.592658	96.6725	89.4073	1.66493e-06
33551.1	7.22728	-0.0412944	7.22739	0.327367	204.555	0.44976	0.0142083	-114.874	-0.00375009	1	10	0.0105397	0.0014583	0	4.00231e-05	0.13836	-0.000790547	0.138362	-0.327367	-3.75012	656.334	656.345	-90.3274	0.0000000E+000	0.0000000E+000	0.0000000E+000	90.3274	0.0000000E+000	0.0000000E+000	0.0000000E+000	-90.3274	0.0000000E+000	0.0000000E+000	0.0000000E+000	0.327367	0.0000000E+000	0.0000000E+000	0.0000000E+000	-0.327367	175.018	89.6726	1.87588e-06
22806.6	7.22688	-0.00995352	7.22688	0.078913	204.977	0.449775	0.0134554	-701.106	-0.00132995	1	10	0.0105177	0.00145536	0	4.16707e-05	0.138372	-0.000190579	0.138372	-0.078913	-1.32991	965.626	965.627	-90.0789	0.0000000E+000	0.0000000E+000	0.0000000E+000	90.0789	0.0000000E+000	0.0000000E+000	0.0000000E+000	-90.0789	0.0000000E+000	0.0000000E+000	0.0000000E+000	0.078913	0.0000000E+000	0.0000000E+000	0.0000000E+000	-0.078913	726.062	89.9211	1.64758e-06
15504.4	7.21764	0.000403102	7.21764	-0.00319994	205.399	0.449771	0.0115883	25465.4	7.9431e-05	1	10	0.0103587	0.00143519	0	4.18639e-05	0.138549	7.73792e-06	0.138549	0.00319994	0.0793509	1422.23	1422.23	-89.9968	0.0000000E+000	0.0000000E+000	0.0000000E+000	89.9968	0.0000000E+000	0.0000000E+000	0.0000000E+000	-89.9968	0.0000000E+000	0.0000000E+000	0.0000000E+000	-0.00319994	0.0000000E+000	0.0000000E+000	0.0000000E+000	0.00319994	17905.2	89.9968	1.93197e-07
10540.4	7.22444	0.00675283	7.22444	-0.0535555	205.821	0.449769	0.0101255	2236.03	0.00195362	1	10	0.0103646	0.00143465	0	4.30916e-05	0.138419	0.000129383	0.138419	0.0535555	1.95373	2090.06	2090.06	-89.9464	0.0000000E+000	0.0000000E+000	0.0000000E+000	89.9464	0.0000000E+000	0.0000000E+000	0.0000000E+000	-89.9464	0.0000000E+000	0.0000000E+000	0.0000000E+000	-0.0535555	0.0000000E+000	0.0000000E+000	0.0000000E+000	0.0535555	1069.84	89.9464	1.22776e-06
7163.78	7.22716	0.0221792	7.2272	-0.175832	206.345	0.44975	0.00807753	1001.69	0.00943374	1	10	0.0101421	0.00140332	0	4.4281e-05	0.138366	0.000424625	0.138366	0.175832	9.43385	3074.01	3074.03	-89.8242	0.0000000E+000	0.0000000E+000	0.0000000E+000	89.8242	0.0000000E+000	0.0000000E+000	0.0000000E+000	-89.8242	0.0000000E+000	0.0000000E+000	0.0000000E+000	-0.175832	0.0000000E+000	0.0000000E+000	0.0000000E+000	0.175832	325.853	89.8242	1.18935e-06
4871.56	7.23243	0.026467	7.23248	-0.209673	207.034	0.44976	0.0137238	1234.37	0.0165304	1	10	0.0101025	0.00139682	0	4.42709e-05	0.138264	0.000505977	0.138265	0.209673	16.5303	4517.12	4517.15	-89.7903	0.0000000E+000	0.0000000E+000	0.0000000E+000	89.7903	0.0000000E+000	0.0000000E+000	0.0000000E+000	-89.7903	0.0000000E+000	0.0000000E+000	0.0000000E+000	-0.209673	0.0000000E+000	0.0000000E+000	0.0000000E+000	0.209673	273.262	89.7903	-1.00188e-08
3311.06	7.24036	0.0439556	7.24049	-0.347833	207.5	0.449769	0.0110609	1093.55	0.0403024	1	10	0.0106092	0.00146526	0	4.47329e-05	0.13811	0.000838452	0.138112	0.347833	40.3022	6638.61	6638.73	-89.6522	0.0000000E+000	0.0000000E+000	0.0000000E+000	89.6522	0.0000000E+000	0.0000000E+000	0.0000000E+000	-89.6522	0.0000000E+000	0.0000000E+000	0.0000000E+000	-0.347833	0.0000000E+000	0.0000000E+000	0.0000000E+000	0.347833	164.72	89.6522	4.61958e-07
2250.72	7.24185	0.0649213	7.24214	-0.513629	207.965	0.44977	0.0126038	1089.21	0.0875291	1	10	0.0108664	0.00150044	0	4.7486e-05	0.138075	0.00123781	0.138081	0.513629	87.5287	9763.7	9764.09	-89.4864	0.0000000E+000	0.0000000E+000	0.0000000E+000	89.4864	0.0000000E+000	0.0000000E+000	0.0000000E+000	-89.4864	0.0000000E+000	0.0000000E+000	0.0000000E+000	-0.513629	0.0000000E+000	0.0000000E+000	0.0000000E+000	0.513629	111.548	89.4864	2.75313e-06
1530.49	7.24414	0.0851931	7.24465	-0.673783	208.43	0.449768	0.0131964	1220.63	0.168795	1	10	0.0109938	0.00151751	0	5.04193e-05	0.138023	0.00162319	0.138033	0.673783	168.795	14353	14354	-89.3262	0.0000000E+000	0.0000000E+000	0.0000000E+000	89.3262	0.0000000E+000	0.0000000E+000	0.0000000E+000	-89.3262	0.0000000E+000	0.0000000E+000	0.0000000E+000	-0.673783	0.0000000E+000	0.0000000E+000	0.0000000E+000	0.673783	85.0321	89.3262	2.93331e-06
1040.33	7.24832	0.110639	7.24916	-0.8745	209.117	0.449764	0.0130809	1382.74	0.322092	1	10	0.0100736	0.00138962	0	5.09743e-05	0.137931	0.00210539	0.137947	0.8745	322.091	21101.3	21103.8	-89.1255	0.0000000E+000	0.0000000E+000	0.0000000E+000	89.1255	0.0000000E+000	0.0000000E+000	0.0000000E+000	-89.1255	0.0000000E+000	0.0000000E+000	0.0000000E+000	-0.8745	0.0000000E+000	0.0000000E+000	0.0000000E+000	0.8745	65.5133	89.1255	5.54952e-07
707.036	7.26052	0.160761	7.2623	-1.26842	209.581	0.449767	0.0118268	1400.23	0.686135	1	10	0.0101087	0.00139194	0	5.34276e-05	0.137664	0.00304811	0.137697	1.26842	686.133	30988.3	30995.9	-88.7316	0.0000000E+000	0.0000000E+000	0.0000000E+000	88.7316	0.0000000E+000	0.0000000E+000	0.0000000E+000	-88.7316	0.0000000E+000	0.0000000E+000	0.0000000E+000	-1.26842	0.0000000E+000	0.0000000E+000	0.0000000E+000	1.26842	45.1636	88.7316	2.4533e-06
480.769	7.26714	0.220465	7.27048	-1.73766	210.046	0.449766	0.0100509	1501.57	1.38069	1	10	0.010114	0.0013911	0	5.54808e-05	0.137479	0.00417073	0.137542	1.73766	1380.69	45511.4	45532.4	-88.2623	0.0000000E+000	0.0000000E+000	0.0000000E+000	88.2623	0.0000000E+000	0.0000000E+000	0.0000000E+000	-88.2623	0.0000000E+000	0.0000000E+000	0.0000000E+000	-1.73766	0.0000000E+000	0.0000000E+000	0.0000000E+000	1.73766	32.9628	88.2623	2.05325e-06
326.778	7.28349	0.320614	7.29054	-2.52049	210.509	0.449772	0.0129896	1519.1	2.93785	1	10	0.0101226	0.00138846	0	5.77499e-05	0.137031	0.00603202	0.137164	2.52049	2937.86	66740.2	66804.8	-87.4795	0.0000000E+000	0.0000000E+000	0.0000000E+000	87.4795	0.0000000E+000	0.0000000E+000	0.0000000E+000	-87.4795	0.0000000E+000	0.0000000E+000	0.0000000E+000	-2.52049	0.0000000E+000	0.0000000E+000	0.0000000E+000	2.52049	22.7173	87.4795	2.26905e-06
222.061	7.30213	0.443705	7.31559	-3.47724	210.97	0.449769	0.0105205	1615.3	5.94215	1	10	0.0101317	0.00138495	0	5.81252e-05	0.136443	0.00829078	0.136694	3.47724	5942.15	97790.9	97971.3	-86.5228	0.0000000E+000	0.0000000E+000	0.0000000E+000	86.5228	0.0000000E+000	0.0000000E+000	0.0000000E+000	-86.5228	0.0000000E+000	0.0000000E+000	0.0000000E+000	-3.47724	0.0000000E+000	0.0000000E+000	0.0000000E+000	3.47724	16.4572	86.5228	3.75279e-07
151.015	7.33025	0.64292	7.35839	-5.01246	211.432	0.449762	0.0119554	1639.24	12.5139	1	10	0.0101321	0.00137694	0	5.9721e-05	0.13538	0.0118739	0.135899	5.01246	12513.9	142677	143225	-84.9875	0.0000000E+000	0.0000000E+000	0.0000000E+000	84.9875	0.0000000E+000	0.0000000E+000	0.0000000E+000	-84.9875	0.0000000E+000	0.0000000E+000	0.0000000E+000	-5.01246	0.0000000E+000	0.0000000E+000	0.0000000E+000	5.01246	11.4015	84.9875	1.59579e-06
102.667	7.36888	0.904474	7.42418	-6.99762	211.907	0.449773	0.0130287	1713.92	25.4382	1	10	0.0101389	0.00136566	0	6.07649e-05	0.133692	0.0164096	0.134695	6.99762	25438.2	207249	208804	-83.0024	0.0000000E+000	0.0000000E+000	0.0000000E+000	83.0024	0.0000000E+000	0.0000000E+000	0.0000000E+000	-83.0024	0.0000000E+000	0.0000000E+000	0.0000000E+000	-6.99762	0.0000000E+000	0.0000000E+000	0.0000000E+000	6.99762	8.14714	83.0024	1.0439e-06
69.7545	7.41864	1.2779	7.5279	-9.77361	212.374	0.449766	0.0100789	1785.46	51.4515	1	10	0.010143	0.00134738	0	6.13872e-05	0.130911	0.0225502	0.132839	9.77361	51451.5	298693	303092	-80.2264	0.0000000E+000	0.0000000E+000	0.0000000E+000	80.2264	0.0000000E+000	0.0000000E+000	0.0000000E+000	-80.2264	0.0000000E+000	0.0000000E+000	0.0000000E+000	-9.77361	0.0000000E+000	0.0000000E+000	0.0000000E+000	9.77361	5.80532	80.2264	6.22366e-07
47.4443	7.48611	1.81544	7.70309	-13.6315	212.818	0.449754	0.0120523	1847.8	102.633	1	10	0.0101457	0.0013171	0	6.21329e-05	0.126161	0.030595	0.129818	13.6315	102633	423216	435482	-76.3685	0.0000000E+000	0.0000000E+000	0.0000000E+000	76.3685	0.0000000E+000	0.0000000E+000	0.0000000E+000	-76.3685	0.0000000E+000	0.0000000E+000	0.0000000E+000	-13.6315	0.0000000E+000	0.0000000E+000	0.0000000E+000	13.6315	4.12358	76.3685	7.45676e-07
32.2387	7.56419	2.58658	7.99421	-18.8782	213.255	0.449753	0.00930926	1908.61	199.811	1	10	0.0101545	0.00127023	0	6.42962e-05	0.118362	0.0404739	0.125091	18.8782	199811	584325	617544	-71.1218	0.0000000E+000	0.0000000E+000	0.0000000E+000	71.1218	0.0000000E+000	0.0000000E+000	0.0000000E+000	-71.1218	0.0000000E+000	0.0000000E+000	0.0000000E+000	-18.8782	0.0000000E+000	0.0000000E+000	0.0000000E+000	18.8782	2.9244	71.1218	2.16331e-06
21.9144	7.67933	3.68507	8.51774	-25.6349	213.686	0.449754	0.00859556	1970.81	368.881	1	10	0.0101572	0.00119247	0	6.41864e-05	0.105846	0.0507922	0.117402	25.6349	368881	768713	852639	-64.3651	0.0000000E+000	0.0000000E+000	0.0000000E+000	64.3651	0.0000000E+000	0.0000000E+000	0.0000000E+000	-64.3651	0.0000000E+000	0.0000000E+000	0.0000000E+000	-25.6349	0.0000000E+000	0.0000000E+000	0.0000000E+000	25.6349	2.0839	64.3651	-1.0981e-07
14.9093	7.8119	5.24958	9.4119	-33.901	214.153	0.449768	0.0122237	2033.47	632.603	1	10	0.0101539	0.00107884	0	6.40705e-05	0.0881865	0.0592611	0.106248	33.901	632603	941377	1.13419e+06	-56.099	0.0000000E+000	0.0000000E+000	0.0000000E+000	56.099	0.0000000E+000	0.0000000E+000	0.0000000E+000	-56.099	0.0000000E+000	0.0000000E+000	0.0000000E+000	-33.901	0.0000000E+000	0.0000000E+000	0.0000000E+000	33.901	1.4881	56.099	-1.15939e-07
10.1329	7.94787	7.53519	10.9521	-43.4732	214.613	0.449759	0.00945647	2084.44	986.704	1	10	0.0101694	0.000928536	0	6.12762e-05	0.0662611	0.0628206	0.091307	43.4732	986704	1.04074e+06	1.43413e+06	-46.5268	0.0000000E+000	0.0000000E+000	0.0000000E+000	46.5268	0.0000000E+000	0.0000000E+000	0.0000000E+000	-46.5268	0.0000000E+000	0.0000000E+000	0.0000000E+000	-43.4732	0.0000000E+000	0.0000000E+000	0.0000000E+000	43.4732	1.05477	46.5268	-2.79428e-06
6.88933	8.1672	10.8929	13.6146	-53.1383	215.166	0.449758	0.000531489	2120.81	1357.61	1	11	0.0101861	0.000748177	0	6.02652e-05	0.0440618	0.0587667	0.0734505	53.1383	1.35761e+06	1.0179e+06	1.69683e+06	-36.8617	0.0000000E+000	0.0000000E+000	0.0000000E+000	36.8617	0.0000000E+000	0.0000000E+000	0.0000000E+000	-36.8617	0.0000000E+000	0.0000000E+000	0.0000000E+000	-53.1383	0.0000000E+000	0.0000000E+000	0.0000000E+000	53.1383	0.749775	36.8617	-1.01094e-06
4.68375	8.5114	15.8507	17.9913	-61.7654	215.663	0.449771	0.000711139	2143.77	1663.98	1	11	0.0101809	0.000565879	0	6.04418e-05	0.0262951	0.048969	0.0555823	61.7654	1.66398e+06	893513	1.8887e+06	-28.2346	0.0000000E+000	0.0000000E+000	0.0000000E+000	28.2346	0.0000000E+000	0.0000000E+000	0.0000000E+000	-28.2346	0.0000000E+000	0.0000000E+000	0.0000000E+000	-61.7654	0.0000000E+000	0.0000000E+000	0.0000000E+000	61.7654	0.536974	28.2346	1.76586e-07
3.18099	8.6989	23.013	24.6022	-69.2934	216.367	0.449771	0.000288082	2174.13	1902.32	1	11	0.0101809	0.000413823	0	6.75048e-05	0.014372	0.0380212	0.0406468	69.2934	1.90232e+06	719078	2.03369e+06	-20.7066	0.0000000E+000	0.0000000E+000	0.0000000E+000	20.7066	0.0000000E+000	0.0000000E+000	0.0000000E+000	-20.7066	0.0000000E+000	0.0000000E+000	0.0000000E+000	-69.2934	0.0000000E+000	0.0000000E+000	0.0000000E+000	69.2934	0.378	20.7066	7.06293e-06
2.16533	9.26316	33.4765	34.7345	-74.5329	217.378	0.449784	0.00222323	2195.61	2039.46	1	11	0.0101762	0.000292972	0	6.57097e-05	0.00767782	0.0277472	0.0287898	74.5329	2.03946e+06	564331	2.1161e+06	-15.4671	0.0000000E+000	0.0000000E+000	0.0000000E+000	15.4671	0.0000000E+000	0.0000000E+000	0.0000000E+000	-15.4671	0.0000000E+000	0.0000000E+000	0.0000000E+000	-74.5329	0.0000000E+000	0.0000000E+000	0.0000000E+000	74.5329	0.276706	15.4671	-1.79509e-06
1.46962	9.82557	48.6789	49.6606	-78.5885	219.578	0.44977	0.000347624	2224.72	2137.63	1	12	0.0101896	0.000205184	0	5.98258e-05	0.00398414	0.0197386	0.0201367	78.5885	2.13763e+06	431469	2.18074e+06	-11.4115	0.0000000E+000	0.0000000E+000	0.0000000E+000	11.4115	0.0000000E+000	0.0000000E+000	0.0000000E+000	-11.4115	0.0000000E+000	0.0000000E+000	0.0000000E+000	-78.5885	0.0000000E+000	0.0000000E+000	0.0000000E+000	78.5885	0.201845	11.4115	-5.88385e-06
1.00006	10.8077	70.8102	71.6302	-81.3219	221.718	0.449783	0.000432428	2247.48	2196.32	1	12	0.0101786	0.0001421	0	5.96226e-05	0.00210641	0.0138008	0.0139606	81.3219	2.19632e+06	335223	2.22175e+06	-8.67806	0.0000000E+000	0.0000000E+000	0.0000000E+000	8.67806	0.0000000E+000	0.0000000E+000	0.0000000E+000	-8.67806	0.0000000E+000	0.0000000E+000	0.0000000E+000	-81.3219	0.0000000E+000	0.0000000E+000	0.0000000E+000	81.3219	0.15263	8.67807	-2.03252e-07