File: ACS_Catal_2026/Figures_Na_K/main_figures/data/EC/20251112_2-148_alpha_reproducibility/20251112_2-148_002_alpha_reproducibility_2_K2_02_PEIS_C02.mpt
EC-Lab ASCII FILE
Nb header lines : 63

Potentio Electrochemical Impedance Spectroscopy

Run on channel : 2 (SN 69290)
User :
CE vs. WE compliance from -10 V to 10 V
Electrode connection : standard
Potential control : Ewe
Ewe ctrl range : min = -1.00 V, max = 1.00 V
Safety Limits :
	Do not start on E overload
Acquisition started on : 11/12/2025 14:40:45.077
Loaded Setting File :  C:\Users\User\Documents\EC-Lab\Data\Yatsuzuka\20251112_2-148_alpha_reproducibility\20251112_2-148_002_alpha_reproducibility_2_K1.mps
Saved on :
	File : 20251112_2-148_002_alpha_reproducibility_2_K2_02_PEIS_C02.mpr
	Directory : C:\Users\User\Documents\EC-Lab\Data\Yatsuzuka\20251112_2-148_alpha_reproducibility\
	Host : 192.109.209.127
Device : SP-150e (SN .003883)
Address : 192.109.209.128
EC-LAB for windows v11.52 (software)
Internet server v11.52 (firmware)
Command interpretor v11.50 (firmware)
Electrode material :
Initial state :
Electrolyte :
Comments :
Electrode surface area : 0.001 cm2
Characteristic mass : 0.001 g
Equivalent Weight : 0.000 g/eq.
Density : 0.000 g/cm3
Volume (V) : 0.001 cm3
Cycle Definition : Charge/Discharge alternance
Mode                Single sine
E (V)               0.4500
vs.                 Ref
tE (h:m:s)          0:00:0.0000
record              0
dI                  0.000
unit dI             mA
dt (s)              0.000
fi                  500.000
unit fi             kHz
ff                  1.000
unit ff             Hz
Nd                  6
Points              per decade
spacing             Logarithmic
Va (mV)             10.0
pw                  0.10
Na                  2
corr                0
E range min (V)     -1.000
E range max (V)     1.000
I Range             Auto
Bandwidth           5
nc cycles           0
goto Ns'            0
nr cycles           0
inc. cycle          0

freq/Hz	Re(Z)/Ohm	-Im(Z)/Ohm	|Z|/Ohm	Phase(Z)/deg	time/s	<Ewe>/V	<I>/mA	Cs/uF	Cp/uF	cycle number	I Range	|Ewe|/V	|I|/A	Ns	(Q-Qo)/mA.h	Re(Y)/Ohm-1	Im(Y)/Ohm-1	|Y|/Ohm-1	Phase(Y)/deg	Re(C)/nF	Im(C)/nF	|C|/nF	Phase(C)/deg	Re(M)	Im(M)	|M|	Phase(M)/deg	Re(Permittivity)	Im(Permittivity)	|Permittivity|	Phase(Permittivity)/deg	Re(Resistivity)/Ohm.cm	Im(Resistivity)/Ohm.cm	|Resistivity|/Ohm.cm	Phase(Resistivity)/deg	Re(Conductivity)/mS/cm	Im(Conductivity)/mS/cm	|Conductivity|/mS/cm	Phase(Conductivity)/deg	Tan(Delta)	Loss Angle(Delta)/deg	dq/mA.h	Pwe/W	Rwe/Ohm
500019	12.5908	-2.32678	12.804	10.4702	201.82	0.449769	0.0180023	-0.136798	-0.00451753	1	10	0.00435678	0.000340269	0	3.12802e-05	0.0768005	-0.0141928	0.0781009	-10.4702	-4.51753	24.4454	24.8594	-100.47	0.0000000E+000	0.0000000E+000	0.0000000E+000	100.47	0.0000000E+000	0.0000000E+000	0.0000000E+000	-100.47	0.0000000E+000	0.0000000E+000	0.0000000E+000	10.4702	0.0000000E+000	0.0000000E+000	0.0000000E+000	-10.4702	5.41124	79.5298	3.12802e-05	8.09688e-06	24983.9
339899	8.24663	-1.37006	8.35966	9.43276	202.242	0.449666	0.0187109	-0.341766	-0.0091798	1	10	0.00652046	0.000779991	0	3.46818e-05	0.118005	-0.0196049	0.119622	-9.43276	-9.1798	55.2546	56.012	-99.4328	0.0000000E+000	0.0000000E+000	0.0000000E+000	99.4328	0.0000000E+000	0.0000000E+000	0.0000000E+000	-99.4328	0.0000000E+000	0.0000000E+000	0.0000000E+000	9.43276	0.0000000E+000	0.0000000E+000	0.0000000E+000	-9.43276	6.01915	80.5672	3.40158e-06	8.41363e-06	24032.3
231063	6.71344	-0.6731	6.74709	5.72544	202.665	0.449545	0.0168277	-1.02332	-0.0101844	1	10	0.00998646	0.00148011	0	3.84267e-05	0.147473	-0.0147858	0.148212	-5.72544	-10.1844	101.579	102.088	-95.7254	0.0000000E+000	0.0000000E+000	0.0000000E+000	95.7254	0.0000000E+000	0.0000000E+000	0.0000000E+000	-95.7254	0.0000000E+000	0.0000000E+000	0.0000000E+000	5.72544	0.0000000E+000	0.0000000E+000	0.0000000E+000	-5.72544	9.9739	84.2746	3.74493e-06	7.56482e-06	26714.6
157076	6.19636	-0.24724	6.20129	2.28494	203.087	0.449525	0.0169526	-4.0982	-0.00651426	1	10	0.0109331	0.00176304	0	3.71639e-05	0.161129	-0.00642916	0.161257	-2.28494	-6.51426	163.261	163.391	-92.2849	0.0000000E+000	0.0000000E+000	0.0000000E+000	92.2849	0.0000000E+000	0.0000000E+000	0.0000000E+000	-92.2849	0.0000000E+000	0.0000000E+000	0.0000000E+000	2.28494	0.0000000E+000	0.0000000E+000	0.0000000E+000	-2.28494	25.0622	87.7151	-1.26278e-06	7.62063e-06	26516.5
106786	6.08307	-0.0514082	6.08328	0.484197	203.645	0.449523	0.016962	-28.9916	-0.00207043	1	10	0.0101131	0.00166244	0	4.25977e-05	0.164379	-0.00138917	0.164385	-0.484197	-2.07044	244.991	245	-90.4842	0.0000000E+000	0.0000000E+000	0.0000000E+000	90.4842	0.0000000E+000	0.0000000E+000	0.0000000E+000	-90.4842	0.0000000E+000	0.0000000E+000	0.0000000E+000	0.484197	0.0000000E+000	0.0000000E+000	0.0000000E+000	-0.484197	118.329	89.5158	5.43371e-06	7.62479e-06	26501.8
72595	6.06359	0.0238399	6.06363	-0.225266	204.068	0.449527	0.0170589	91.9622	0.00142152	1	10	0.0106428	0.00175519	0	4.10257e-05	0.164916	0.000648393	0.164918	0.225266	1.42151	361.557	361.56	-89.7747	0.0000000E+000	0.0000000E+000	0.0000000E+000	89.7747	0.0000000E+000	0.0000000E+000	0.0000000E+000	-89.7747	0.0000000E+000	0.0000000E+000	0.0000000E+000	-0.225266	0.0000000E+000	0.0000000E+000	0.0000000E+000	0.225266	254.346	89.7747	-1.572e-06	7.66845e-06	26351.4
49352.4	6.06876	0.0436248	6.06892	-0.411858	204.49	0.449539	0.0187146	73.9229	0.00381964	1	10	0.0106286	0.00175131	0	4.11957e-05	0.16477	0.00118443	0.164774	0.411858	3.81963	531.361	531.375	-89.5881	0.0000000E+000	0.0000000E+000	0.0000000E+000	89.5881	0.0000000E+000	0.0000000E+000	0.0000000E+000	-89.5881	0.0000000E+000	0.0000000E+000	0.0000000E+000	-0.411858	0.0000000E+000	0.0000000E+000	0.0000000E+000	0.411858	139.113	89.5881	1.69997e-07	8.41296e-06	24020.8
33551.1	6.07538	0.0498481	6.07559	-0.470097	204.912	0.449538	0.0174859	95.1624	0.00640598	1	10	0.0105552	0.00173731	0	4.01739e-05	0.164588	0.00135043	0.164593	0.470097	6.40603	780.748	780.775	-89.5299	0.0000000E+000	0.0000000E+000	0.0000000E+000	89.5299	0.0000000E+000	0.0000000E+000	0.0000000E+000	-89.5299	0.0000000E+000	0.0000000E+000	0.0000000E+000	-0.470097	0.0000000E+000	0.0000000E+000	0.0000000E+000	0.470097	121.878	89.5299	-1.0218e-06	7.86058e-06	25708.6
22806.6	6.0876	0.0531151	6.08783	-0.499901	205.335	0.449535	0.0162497	131.384	0.0100012	1	10	0.0104744	0.00172056	0	4.3605e-05	0.164256	0.00143316	0.164262	0.499901	10.0012	1146.26	1146.3	-89.5001	0.0000000E+000	0.0000000E+000	0.0000000E+000	89.5001	0.0000000E+000	0.0000000E+000	0.0000000E+000	-89.5001	0.0000000E+000	0.0000000E+000	0.0000000E+000	-0.499901	0.0000000E+000	0.0000000E+000	0.0000000E+000	0.499901	114.611	89.5001	3.4311e-06	7.30482e-06	27664.2
15504.4	6.1009	0.0471428	6.10109	-0.442726	205.757	0.449537	0.0175512	217.746	0.0130007	1	10	0.0104393	0.00171106	0	4.73108e-05	0.1639	0.00126649	0.163905	0.442726	13.0007	1682.46	1682.51	-89.5573	0.0000000E+000	0.0000000E+000	0.0000000E+000	89.5573	0.0000000E+000	0.0000000E+000	0.0000000E+000	-89.5573	0.0000000E+000	0.0000000E+000	0.0000000E+000	-0.442726	0.0000000E+000	0.0000000E+000	0.0000000E+000	0.442726	129.413	89.5573	3.70587e-06	7.88989e-06	25612.9
10540.4	6.10443	0.0524375	6.10465	-0.492163	206.179	0.449538	0.016177	287.953	0.0212463	1	10	0.0103263	0.00169155	0	4.86506e-05	0.163803	0.00140708	0.163809	0.492163	21.2464	2473.36	2473.45	-89.5078	0.0000000E+000	0.0000000E+000	0.0000000E+000	89.5078	0.0000000E+000	0.0000000E+000	0.0000000E+000	-89.5078	0.0000000E+000	0.0000000E+000	0.0000000E+000	-0.492163	0.0000000E+000	0.0000000E+000	0.0000000E+000	0.492163	116.413	89.5078	1.33977e-06	7.27217e-06	27788.7
7163.78	6.11845	0.0488665	6.11865	-0.457597	206.703	0.449518	0.0116406	454.639	0.0289987	1	10	0.0102349	0.00167273	0	4.96995e-05	0.16343	0.00130527	0.163435	0.457597	28.9986	3630.85	3630.97	-89.5424	0.0000000E+000	0.0000000E+000	0.0000000E+000	89.5424	0.0000000E+000	0.0000000E+000	0.0000000E+000	-89.5424	0.0000000E+000	0.0000000E+000	0.0000000E+000	-0.457597	0.0000000E+000	0.0000000E+000	0.0000000E+000	0.457597	125.207	89.5424	1.04888e-06	5.23267e-06	38616.3
4871.56	6.1267	0.0535959	6.12694	-0.501206	207.392	0.44953	0.0163709	609.566	0.0466441	1	10	0.0101147	0.00165086	0	5.00884e-05	0.163207	0.00142773	0.163214	0.501206	46.6441	5332.03	5332.23	-89.4988	0.0000000E+000	0.0000000E+000	0.0000000E+000	89.4988	0.0000000E+000	0.0000000E+000	0.0000000E+000	-89.4988	0.0000000E+000	0.0000000E+000	0.0000000E+000	-0.501206	0.0000000E+000	0.0000000E+000	0.0000000E+000	0.501206	114.313	89.4988	3.88913e-07	7.35921e-06	27459.1
3311.06	6.13508	0.0574562	6.13535	-0.53657	207.857	0.449535	0.016742	836.596	0.0733688	1	10	0.0106885	0.00174212	0	5.08617e-05	0.162983	0.00152636	0.16299	0.53657	73.3684	7834.2	7834.54	-89.4634	0.0000000E+000	0.0000000E+000	0.0000000E+000	89.4634	0.0000000E+000	0.0000000E+000	0.0000000E+000	-89.4634	0.0000000E+000	0.0000000E+000	0.0000000E+000	-0.53657	0.0000000E+000	0.0000000E+000	0.0000000E+000	0.53657	106.778	89.4634	7.73295e-07	7.52609e-06	26850.8
2250.72	6.14204	0.0692361	6.14243	-0.645839	208.322	0.449536	0.0166748	1021.33	0.129763	1	10	0.010986	0.00178854	0	5.45118e-05	0.162792	0.00183507	0.162802	0.645839	129.762	11511.5	11512.2	-89.3542	0.0000000E+000	0.0000000E+000	0.0000000E+000	89.3542	0.0000000E+000	0.0000000E+000	0.0000000E+000	-89.3542	0.0000000E+000	0.0000000E+000	0.0000000E+000	-0.645839	0.0000000E+000	0.0000000E+000	0.0000000E+000	0.645839	88.7115	89.3542	3.65015e-06	7.49594e-06	26959
1530.49	6.14951	0.0886271	6.15015	-0.825693	209.009	0.449539	0.0169993	1173.34	0.243661	1	10	0.0101702	0.00165365	0	6.12364e-05	0.162581	0.00234313	0.162598	0.825693	243.66	16906.7	16908.5	-89.1743	0.0000000E+000	0.0000000E+000	0.0000000E+000	89.1743	0.0000000E+000	0.0000000E+000	0.0000000E+000	-89.1743	0.0000000E+000	0.0000000E+000	0.0000000E+000	-0.825693	0.0000000E+000	0.0000000E+000	0.0000000E+000	0.825693	69.3863	89.1743	6.72453e-06	7.64182e-06	26444.6
1040.33	6.14687	0.114137	6.14793	-1.06377	209.474	0.449539	0.0169657	1340.36	0.461975	1	10	0.0102268	0.00166346	0	6.23016e-05	0.162628	0.00301975	0.162656	1.06377	461.974	24879.7	24883.9	-88.9362	0.0000000E+000	0.0000000E+000	0.0000000E+000	88.9362	0.0000000E+000	0.0000000E+000	0.0000000E+000	-88.9362	0.0000000E+000	0.0000000E+000	0.0000000E+000	-1.06377	0.0000000E+000	0.0000000E+000	0.0000000E+000	1.06377	53.855	88.9362	1.0652e-06	7.62674e-06	26497
707.036	6.15867	0.156698	6.16066	-1.45749	209.939	0.449535	0.0161416	1436.53	0.929369	1	10	0.0102646	0.00166616	0	6.44735e-05	0.162268	0.00412867	0.16232	1.45749	929.371	36526.7	36538.5	-88.5425	0.0000000E+000	0.0000000E+000	0.0000000E+000	88.5425	0.0000000E+000	0.0000000E+000	0.0000000E+000	-88.5425	0.0000000E+000	0.0000000E+000	0.0000000E+000	-1.45749	0.0000000E+000	0.0000000E+000	0.0000000E+000	1.45749	39.3027	88.5425	2.17194e-06	7.25621e-06	27849.5
480.769	6.16877	0.213707	6.17247	-1.98413	210.404	0.449534	0.016108	1549.05	1.85688	1	10	0.0102834	0.00166602	0	6.68598e-05	0.161913	0.0056092	0.16201	1.98413	1856.88	53599.9	53632.1	-88.0159	0.0000000E+000	0.0000000E+000	0.0000000E+000	88.0159	0.0000000E+000	0.0000000E+000	0.0000000E+000	-88.0159	0.0000000E+000	0.0000000E+000	0.0000000E+000	-1.98413	0.0000000E+000	0.0000000E+000	0.0000000E+000	1.98413	28.8655	88.0159	2.38625e-06	7.24111e-06	27907.5
326.778	6.18015	0.306474	6.18774	-2.83898	210.867	0.44954	0.0163299	1589.18	3.8985	1	10	0.0102901	0.00166298	0	6.86728e-05	0.161412	0.00800441	0.16161	2.83898	3898.5	78614.4	78711	-87.161	0.0000000E+000	0.0000000E+000	0.0000000E+000	87.161	0.0000000E+000	0.0000000E+000	0.0000000E+000	-87.161	0.0000000E+000	0.0000000E+000	0.0000000E+000	-2.83898	0.0000000E+000	0.0000000E+000	0.0000000E+000	2.83898	20.1653	87.161	1.81305e-06	7.34095e-06	27528.7
222.061	6.19472	0.432387	6.20979	-3.99272	211.328	0.449522	0.0158544	1657.59	8.03649	1	10	0.0102882	0.00165677	0	7.16448e-05	0.160645	0.0112129	0.161036	3.99272	8036.48	115137	115417	-86.0073	0.0000000E+000	0.0000000E+000	0.0000000E+000	86.0073	0.0000000E+000	0.0000000E+000	0.0000000E+000	-86.0073	0.0000000E+000	0.0000000E+000	0.0000000E+000	-3.99272	0.0000000E+000	0.0000000E+000	0.0000000E+000	3.99272	14.3268	86.0073	2.97199e-06	7.12692e-06	28353
151.015	6.22039	0.610712	6.25029	-5.60727	211.79	0.449532	0.0166431	1725.7	16.4754	1	10	0.0102954	0.00164719	0	7.30656e-05	0.159227	0.0156327	0.159992	5.60727	16475.4	167810	168616	-84.3927	0.0000000E+000	0.0000000E+000	0.0000000E+000	84.3927	0.0000000E+000	0.0000000E+000	0.0000000E+000	-84.3927	0.0000000E+000	0.0000000E+000	0.0000000E+000	-5.60727	0.0000000E+000	0.0000000E+000	0.0000000E+000	5.60727	10.1855	84.3927	1.42077e-06	7.48162e-06	27010.1
102.667	6.25059	0.866068	6.31031	-7.88855	212.265	0.449534	0.0162218	1789.93	33.7162	1	10	0.0102962	0.00163165	0	7.37816e-05	0.156971	0.0217496	0.158471	7.88855	33716.2	243337	245662	-82.1115	0.0000000E+000	0.0000000E+000	0.0000000E+000	82.1115	0.0000000E+000	0.0000000E+000	0.0000000E+000	-82.1115	0.0000000E+000	0.0000000E+000	0.0000000E+000	-7.88855	0.0000000E+000	0.0000000E+000	0.0000000E+000	7.88855	7.21721	82.1115	7.16062e-07	7.29222e-06	27711.8
69.7545	6.29552	1.23392	6.41531	-11.0893	212.732	0.449536	0.0164772	1849.11	68.4068	1	10	0.0103041	0.00160617	0	7.52312e-05	0.152967	0.0299813	0.155877	11.0893	68406.8	349016	355656	-78.9107	0.0000000E+000	0.0000000E+000	0.0000000E+000	78.9107	0.0000000E+000	0.0000000E+000	0.0000000E+000	-78.9107	0.0000000E+000	0.0000000E+000	0.0000000E+000	-11.0893	0.0000000E+000	0.0000000E+000	0.0000000E+000	11.0893	5.10206	78.9107	1.4496e-06	7.40709e-06	27282.3
47.4443	6.34865	1.75747	6.58742	-15.4734	213.176	0.449521	0.0148737	1908.75	135.86	1	10	0.0103106	0.00156519	0	7.56345e-05	0.146302	0.0405001	0.151805	15.4734	135860	490780	509238	-74.5266	0.0000000E+000	0.0000000E+000	0.0000000E+000	74.5266	0.0000000E+000	0.0000000E+000	0.0000000E+000	-74.5266	0.0000000E+000	0.0000000E+000	0.0000000E+000	-15.4734	0.0000000E+000	0.0000000E+000	0.0000000E+000	15.4734	3.61239	74.5266	4.0326e-07	6.68605e-06	30222.6
32.2387	6.4043	2.50889	6.8782	-21.3928	213.613	0.449521	0.0145903	1967.71	261.803	1	10	0.0103063	0.0014984	0	7.77832e-05	0.13537	0.0530313	0.145387	21.3928	261803	668291	717742	-68.6072	0.0000000E+000	0.0000000E+000	0.0000000E+000	68.6072	0.0000000E+000	0.0000000E+000	0.0000000E+000	-68.6072	0.0000000E+000	0.0000000E+000	0.0000000E+000	-21.3928	0.0000000E+000	0.0000000E+000	0.0000000E+000	21.3928	2.55264	68.6072	2.14875e-06	6.55864e-06	30809.6
21.9144	6.47748	3.60806	7.41457	-29.1185	214.044	0.449522	0.0139862	2012.87	476.641	1	10	0.0103161	0.00139133	0	7.56987e-05	0.117824	0.0656299	0.13487	29.1185	476641	855704	979498	-60.8815	0.0000000E+000	0.0000000E+000	0.0000000E+000	60.8815	0.0000000E+000	0.0000000E+000	0.0000000E+000	-60.8815	0.0000000E+000	0.0000000E+000	0.0000000E+000	-29.1185	0.0000000E+000	0.0000000E+000	0.0000000E+000	29.1185	1.79528	60.8815	-2.08454e-06	6.2871e-06	32140.5
14.9093	6.57567	5.20507	8.38642	-38.3639	214.513	0.449536	0.0165014	2050.86	790.013	1	10	0.0103238	0.00123101	0	7.71219e-05	0.0934945	0.074007	0.11924	38.3639	790013	998039	1.27287e+06	-51.6361	0.0000000E+000	0.0000000E+000	0.0000000E+000	51.6361	0.0000000E+000	0.0000000E+000	0.0000000E+000	-51.6361	0.0000000E+000	0.0000000E+000	0.0000000E+000	-38.3639	0.0000000E+000	0.0000000E+000	0.0000000E+000	38.3639	1.26332	51.6361	1.42322e-06	7.41798e-06	27242.3
10.1329	6.62264	7.4911	9.99879	-48.5211	214.974	0.449534	0.0164995	2096.71	1176.89	1	10	0.0103316	0.00103328	0	8.36248e-05	0.0662424	0.0749291	0.100012	48.5211	1.17689e+06	1.04045e+06	1.57086e+06	-41.4789	0.0000000E+000	0.0000000E+000	0.0000000E+000	41.4789	0.0000000E+000	0.0000000E+000	0.0000000E+000	-41.4789	0.0000000E+000	0.0000000E+000	0.0000000E+000	-48.5211	0.0000000E+000	0.0000000E+000	0.0000000E+000	48.5211	0.884068	41.4789	6.50288e-06	7.41711e-06	27245.2
6.88933	6.86455	10.9352	12.9113	-57.8815	215.527	0.449535	0.000692196	2112.6	1515.42	1	11	0.0103337	0.000800362	0	8.40095e-05	0.0411789	0.0655978	0.0774518	57.8815	1.51542e+06	951302	1.78926e+06	-32.1185	0.0000000E+000	0.0000000E+000	0.0000000E+000	32.1185	0.0000000E+000	0.0000000E+000	0.0000000E+000	-32.1185	0.0000000E+000	0.0000000E+000	0.0000000E+000	-57.8815	0.0000000E+000	0.0000000E+000	0.0000000E+000	57.8815	0.627748	32.1185	3.84758e-07	3.11166e-07	649432
4.68375	7.0797	15.8576	17.3662	-65.9414	216.024	0.449548	0.00198705	2142.84	1786.71	1	11	0.0103276	0.000594693	0	7.56791e-05	0.023475	0.0525808	0.0575832	65.9414	1.78671e+06	797686	1.95669e+06	-24.0586	0.0000000E+000	0.0000000E+000	0.0000000E+000	24.0586	0.0000000E+000	0.0000000E+000	0.0000000E+000	-24.0586	0.0000000E+000	0.0000000E+000	0.0000000E+000	-65.9414	0.0000000E+000	0.0000000E+000	0.0000000E+000	65.9414	0.446455	24.0586	-8.33047e-06	8.93276e-07	226238
3.18099	7.45026	23.1218	24.2925	-72.1401	216.726	0.449551	0.00162171	2163.9	1960.36	1	11	0.0103323	0.000425329	0	8.01558e-05	0.0126249	0.0391813	0.041165	72.1401	1.96036e+06	631665	2.05962e+06	-17.8599	0.0000000E+000	0.0000000E+000	0.0000000E+000	17.8599	0.0000000E+000	0.0000000E+000	0.0000000E+000	-17.8599	0.0000000E+000	0.0000000E+000	0.0000000E+000	-72.1401	0.0000000E+000	0.0000000E+000	0.0000000E+000	72.1401	0.322218	17.8599	4.47676e-06	7.2904e-07	277208
2.16533	7.93378	33.5627	34.4877	-76.7002	217.737	0.449555	0.00199459	2189.98	2074.08	1	11	0.0103326	0.000299604	0	8.64023e-05	0.00667041	0.0282182	0.0289959	76.7002	2.07408e+06	490286	2.13124e+06	-13.2998	0.0000000E+000	0.0000000E+000	0.0000000E+000	13.2998	0.0000000E+000	0.0000000E+000	0.0000000E+000	-13.2998	0.0000000E+000	0.0000000E+000	0.0000000E+000	-76.7002	0.0000000E+000	0.0000000E+000	0.0000000E+000	76.7002	0.236387	13.2998	6.24642e-06	8.96678e-07	225387
1.46962	8.67442	48.872	49.6359	-79.9352	219.937	0.449555	0.000416187	2215.92	2148.25	1	12	0.0103375	0.000208267	0	8.5181e-05	0.00352086	0.0198367	0.0201467	79.9352	2.14825e+06	381298	2.18182e+06	-10.0648	0.0000000E+000	0.0000000E+000	0.0000000E+000	10.0648	0.0000000E+000	0.0000000E+000	0.0000000E+000	-10.0648	0.0000000E+000	0.0000000E+000	0.0000000E+000	-79.9352	0.0000000E+000	0.0000000E+000	0.0000000E+000	79.9352	0.177493	10.0648	-1.22125e-06	1.87099e-07	1.08018e+06
1.00006	9.72625	70.9572	71.6207	-82.195	222.077	0.449557	0.000569306	2242.83	2201.47	1	12	0.0103325	0.000144266	0	8.01143e-05	0.00189613	0.0138331	0.0139624	82.195	2.20147e+06	301760	2.22205e+06	-7.80502	0.0000000E+000	0.0000000E+000	0.0000000E+000	7.80502	0.0000000E+000	0.0000000E+000	0.0000000E+000	-7.80502	0.0000000E+000	0.0000000E+000	0.0000000E+000	-82.195	0.0000000E+000	0.0000000E+000	0.0000000E+000	82.195	0.137072	7.80502	-5.06676e-06	2.55935e-07	789658