File: ACS_Catal_2026/Figures_Na_K/main_figures/data/EC/20251112_2-148_alpha_reproducibility/20251112_2-148_006_gamma_reproducibility_2_Na2_02_PEIS_C02.mpt
EC-Lab ASCII FILE
Nb header lines : 63

Potentio Electrochemical Impedance Spectroscopy

Run on channel : 2 (SN 69290)
User :
CE vs. WE compliance from -10 V to 10 V
Electrode connection : standard
Potential control : Ewe
Ewe ctrl range : min = -1.00 V, max = 1.00 V
Safety Limits :
	Do not start on E overload
Acquisition started on : 11/12/2025 21:00:04.183
Loaded Setting File :  C:\Users\User\Documents\EC-Lab\Data\Yatsuzuka\20251112_2-148_alpha_reproducibility\20251112_2-148_002_alpha_reproducibility_2_K1.mps
Saved on :
	File : 20251112_2-148_006_gamma_reproducibility_2_Na2_r_02_PEIS_C02.mpr
	Directory : C:\Users\User\Documents\EC-Lab\Data\Yatsuzuka\20251112_2-148_alpha_reproducibility\
	Host : 192.109.209.127
Device : SP-150e (SN .003883)
Address : 192.109.209.128
EC-Lab for windows v11.52 (software)
Internet server v11.52 (firmware)
Command interpretor v11.50 (firmware)
Electrode material :
Initial state :
Electrolyte :
Comments :
Electrode surface area : 0.001 cm2
Characteristic mass : 0.001 g
Equivalent Weight : 0.000 g/eq.
Density : 0.000 g/cm3
Volume (V) : 0.001 cm3
Cycle Definition : Charge/Discharge alternance
Mode                Single sine
E (V)               0.4500
vs.                 Ref
tE (h:m:s)          0:00:0.0000
record              0
dI                  0.000
unit dI             mA
dt (s)              0.000
fi                  500.000
unit fi             kHz
ff                  1.000
unit ff             Hz
Nd                  6
Points              per decade
spacing             Logarithmic
Va (mV)             10.0
pw                  0.10
Na                  2
corr                0
E range min (V)     -1.000
E range max (V)     1.000
I Range             Auto
Bandwidth           5
nc cycles           0
goto Ns'            0
nr cycles           0
inc. cycle          0

freq/Hz	Re(Z)/Ohm	-Im(Z)/Ohm	|Z|/Ohm	Phase(Z)/deg	time/s	<Ewe>/V	<I>/mA	Cs/uF	Cp/uF	cycle number	I Range	|Ewe|/V	|I|/A	Ns	(Q-Qo)/mA.h	Re(Y)/Ohm-1	Im(Y)/Ohm-1	|Y|/Ohm-1	Phase(Y)/deg	Re(C)/nF	Im(C)/nF	|C|/nF	Phase(C)/deg	Re(M)	Im(M)	|M|	Phase(M)/deg	Re(Permittivity)	Im(Permittivity)	|Permittivity|	Phase(Permittivity)/deg	Re(Resistivity)/Ohm.cm	Im(Resistivity)/Ohm.cm	|Resistivity|/Ohm.cm	Phase(Resistivity)/deg	Re(Conductivity)/mS/cm	Im(Conductivity)/mS/cm	|Conductivity|/mS/cm	Phase(Conductivity)/deg	Tan(Delta)	Loss Angle(Delta)/deg	dq/mA.h
500019	18.3485	-2.48378	18.5158	7.70908	201.934	0.449777	0.0179501	-0.128151	-0.002306	1	10	0.00605109	0.000326806	0	2.96369e-05	0.0535197	-0.00724478	0.0540078	-7.70908	-2.306	17.0352	17.1906	-97.7091	0.0000000E+000	0.0000000E+000	0.0000000E+000	97.7091	0.0000000E+000	0.0000000E+000	0.0000000E+000	-97.7091	0.0000000E+000	0.0000000E+000	0.0000000E+000	7.70908	0.0000000E+000	0.0000000E+000	0.0000000E+000	-7.70908	7.38734	82.2909	2.96369e-05
339899	13.4473	-1.58593	13.5405	6.72621	202.22	0.44968	0.0184013	-0.295248	-0.00405029	1	10	0.0100968	0.000745674	0	3.16755e-05	0.0733445	-0.00865001	0.0738528	-6.72621	-4.05029	34.3429	34.5809	-96.7262	0.0000000E+000	0.0000000E+000	0.0000000E+000	96.7262	0.0000000E+000	0.0000000E+000	0.0000000E+000	-96.7262	0.0000000E+000	0.0000000E+000	0.0000000E+000	6.72621	0.0000000E+000	0.0000000E+000	0.0000000E+000	-6.72621	8.47912	83.2738	2.0386e-06
231063	11.6528	-0.859195	11.6844	4.21697	202.642	0.449545	0.0190744	-0.801676	-0.00433481	1	10	0.0107089	0.000916513	0	3.50335e-05	0.0853525	-0.00629331	0.0855842	-4.21697	-4.3348	58.7905	58.9501	-94.217	0.0000000E+000	0.0000000E+000	0.0000000E+000	94.217	0.0000000E+000	0.0000000E+000	0.0000000E+000	-94.217	0.0000000E+000	0.0000000E+000	0.0000000E+000	4.21697	0.0000000E+000	0.0000000E+000	0.0000000E+000	-4.21697	13.5624	85.783	3.35801e-06
157076	11.0268	-0.38042	11.0334	1.97589	203.2	0.449551	0.0198016	-2.66347	-0.00316633	1	10	0.0101121	0.000916501	0	3.80908e-05	0.09058	-0.00312496	0.0906339	-1.97589	-3.16633	91.779	91.8336	-91.9759	0.0000000E+000	0.0000000E+000	0.0000000E+000	91.9759	0.0000000E+000	0.0000000E+000	0.0000000E+000	-91.9759	0.0000000E+000	0.0000000E+000	0.0000000E+000	1.97589	0.0000000E+000	0.0000000E+000	0.0000000E+000	-1.97589	28.986	88.0241	3.05735e-06
106786	10.8487	-0.119571	10.8494	0.63147	203.622	0.449547	0.0195965	-12.4646	-0.00151398	1	10	0.0107924	0.000994751	0	3.88616e-05	0.0921654	-0.00101582	0.092171	-0.63147	-1.51398	137.364	137.372	-90.6315	0.0000000E+000	0.0000000E+000	0.0000000E+000	90.6315	0.0000000E+000	0.0000000E+000	0.0000000E+000	-90.6315	0.0000000E+000	0.0000000E+000	0.0000000E+000	0.63147	0.0000000E+000	0.0000000E+000	0.0000000E+000	-0.63147	90.7303	89.3685	7.70794e-07
72595	10.8105	0.00246466	10.8105	-0.0130627	204.044	0.449544	0.0193448	889.521	4.62359e-05	1	10	0.0107082	0.000990534	0	4.18437e-05	0.0925027	2.10895e-05	0.0925027	0.0130627	0.0462316	202.8	202.8	-89.9869	0.0000000E+000	0.0000000E+000	0.0000000E+000	89.9869	0.0000000E+000	0.0000000E+000	0.0000000E+000	-89.9869	0.0000000E+000	0.0000000E+000	0.0000000E+000	-0.0130627	0.0000000E+000	0.0000000E+000	0.0000000E+000	0.0130627	4386.2	89.9869	2.98207e-06
49352.4	10.8167	0.0664416	10.8169	-0.351934	204.467	0.449554	0.01875	48.5369	0.00183123	1	10	0.0106083	0.000980711	0	4.36535e-05	0.0924459	0.000567847	0.0924476	0.351934	1.83125	298.126	298.132	-89.6481	0.0000000E+000	0.0000000E+000	0.0000000E+000	89.6481	0.0000000E+000	0.0000000E+000	0.0000000E+000	-89.6481	0.0000000E+000	0.0000000E+000	0.0000000E+000	-0.351934	0.0000000E+000	0.0000000E+000	0.0000000E+000	0.351934	162.801	89.6481	1.80981e-06
33551.1	10.836	0.110117	10.8365	-0.582233	204.889	0.449562	0.0180974	43.0782	0.00444826	1	10	0.0105068	0.000969571	0	4.73324e-05	0.0922758	0.000937727	0.0922805	0.582233	4.44824	437.725	437.748	-89.4178	0.0000000E+000	0.0000000E+000	0.0000000E+000	89.4178	0.0000000E+000	0.0000000E+000	0.0000000E+000	-89.4178	0.0000000E+000	0.0000000E+000	0.0000000E+000	-0.582233	0.0000000E+000	0.0000000E+000	0.0000000E+000	0.582233	98.4036	89.4178	3.67888e-06
22806.6	10.8582	0.131207	10.859	-0.692306	205.311	0.449556	0.01831	53.1868	0.00776486	1	10	0.0104167	0.000959264	0	4.93515e-05	0.0920824	0.00111269	0.0920892	0.692306	7.76487	642.595	642.642	-89.3077	0.0000000E+000	0.0000000E+000	0.0000000E+000	89.3077	0.0000000E+000	0.0000000E+000	0.0000000E+000	-89.3077	0.0000000E+000	0.0000000E+000	0.0000000E+000	-0.692306	0.0000000E+000	0.0000000E+000	0.0000000E+000	0.692306	82.7567	89.3077	2.0191e-06
15504.4	10.8922	0.156517	10.8933	-0.823263	205.734	0.449558	0.0181888	65.585	0.0135396	1	10	0.0103316	0.000948439	0	5.00859e-05	0.09179	0.00131899	0.0917995	0.823263	13.5397	942.239	942.336	-89.1767	0.0000000E+000	0.0000000E+000	0.0000000E+000	89.1767	0.0000000E+000	0.0000000E+000	0.0000000E+000	-89.1767	0.0000000E+000	0.0000000E+000	0.0000000E+000	-0.823263	0.0000000E+000	0.0000000E+000	0.0000000E+000	0.823263	69.5912	89.1767	7.34391e-07
10540.4	10.9084	0.183839	10.91	-0.965507	206.156	0.449559	0.0190633	82.1348	0.0233212	1	10	0.0101744	0.000932581	0	5.14112e-05	0.0916461	0.0015445	0.0916591	0.965507	23.3213	1383.81	1384.01	-89.0345	0.0000000E+000	0.0000000E+000	0.0000000E+000	89.0345	0.0000000E+000	0.0000000E+000	0.0000000E+000	-89.0345	0.0000000E+000	0.0000000E+000	0.0000000E+000	-0.965507	0.0000000E+000	0.0000000E+000	0.0000000E+000	0.965507	59.3371	89.0345	1.32529e-06
7163.78	10.9331	0.218566	10.9353	-1.14526	206.681	0.449536	0.0170906	101.647	0.0406071	1	10	0.0101237	0.000925786	0	5.46417e-05	0.0914289	0.00182778	0.0914472	1.14526	40.6071	2031.24	2031.65	-88.8547	0.0000000E+000	0.0000000E+000	0.0000000E+000	88.8547	0.0000000E+000	0.0000000E+000	0.0000000E+000	-88.8547	0.0000000E+000	0.0000000E+000	0.0000000E+000	-1.14526	0.0000000E+000	0.0000000E+000	0.0000000E+000	1.14526	50.0218	88.8547	3.2305e-06
4871.56	10.9671	0.278617	10.9706	-1.45528	207.148	0.449559	0.0186866	117.258	0.0756307	1	10	0.0106833	0.000973806	0	5.69484e-05	0.0911232	0.00231497	0.0911526	1.45528	75.6305	2977.01	2977.98	-88.5447	0.0000000E+000	0.0000000E+000	0.0000000E+000	88.5447	0.0000000E+000	0.0000000E+000	0.0000000E+000	-88.5447	0.0000000E+000	0.0000000E+000	0.0000000E+000	-1.45528	0.0000000E+000	0.0000000E+000	0.0000000E+000	1.45528	39.3625	88.5447	2.30674e-06
3311.06	10.9904	0.364182	10.9964	-1.89789	207.613	0.449564	0.0189961	131.988	0.144768	1	10	0.0109626	0.000996928	0	5.84966e-05	0.090889	0.00301174	0.0909389	1.89789	144.768	4368.82	4371.22	-88.1021	0.0000000E+000	0.0000000E+000	0.0000000E+000	88.1021	0.0000000E+000	0.0000000E+000	0.0000000E+000	-88.1021	0.0000000E+000	0.0000000E+000	0.0000000E+000	-1.89789	0.0000000E+000	0.0000000E+000	0.0000000E+000	1.89789	30.1782	88.1021	1.54814e-06
2250.72	11.0251	0.47809	11.0355	-2.483	208.3	0.449566	0.0190036	147.907	0.277604	1	10	0.0101278	0.000917747	0	6.36346e-05	0.0905317	0.00392579	0.0906168	2.483	277.604	6401.76	6407.77	-87.517	0.0000000E+000	0.0000000E+000	0.0000000E+000	87.517	0.0000000E+000	0.0000000E+000	0.0000000E+000	-87.517	0.0000000E+000	0.0000000E+000	0.0000000E+000	-2.483	0.0000000E+000	0.0000000E+000	0.0000000E+000	2.483	23.0608	87.517	5.13806e-06
1530.49	11.0534	0.659018	11.073	-3.41201	208.765	0.449564	0.0192777	157.795	0.558927	1	10	0.0101819	0.000919523	0	6.57474e-05	0.0901496	0.00537484	0.0903097	3.41201	558.928	9374.62	9391.26	-86.588	0.0000000E+000	0.0000000E+000	0.0000000E+000	86.588	0.0000000E+000	0.0000000E+000	0.0000000E+000	-86.588	0.0000000E+000	0.0000000E+000	0.0000000E+000	-3.41201	0.0000000E+000	0.0000000E+000	0.0000000E+000	3.41201	16.7725	86.588	2.11279e-06
1040.33	11.0993	0.890049	11.1349	-4.58471	209.23	0.449564	0.019108	171.883	1.09821	1	10	0.0102038	0.000916377	0	6.79061e-05	0.08952	0.00717857	0.0898074	4.58471	1098.21	13695.2	13739.1	-85.4153	0.0000000E+000	0.0000000E+000	0.0000000E+000	85.4153	0.0000000E+000	0.0000000E+000	0.0000000E+000	-85.4153	0.0000000E+000	0.0000000E+000	0.0000000E+000	-4.58471	0.0000000E+000	0.0000000E+000	0.0000000E+000	4.58471	12.4704	85.4153	2.15865e-06
707.036	11.1588	1.25299	11.229	-6.40671	209.695	0.449563	0.0187034	179.652	2.2369	1	10	0.0102182	0.000909985	0	7.02009e-05	0.0884993	0.00993728	0.0890555	6.40671	2236.9	19921.3	20046.5	-83.5933	0.0000000E+000	0.0000000E+000	0.0000000E+000	83.5933	0.0000000E+000	0.0000000E+000	0.0000000E+000	-83.5933	0.0000000E+000	0.0000000E+000	0.0000000E+000	-6.40671	0.0000000E+000	0.0000000E+000	0.0000000E+000	6.40671	8.90579	83.5933	2.29482e-06
480.769	11.2357	1.75878	11.3725	-8.89664	210.16	0.449562	0.0188022	188.223	4.50179	1	10	0.0102297	0.000899516	0	7.25899e-05	0.0868737	0.0135988	0.0879316	8.89664	4501.79	28758.9	29109.1	-81.1034	0.0000000E+000	0.0000000E+000	0.0000000E+000	81.1034	0.0000000E+000	0.0000000E+000	0.0000000E+000	-81.1034	0.0000000E+000	0.0000000E+000	0.0000000E+000	-8.89664	0.0000000E+000	0.0000000E+000	0.0000000E+000	8.89664	6.38832	81.1034	2.38896e-06
326.778	11.3109	2.5078	11.5856	-12.5011	210.623	0.449562	0.0185319	194.212	9.09964	1	10	0.0102246	0.000882528	0	7.45254e-05	0.0842678	0.0186834	0.0863141	12.5011	9099.64	41042.1	42038.7	-77.4989	0.0000000E+000	0.0000000E+000	0.0000000E+000	77.4989	0.0000000E+000	0.0000000E+000	0.0000000E+000	-77.4989	0.0000000E+000	0.0000000E+000	0.0000000E+000	-12.5011	0.0000000E+000	0.0000000E+000	0.0000000E+000	12.5011	4.5103	77.4989	1.93559e-06
222.061	11.4193	3.54476	11.9568	-17.2454	211.084	0.449563	0.0184908	202.191	17.7708	1	10	0.0102271	0.000855337	0	7.75202e-05	0.0798746	0.0247946	0.0836345	17.2454	17770.8	57247.5	59942.3	-72.7546	0.0000000E+000	0.0000000E+000	0.0000000E+000	72.7546	0.0000000E+000	0.0000000E+000	0.0000000E+000	-72.7546	0.0000000E+000	0.0000000E+000	0.0000000E+000	-17.2454	0.0000000E+000	0.0000000E+000	0.0000000E+000	17.2454	3.22145	72.7546	2.99473e-06
151.015	11.5569	5.07654	12.6227	-23.7142	211.546	0.449558	0.0180452	207.603	33.5787	1	10	0.0102255	0.000810091	0	7.94257e-05	0.0725331	0.0318613	0.0792224	23.7142	33578.7	76442.8	83492.7	-66.2858	0.0000000E+000	0.0000000E+000	0.0000000E+000	66.2858	0.0000000E+000	0.0000000E+000	0.0000000E+000	-66.2858	0.0000000E+000	0.0000000E+000	0.0000000E+000	-23.7142	0.0000000E+000	0.0000000E+000	0.0000000E+000	23.7142	2.27653	66.2858	1.90553e-06
102.667	11.7429	7.29473	13.8242	-31.8488	212.021	0.449568	0.0190688	212.509	59.1724	1	10	0.0102223	0.000739452	0	8.11726e-05	0.0614463	0.0381708	0.0723371	31.8488	59172.4	95254	112137	-58.1512	0.0000000E+000	0.0000000E+000	0.0000000E+000	58.1512	0.0000000E+000	0.0000000E+000	0.0000000E+000	-58.1512	0.0000000E+000	0.0000000E+000	0.0000000E+000	-31.8488	0.0000000E+000	0.0000000E+000	0.0000000E+000	31.8488	1.60977	58.1512	1.74688e-06
69.7545	11.9942	10.5196	15.9538	-41.2528	212.489	0.449564	0.0186344	216.894	94.3023	1	10	0.0102198	0.000640589	0	8.32462e-05	0.0471241	0.0413308	0.0626811	41.2528	94302.3	107521	143016	-48.7472	0.0000000E+000	0.0000000E+000	0.0000000E+000	48.7472	0.0000000E+000	0.0000000E+000	0.0000000E+000	-48.7472	0.0000000E+000	0.0000000E+000	0.0000000E+000	-41.2528	0.0000000E+000	0.0000000E+000	0.0000000E+000	41.2528	1.14017	48.7472	2.07358e-06
47.4443	12.3376	15.1414	19.5315	-50.8261	213.178	0.449552	0.000940655	221.549	133.148	1	11	0.0102495	0.00052477	0	8.46028e-05	0.0323415	0.0396915	0.0511995	50.8261	133148	108491	171752	-39.1739	0.0000000E+000	0.0000000E+000	0.0000000E+000	39.1739	0.0000000E+000	0.0000000E+000	0.0000000E+000	-39.1739	0.0000000E+000	0.0000000E+000	0.0000000E+000	-50.8261	0.0000000E+000	0.0000000E+000	0.0000000E+000	50.8261	0.814821	39.1739	1.35666e-06
32.2387	12.8356	21.8533	25.344	-59.5719	213.615	0.449549	0.000515427	225.905	167.961	1	11	0.0102265	0.000403506	0	8.44917e-05	0.0199833	0.0340225	0.039457	59.5719	167961	98652.9	194791	-30.4281	0.0000000E+000	0.0000000E+000	0.0000000E+000	30.4281	0.0000000E+000	0.0000000E+000	0.0000000E+000	-30.4281	0.0000000E+000	0.0000000E+000	0.0000000E+000	-59.5719	0.0000000E+000	0.0000000E+000	0.0000000E+000	59.5719	0.587355	30.4281	-1.11149e-07
21.9144	13.5467	31.5499	34.3353	-66.7626	214.046	0.449555	0.000362876	230.193	194.36	1	11	0.0102207	0.000297672	0	8.54183e-05	0.0114909	0.0267619	0.0291246	66.7626	194360	83453.1	211519	-23.2374	0.0000000E+000	0.0000000E+000	0.0000000E+000	23.2374	0.0000000E+000	0.0000000E+000	0.0000000E+000	-23.2374	0.0000000E+000	0.0000000E+000	0.0000000E+000	-66.7626	0.0000000E+000	0.0000000E+000	0.0000000E+000	66.7626	0.429374	23.2374	9.26649e-07
14.9093	14.3835	45.4958	47.7153	-72.4557	214.516	0.449555	0.00123754	234.634	213.313	1	11	0.0102113	0.000214004	0	8.57505e-05	0.00631754	0.0199828	0.0209576	72.4557	213313	67438.8	223719	-17.5443	0.0000000E+000	0.0000000E+000	0.0000000E+000	17.5443	0.0000000E+000	0.0000000E+000	0.0000000E+000	-17.5443	0.0000000E+000	0.0000000E+000	0.0000000E+000	-72.4557	0.0000000E+000	0.0000000E+000	0.0000000E+000	72.4557	0.31615	17.5443	3.32211e-07
10.1329	15.8161	66.0626	67.9294	-76.5362	214.975	0.44956	0.000671875	237.755	224.866	1	11	0.0102151	0.000150378	0	8.55484e-05	0.00342754	0.0143166	0.0147212	76.5362	224866	53835.3	231220	-13.4638	0.0000000E+000	0.0000000E+000	0.0000000E+000	13.4638	0.0000000E+000	0.0000000E+000	0.0000000E+000	-13.4638	0.0000000E+000	0.0000000E+000	0.0000000E+000	-76.5362	0.0000000E+000	0.0000000E+000	0.0000000E+000	76.5362	0.239411	13.4638	-2.02088e-07
6.88933	17.6281	94.9312	96.554	-79.4804	215.328	0.449548	0.000260616	243.352	235.24	1	11	0.0102047	0.000105689	0	8.52712e-05	0.00189089	0.0101828	0.0103569	79.4804	235240	43682.6	239262	-10.5196	0.0000000E+000	0.0000000E+000	0.0000000E+000	10.5196	0.0000000E+000	0.0000000E+000	0.0000000E+000	-10.5196	0.0000000E+000	0.0000000E+000	0.0000000E+000	-79.4804	0.0000000E+000	0.0000000E+000	0.0000000E+000	79.4804	0.185694	10.5196	-2.7729e-07
4.68375	21.1079	138.437	140.037	-81.3307	216.092	0.449571	-0.000313016	245.456	239.879	1	12	0.0102144	7.29407e-05	0	8.56178e-05	0.00107636	0.00705938	0.00714096	81.3307	239879	36575	242652	-8.66927	0.0000000E+000	0.0000000E+000	0.0000000E+000	8.66927	0.0000000E+000	0.0000000E+000	0.0000000E+000	-8.66927	0.0000000E+000	0.0000000E+000	0.0000000E+000	-81.3307	0.0000000E+000	0.0000000E+000	0.0000000E+000	81.3307	0.152473	8.66928	3.46601e-07
3.18099	25.785	199.365	201.026	-82.6305	216.798	0.449565	0.000227391	250.963	246.834	1	12	0.0102091	5.07849e-05	0	8.57278e-05	0.000638063	0.0049334	0.00497449	82.6305	246834	31924.4	248890	-7.36947	0.0000000E+000	0.0000000E+000	0.0000000E+000	7.36947	0.0000000E+000	0.0000000E+000	0.0000000E+000	-7.36947	0.0000000E+000	0.0000000E+000	0.0000000E+000	-82.6305	0.0000000E+000	0.0000000E+000	0.0000000E+000	82.6305	0.129336	7.36948	1.10005e-07
2.16533	30.435	288.982	290.581	-83.9879	217.809	0.449576	0.000388264	254.346	251.556	1	12	0.0102089	3.51328e-05	0	8.50562e-05	0.000360445	0.00342246	0.00344138	83.9879	251556	26493.3	252947	-6.01209	0.0000000E+000	0.0000000E+000	0.0000000E+000	6.01209	0.0000000E+000	0.0000000E+000	0.0000000E+000	-6.01209	0.0000000E+000	0.0000000E+000	0.0000000E+000	-83.9879	0.0000000E+000	0.0000000E+000	0.0000000E+000	83.9879	0.105318	6.01208	-6.71551e-07
1.46962	38.1934	417.567	419.31	-84.7739	220.009	0.449577	0.000112789	259.351	257.2	1	13	0.0102189	2.43709e-05	0	8.48098e-05	0.000217229	0.00237495	0.00238487	84.7739	257200	23525.2	258273	-5.2261	0.0000000E+000	0.0000000E+000	0.0000000E+000	5.2261	0.0000000E+000	0.0000000E+000	0.0000000E+000	-5.2261	0.0000000E+000	0.0000000E+000	0.0000000E+000	-84.7739	0.0000000E+000	0.0000000E+000	0.0000000E+000	84.7739	0.0914665	5.2261	-2.4643e-07
1.00006	48.5778	602.855	604.809	-85.3931	222.149	0.449577	0.000144842	263.985	262.282	1	13	0.0102118	1.68843e-05	0	8.53058e-05	0.000132801	0.00164807	0.00165341	85.3931	262282	21134.6	263132	-4.60691	0.0000000E+000	0.0000000E+000	0.0000000E+000	4.60691	0.0000000E+000	0.0000000E+000	0.0000000E+000	-4.60691	0.0000000E+000	0.0000000E+000	0.0000000E+000	-85.3931	0.0000000E+000	0.0000000E+000	0.0000000E+000	85.3931	0.0805795	4.6069	4.96063e-07