File: ACS_Catal_2026/Figures_Na_K/main_figures/data/EC/20251112_2-148_alpha_reproducibility/20251112_2-148_003_alpha_Na_first_1_K2_01_CVA_C01.mpt
EC-Lab ASCII FILE
Nb header lines : 66

Cyclic Voltammetry Advanced

Run on channel : 1 (SN 69187)
User :
CE vs. WE compliance from -10 V to 10 V
Electrode connection : standard
Potential control : Ewe
Ewe ctrl range : min = -1.00 V, max = 1.00 V
Safety Limits :
	Do not start on E overload
Acquisition started on : 11/12/2025 17:41:45.774
Loaded Setting File :  C:\Users\User\Documents\EC-Lab\Data\Yatsuzuka\20251030_2-147_gamma_reproducibility\20251030_2-147_001_gamma1_K_1.mps
Saved on :
	File : 20251112_2-148_003_alpha_Na_first_1_K2_01_CVA_C01.mpr
	Directory : C:\Users\User\Documents\EC-Lab\Data\Yatsuzuka\20251112_2-148_alpha_reproducibility\
	Host : 192.109.209.127
Device : SP-150e (SN .003883)
Address : 192.109.209.128
EC-Lab for windows v11.52 (software)
Internet server v11.52 (firmware)
Command interpretor v11.50 (firmware)
Electrode material :
Initial state :
Electrolyte :
Comments :
Electrode surface area : 0.001 cm2
Characteristic mass : 0.001 g
Equivalent Weight : 0.000 g/eq.
Density : 0.000 g/cm3
Volume (V) : 0.001 cm3
Cycle Definition : Charge/Discharge alternance
Ei (V)              0.350
vs.                 Ref
ti (h:m:s)          0:00:10.0000
dti (s)             0.0000
dE/dt               10.000
dE/dt unit          mV/s
E1 (V)              0.450
vs.                 Ref
t1 (h:m:s)          0:00:0.0000
dt1 (s)             0.1000
Step percent        50
N                   10
E range min (V)     -1.000
E range max (V)     1.000
I Range             Auto
I Range min         Unset
I Range max         Unset
I Range init        Unset
Bandwidth           5
E2 (V)              0.350
vs.                 Ref
t2 (h:m:s)          0:00:0.0000
dt2 (s)             0.1000
nc cycles           9
nr                  1
Reverse Scan        0
Ef (V)              0.000
vs.                 Eoc
tf (h:m:s)          0:00:0.0000
dtf (s)             0.1000

mode	ox/red	error	control changes	Ns changes	counter inc.	time/s	control/V	Ewe/V	<I>/mA	cycle number	(Q-Qo)/C	I Range	Ns	step time/s	P/W
2	0	0	0	0	0	0.000000000000000E+000	0.34995	0.349609	-0.00490859	1	0.0000000E+000	13	0	0.000000000000000E+000	-1.71609e-06
2	1	0	1	0	0	0.3869	0.353819	0.353579	0.0266511	1	1.15826e-05	13	0	0.3596	9.42327e-06
2	1	0	1	0	0	0.7364	0.357315	0.357111	0.0416773	1	2.32336e-05	13	0	0.7091	1.48834e-05
2	1	0	1	0	0	1.0859	0.360809	0.360594	0.0255926	1	3.48978e-05	13	0	1.0586	9.22853e-06
2	1	0	1	0	0	1.4354	0.364304	0.364078	0.0387376	1	4.65205e-05	13	0	1.4081	1.41035e-05
2	1	0	1	0	0	1.7849	0.3678	0.367591	0.0296466	1	5.79226e-05	13	0	1.7576	1.08978e-05
2	1	0	1	0	0	2.1345	0.371295	0.371086	0.0311897	1	6.93366e-05	13	0	2.1072	1.15741e-05
2	1	0	1	0	0	2.4839	0.37479	0.374585	0.036411	1	8.0416e-05	13	0	2.4566	1.3639e-05
2	1	0	1	0	0	2.8335	0.378285	0.378055	0.0243369	1	9.14997e-05	13	0	2.8062	9.20067e-06
2	1	0	1	0	0	3.183	0.381781	0.381517	0.0386057	1	0.000102309	13	0	3.1557	1.47287e-05
2	1	0	1	0	0	3.5325	0.385275	0.385011	0.0238888	1	0.000113006	13	0	3.5052	9.19745e-06
2	1	0	1	0	0	3.882	0.38877	0.388513	0.0339859	1	0.000123574	13	0	3.8547	1.3204e-05
2	1	0	1	0	0	4.2315	0.392266	0.392048	0.0294347	1	0.000133905	13	0	4.2042	1.15398e-05
2	1	0	1	0	0	4.5811	0.395761	0.395488	0.0252257	1	0.000144216	13	0	4.5538	9.97648e-06
2	1	0	1	0	0	4.9305	0.399256	0.39904	0.0356146	1	0.000154261	13	0	4.9032	1.42116e-05
2	1	0	1	0	0	5.2801	0.402751	0.402496	0.0201196	1	0.00016424	13	0	5.2528	8.09804e-06
2	1	0	1	0	0	5.6296	0.406246	0.406088	0.0367219	1	0.00017411	13	0	5.6023	1.49123e-05
2	1	0	1	0	0	5.9791	0.409742	0.40956	0.022404	1	0.000183813	13	0	5.9518	9.1758e-06
2	1	0	1	0	0	6.3286	0.413236	0.413039	0.0285617	1	0.000193466	13	0	6.3013	1.17971e-05
2	1	0	1	0	0	6.6781	0.416732	0.416554	0.0292157	1	0.000202818	13	0	6.6508	1.21699e-05
2	1	0	1	0	0	7.0277	0.420227	0.42003	0.0211148	1	0.000212217	13	0	7.0004	8.86885e-06
2	1	0	1	0	0	7.3772	0.423723	0.423493	0.0333867	1	0.000221342	13	0	7.3499	1.4139e-05
2	1	0	1	0	0	7.7267	0.427217	0.42698	0.0182574	1	0.000230453	13	0	7.6994	7.79553e-06
2	1	0	1	0	0	8.0762	0.430712	0.430495	0.0324998	1	0.000239414	13	0	8.0489	1.3991e-05
2	1	0	1	0	0	8.4257	0.434208	0.433992	0.0210792	1	0.00024825	13	0	8.3984	9.14822e-06
2	1	0	1	0	0	8.7753	0.437703	0.437447	0.025987	1	0.000257074	13	0	8.748	1.13679e-05
2	1	0	1	0	0	9.1247	0.441198	0.44098	0.0276157	1	0.000265681	13	0	9.0974	1.2178e-05
2	1	0	1	0	0	9.4743	0.444693	0.444423	0.0184892	1	0.000274335	13	0	9.447	8.21703e-06
2	1	0	1	0	0	9.8238	0.448189	0.448004	0.0316513	1	0.000282792	13	0	9.7965	1.41799e-05
2	0	0	1	0	0	10.1101	0.448937	0.448717	-0.0203993	1	0.000286112	12	0	0.0649	-9.15353e-06
2	0	0	1	0	0	10.4896	0.445142	0.444856	-0.0277181	1	0.000278255	13	0	0.4444	-1.23306e-05
2	0	0	1	0	0	10.8391	0.441647	0.441394	-0.0155847	1	0.000271011	13	0	0.7939	-6.879e-06
2	0	0	1	0	0	11.1886	0.438153	0.437896	-0.0245491	1	0.000263413	13	0	1.1434	-1.075e-05
2	0	0	1	0	0	11.5381	0.434657	0.434367	-0.0235949	1	0.000255669	13	0	1.4929	-1.02489e-05
2	0	0	1	0	0	11.8877	0.431162	0.430917	-0.0188911	1	0.000247612	13	0	1.8425	-8.14049e-06
2	0	0	1	0	0	12.2371	0.427667	0.427369	-0.030632	1	0.000239466	13	0	2.1919	-1.30912e-05
2	0	0	1	0	0	12.5867	0.424172	0.423903	-0.0164624	1	0.000231076	13	0	2.5415	-6.97848e-06
2	0	0	1	0	0	12.9362	0.420676	0.420424	-0.0313302	1	0.000222514	13	0	2.891	-1.3172e-05
2	0	0	1	0	0	13.2857	0.417181	0.416918	-0.0213689	1	0.000213859	13	0	3.2405	-8.90908e-06
2	0	0	1	0	0	13.6352	0.413687	0.413442	-0.0257628	1	0.000204891	13	0	3.59	-1.06514e-05
2	0	0	1	0	0	13.9847	0.410191	0.409941	-0.0295862	1	0.000195912	13	0	3.9395	-1.21286e-05
2	0	0	1	0	0	14.3343	0.406696	0.40647	-0.0205261	1	0.000186602	13	0	4.2891	-8.34324e-06
2	0	0	1	0	0	14.6838	0.4032	0.402902	-0.0348618	1	0.00017717	13	0	4.6386	-1.40459e-05
2	0	0	1	0	0	15.0333	0.399705	0.399479	-0.0202457	1	0.000167556	13	0	4.9881	-8.08774e-06
2	0	0	1	0	0	15.3828	0.39621	0.395922	-0.0342932	1	0.000157759	13	0	5.3376	-1.35774e-05
2	0	0	1	0	0	15.7323	0.392715	0.39244	-0.0263268	1	0.000147808	13	0	5.6871	-1.03317e-05
2	0	0	1	0	0	16.0819	0.38922	0.38896	-0.0279035	1	0.000137552	13	0	6.0367	-1.08533e-05
2	0	0	1	0	0	16.4313	0.385725	0.385429	-0.0357354	1	0.000127232	13	0	6.3861	-1.37735e-05
2	0	0	1	0	0	16.7809	0.38223	0.381946	-0.0226232	1	0.000116572	13	0	6.7357	-8.64084e-06
2	0	0	1	0	0	17.1304	0.378734	0.378448	-0.0397547	1	0.000105752	13	0	7.0852	-1.50451e-05
2	0	0	1	0	0	17.4799	0.375239	0.374997	-0.0257603	1	9.47209e-05	13	0	7.4347	-9.66003e-06
2	0	0	1	0	0	17.8294	0.371745	0.37151	-0.0351414	1	8.33556e-05	13	0	7.7842	-1.30554e-05
2	0	0	1	0	0	18.1789	0.368249	0.367965	-0.0355405	1	7.19017e-05	13	0	8.1337	-1.30777e-05
2	0	0	1	0	0	18.5285	0.364754	0.364495	-0.0280422	1	6.00392e-05	13	0	8.4833	-1.02212e-05
2	0	0	1	0	0	18.8779	0.361259	0.36096	-0.0429287	1	4.80437e-05	13	0	8.8327	-1.54955e-05
2	0	0	1	0	0	19.2275	0.357764	0.357468	-0.0282232	1	3.5733e-05	13	0	9.1823	-1.00889e-05
2	0	0	1	0	0	19.577	0.354268	0.354022	-0.0403705	1	2.3117e-05	13	0	9.5318	-1.4292e-05
2	0	0	1	0	0	19.9265	0.350773	0.350501	-0.037697	1	1.03462e-05	13	0	9.8813	-1.32129e-05
2	1	0	1	0	1	20.2437	0.352421	0.352134	0.0308093	2	1.23639e-05	13	0	0.1948	1.0849e-05
2	1	0	1	0	1	20.5932	0.355917	0.355694	0.0353991	2	2.30987e-05	13	0	0.5443	1.25912e-05
2	1	0	1	0	1	20.9427	0.359411	0.35918	0.0253741	2	3.42928e-05	13	0	0.8938	9.11386e-06
2	1	0	1	0	1	21.2922	0.362906	0.362664	0.0402726	2	4.54023e-05	13	0	1.2433	1.46054e-05
2	1	0	1	0	1	21.6417	0.366402	0.366177	0.0244271	2	5.65662e-05	13	0	1.5928	8.94464e-06
2	1	0	1	0	1	21.9913	0.369897	0.369663	0.0363843	2	6.76417e-05	13	0	1.9424	1.34499e-05
2	1	0	1	0	1	22.3407	0.373392	0.373165	0.0300572	2	7.85471e-05	13	0	2.2918	1.12163e-05
2	1	0	1	0	1	22.6903	0.376887	0.376614	0.0278362	2	8.94537e-05	13	0	2.6414	1.04835e-05
2	1	0	1	0	1	23.0398	0.380383	0.380138	0.0368126	2	0.000100124	13	0	2.9909	1.39939e-05
2	1	0	1	0	1	23.3893	0.383877	0.383615	0.022137	2	0.000110722	13	0	3.3404	8.4921e-06
2	1	0	1	0	1	23.7388	0.387372	0.387108	0.037486	2	0.000121163	13	0	3.6899	1.45111e-05
2	1	0	1	0	1	24.0883	0.390868	0.390651	0.0234121	2	0.000131414	13	0	4.0394	9.14596e-06
2	1	0	1	0	1	24.4379	0.394363	0.394122	0.0309461	2	0.000141643	13	0	4.389	1.21965e-05
2	1	0	1	0	1	24.7873	0.397858	0.397616	0.0298726	2	0.000151561	13	0	4.7384	1.18778e-05
2	1	0	1	0	1	25.1369	0.401353	0.401101	0.0236105	2	0.000161526	13	0	5.088	9.4702e-06
2	1	0	1	0	1	25.4864	0.404849	0.404635	0.0347651	2	0.00017119	13	0	5.4375	1.40672e-05
2	1	0	1	0	1	25.8359	0.408344	0.40816	0.0196632	2	0.000180901	13	0	5.787	8.02574e-06
2	1	0	1	0	1	26.1854	0.411838	0.411625	0.0332338	2	0.000190379	13	0	6.1365	1.36799e-05
2	1	0	1	0	1	26.5349	0.415334	0.415155	0.0234547	2	0.000199711	13	0	6.486	9.73731e-06
2	1	0	1	0	1	26.8845	0.418829	0.418612	0.0264934	2	0.000209021	13	0	6.8356	1.10905e-05
2	1	0	1	0	1	27.234	0.422325	0.422095	0.0295982	2	0.000218086	13	0	7.1851	1.24932e-05
2	1	0	1	0	1	27.5835	0.425819	0.425598	0.0192392	2	0.000227182	13	0	7.5346	8.18815e-06
2	1	0	1	0	1	27.933	0.429314	0.429112	0.0333362	2	0.000236064	13	0	7.8841	1.4305e-05
2	1	0	1	0	1	28.2825	0.43281	0.432581	0.0172211	2	0.000244903	13	0	8.2336	7.4495e-06
2	1	0	1	0	1	28.6321	0.436305	0.436087	0.0313811	2	0.000253659	13	0	8.5832	1.36849e-05
2	1	0	1	0	1	28.9815	0.4398	0.439564	0.0213743	2	0.000262263	13	0	8.9326	9.39539e-06
2	1	0	1	0	1	29.3311	0.443295	0.443085	0.0239416	2	0.000270936	13	0	9.2822	1.06082e-05
2	1	0	1	0	1	29.6806	0.446791	0.446586	0.0285902	2	0.000279377	13	0	9.6317	1.2768e-05
2	1	0	0	0	1	29.9994	0.450011	0.449888	0.0232342	2	0.000287268	13	0	9.9505	1.04528e-05
2	0	0	1	0	1	30.3264	0.446741	0.446503	-0.0239575	2	0.000281732	13	0	0.2996	-1.06971e-05
2	0	0	1	0	1	30.6759	0.443245	0.442963	-0.0202412	2	0.000274674	13	0	0.6491	-8.96609e-06
2	0	0	1	0	1	31.0255	0.43975	0.439564	-0.0185795	2	0.000267113	13	0	0.9987	-8.16687e-06
2	0	0	1	0	1	31.3749	0.436255	0.435995	-0.0287213	2	0.000259471	13	0	1.3481	-1.25223e-05
2	0	0	1	0	1	31.7245	0.43276	0.432492	-0.0155938	2	0.000251482	13	0	1.6977	-6.74418e-06
2	0	0	1	0	1	32.074	0.429264	0.428999	-0.030921	2	0.000243384	13	0	2.0472	-1.32651e-05
2	0	0	1	0	1	32.4235	0.425769	0.42549	-0.0185501	2	0.000235093	13	0	2.3967	-7.8929e-06
2	0	0	1	0	1	32.773	0.422275	0.422047	-0.0267641	2	0.000226575	13	0	2.7462	-1.12957e-05
2	0	0	1	0	1	33.1225	0.418779	0.41847	-0.0276642	2	0.00021799	13	0	3.0957	-1.15766e-05
2	0	0	1	0	1	33.4721	0.415284	0.415092	-0.0185602	2	0.000209132	13	0	3.4453	-7.70421e-06
2	0	0	1	0	1	33.8215	0.411789	0.411543	-0.0336173	2	0.000200151	13	0	3.7947	-1.3835e-05
2	0	0	1	0	1	34.1711	0.408294	0.408046	-0.0218309	2	0.00019103	13	0	4.1443	-8.908e-06
2	0	0	1	0	1	34.5206	0.404798	0.404518	-0.0269558	2	0.000181553	13	0	4.4938	-1.09041e-05
2	0	0	1	0	1	34.8701	0.401303	0.401023	-0.0327541	2	0.000172122	13	0	4.8433	-1.31351e-05
2	0	0	1	0	1	35.2196	0.397809	0.397513	-0.0205696	2	0.000162356	13	0	5.1928	-8.17667e-06
2	0	0	1	0	1	35.5691	0.394313	0.394029	-0.0354296	2	0.000152477	13	0	5.5423	-1.39603e-05
2	0	0	1	0	1	35.9187	0.390818	0.390517	-0.02541	2	0.000142406	13	0	5.8919	-9.92306e-06
2	0	0	1	0	1	36.2682	0.387322	0.387053	-0.0294587	2	0.000132059	13	0	6.2414	-1.14021e-05
2	0	0	1	0	1	36.6177	0.383828	0.383502	-0.034999	2	0.00012161	13	0	6.5909	-1.34222e-05
2	0	0	1	0	1	36.9672	0.380332	0.380022	-0.0236511	2	0.000110844	13	0	6.9404	-8.98793e-06
2	0	0	1	0	1	37.3167	0.376837	0.376582	-0.0399112	2	9.99073e-05	13	0	7.2899	-1.50298e-05
2	0	0	1	0	1	37.6663	0.373342	0.37311	-0.0251713	2	8.87483e-05	13	0	7.6395	-9.39168e-06
2	0	0	1	0	1	38.0157	0.369847	0.369597	-0.0369087	2	7.72657e-05	13	0	7.9889	-1.36414e-05
2	0	0	1	0	1	38.3653	0.366352	0.36603	-0.0341748	2	6.56765e-05	13	0	8.3385	-1.2509e-05
2	0	0	1	0	1	38.7148	0.362856	0.362659	-0.0302215	2	5.36806e-05	13	0	8.688	-1.09601e-05
2	0	0	1	0	1	39.0643	0.359361	0.359054	-0.0422605	2	4.15871e-05	13	0	9.0375	-1.51738e-05
2	0	0	1	0	1	39.4138	0.355867	0.355587	-0.027829	2	2.9094e-05	13	0	9.387	-9.89562e-06
2	0	0	1	0	1	39.7633	0.352371	0.352122	-0.0435046	2	1.63604e-05	13	0	9.7365	-1.53189e-05
2	0	0	1	0	0	40.003	0.35005	0.349762	-0.0447981	3	7.57131e-06	13	0	9.9762	-1.56687e-05
2	1	0	1	0	0	40.3901	0.353919	0.353726	0.0272988	3	1.78422e-05	13	0	0.2946	9.6563e-06
2	1	0	1	0	0	40.7395	0.357414	0.357117	0.0308382	3	2.89072e-05	13	0	0.644	1.10128e-05
2	1	0	1	0	0	41.0891	0.360909	0.360762	0.0373996	3	3.99828e-05	13	0	0.9936	1.34923e-05
2	1	0	1	0	0	41.4386	0.364405	0.36418	0.024101	3	5.1197e-05	13	0	1.3431	8.77709e-06
2	1	0	1	0	0	41.7881	0.3679	0.367673	0.0399203	3	6.227e-05	13	0	1.6926	1.46776e-05
2	1	0	1	0	0	42.1376	0.371394	0.371181	0.0242072	3	7.32626e-05	13	0	2.0421	8.98525e-06
2	1	0	1	0	0	42.4871	0.37489	0.374685	0.0352737	3	8.42058e-05	13	0	2.3916	1.32165e-05
2	1	0	1	0	0	42.8367	0.378385	0.378152	0.0301152	3	9.48974e-05	13	0	2.7412	1.13881e-05
2	1	0	1	0	0	43.1862	0.381881	0.381596	0.02658	3	0.000105624	13	0	3.0907	1.01428e-05
2	1	0	1	0	0	43.5357	0.385375	0.385119	0.0364016	3	0.000116044	13	0	3.4402	1.4019e-05
2	1	0	1	0	0	43.8852	0.38887	0.388639	0.021468	3	0.000126453	13	0	3.7897	8.34329e-06
2	1	0	1	0	0	44.2347	0.392366	0.392125	0.0369115	3	0.000136643	13	0	4.1392	1.44739e-05
2	1	0	1	0	0	44.5843	0.395861	0.395625	0.0224799	3	0.000146712	13	0	4.4888	8.89361e-06
2	1	0	1	0	0	44.9337	0.399356	0.399076	0.0321957	3	0.000156676	13	0	4.8382	1.28485e-05
2	1	0	1	0	0	45.2833	0.402851	0.402613	0.0274603	3	0.000166427	13	0	5.1878	1.10559e-05
2	1	0	1	0	0	45.6328	0.406347	0.406099	0.0251326	3	0.000176193	13	0	5.5373	1.02063e-05
2	1	0	1	0	0	45.9823	0.409841	0.409639	0.0331066	3	0.000185706	13	0	5.8868	1.35617e-05
2	1	0	1	0	0	46.3318	0.413336	0.41313	0.0193914	3	0.000195164	13	0	6.2363	8.01118e-06
2	1	0	1	0	0	46.6813	0.416832	0.416647	0.0340153	3	0.000204466	13	0	6.5858	1.41724e-05
2	1	0	1	0	0	47.0309	0.420327	0.420078	0.0198906	3	0.000213637	13	0	6.9354	8.35559e-06
2	1	0	1	0	0	47.3803	0.423822	0.423582	0.0294881	3	0.000222777	13	0	7.2848	1.24906e-05
2	1	0	1	0	0	47.7299	0.427317	0.427025	0.0254225	3	0.000231672	13	0	7.6344	1.0856e-05
2	1	0	1	0	0	48.0794	0.430813	0.430597	0.0220442	3	0.000240638	13	0	7.9839	9.49217e-06
2	1	0	1	0	0	48.4289	0.434308	0.434089	0.0311246	3	0.000249346	13	0	8.3334	1.35109e-05
2	1	0	1	0	0	48.7784	0.437802	0.437573	0.017021	3	0.000258094	13	0	8.6829	7.44791e-06
2	1	0	1	0	0	49.1279	0.441298	0.441106	0.0317661	3	0.000266677	13	0	9.0324	1.40122e-05
2	1	0	1	0	0	49.4775	0.444793	0.444584	0.0186192	3	0.000275188	13	0	9.382	8.27778e-06
2	1	0	1	0	0	49.827	0.448289	0.448083	0.0266845	3	0.000283673	13	0	9.7315	1.19569e-05
2	0	0	1	0	0	50.1533	0.448438	0.448234	-0.0117001	3	0.000285114	12	0	0.1299	-5.24437e-06
2	0	0	1	0	0	50.5327	0.444643	0.444334	-0.0207377	3	0.000277995	13	0	0.5093	-9.21447e-06
2	0	0	1	0	0	50.8823	0.441148	0.440933	-0.0183558	3	0.000270556	13	0	0.8589	-8.09367e-06
2	0	0	1	0	0	51.2317	0.437653	0.437442	-0.0278864	3	0.000262991	13	0	1.2083	-1.21987e-05
2	0	0	1	0	0	51.5813	0.434158	0.433867	-0.0153787	3	0.000255103	13	0	1.5579	-6.67229e-06
2	0	0	1	0	0	51.9308	0.430662	0.43037	-0.0307873	3	0.000247073	13	0	1.9074	-1.32499e-05
2	0	0	1	0	0	52.2803	0.427167	0.426873	-0.0185101	3	0.000238867	13	0	2.2569	-7.90147e-06
2	0	0	1	0	0	52.6298	0.423673	0.423394	-0.0264869	3	0.000230408	13	0	2.6064	-1.12144e-05
2	0	0	1	0	0	52.9793	0.420177	0.419859	-0.0267887	3	0.000221912	13	0	2.9559	-1.12474e-05
2	0	0	1	0	0	53.3289	0.416682	0.416463	-0.0200609	3	0.000213104	13	0	3.3055	-8.3546e-06
2	0	0	1	0	0	53.6783	0.413187	0.412998	-0.0330887	3	0.000204264	13	0	3.6549	-1.36656e-05
2	0	0	1	0	0	54.0279	0.409692	0.409487	-0.018185	3	0.000195142	13	0	4.0045	-7.44651e-06
2	0	0	1	0	0	54.3774	0.406196	0.405987	-0.0341414	3	0.000185885	13	0	4.354	-1.3861e-05
2	0	0	1	0	0	54.7269	0.402701	0.402419	-0.0227017	3	0.000176444	13	0	4.7035	-9.13562e-06
2	0	0	1	0	0	55.0764	0.399207	0.398975	-0.0293603	3	0.000166751	13	0	5.053	-1.1714e-05
2	0	0	1	0	0	55.4259	0.395711	0.395394	-0.0308553	3	0.000156982	13	0	5.4025	-1.22e-05
2	0	0	1	0	0	55.7755	0.392216	0.391961	-0.0235624	3	0.000146912	13	0	5.7521	-9.23556e-06
2	0	0	1	0	0	56.1249	0.388721	0.388462	-0.0367662	3	0.00013676	13	0	6.1015	-1.42823e-05
2	0	0	1	0	0	56.4745	0.385226	0.384925	-0.0223722	3	0.000126316	13	0	6.4511	-8.61164e-06
2	0	0	1	0	0	56.824	0.38173	0.381463	-0.0377985	3	0.000115679	13	0	6.8006	-1.44187e-05
2	0	0	1	0	0	57.1735	0.378235	0.377994	-0.0266171	3	0.000104878	13	0	7.1501	-1.00611e-05
2	0	0	1	0	0	57.523	0.374741	0.374484	-0.0331321	3	9.37327e-05	13	0	7.4996	-1.24074e-05
2	0	0	1	0	0	57.8725	0.371245	0.370969	-0.0354811	3	8.25152e-05	13	0	7.8491	-1.31624e-05
2	0	0	1	0	0	58.2221	0.36775	0.367482	-0.0279505	3	7.08775e-05	13	0	8.1987	-1.02713e-05
2	0	0	1	0	0	58.5716	0.364254	0.363978	-0.0418513	3	5.9145e-05	13	0	8.5482	-1.52329e-05
2	0	0	1	0	0	58.9211	0.36076	0.360492	-0.0263252	3	4.70473e-05	13	0	8.8977	-9.49002e-06
2	0	0	1	0	0	59.2706	0.357265	0.357013	-0.0433827	3	3.474e-05	13	0	9.2472	-1.54882e-05
2	0	0	1	0	0	59.6201	0.353769	0.353442	-0.0308599	3	2.21604e-05	13	0	9.5967	-1.09072e-05
2	0	0	1	0	0	59.9697	0.350274	0.350018	-0.039496	3	9.23221e-06	13	0	9.9463	-1.38243e-05
2	1	0	1	0	1	60.2868	0.352921	0.352686	0.0276938	4	1.49023e-05	13	0	0.2597	9.76723e-06
2	1	0	1	0	1	60.6363	0.356416	0.35614	0.0311168	4	2.58599e-05	13	0	0.6092	1.10819e-05
2	1	0	1	0	1	60.9858	0.35991	0.359694	0.036053	4	3.68922e-05	13	0	0.9587	1.29681e-05
2	1	0	1	0	1	61.3353	0.363406	0.363176	0.0252249	4	4.81111e-05	13	0	1.3082	9.1611e-06
2	1	0	1	0	1	61.6849	0.366901	0.366656	0.0398386	4	5.91766e-05	13	0	1.6578	1.4607e-05
2	1	0	1	0	1	62.0344	0.370397	0.37017	0.0232932	4	7.02158e-05	13	0	2.0073	8.62243e-06
2	1	0	1	0	1	62.3839	0.373891	0.373677	0.0380288	4	8.11594e-05	13	0	2.3568	1.42105e-05
2	1	0	1	0	1	62.7334	0.377386	0.377168	0.0258169	4	9.18946e-05	13	0	2.7063	9.73729e-06
2	1	0	1	0	1	63.0829	0.380882	0.380609	0.0321362	4	0.000102637	13	0	3.0558	1.22313e-05
2	1	0	1	0	1	63.4324	0.384376	0.384141	0.031245	4	0.000113066	13	0	3.4053	1.20025e-05
2	1	0	1	0	1	63.7819	0.387872	0.387583	0.0249286	4	0.000123551	13	0	3.7548	9.66192e-06
2	1	0	1	0	1	64.1315	0.391367	0.39115	0.0357146	4	0.00013373	13	0	4.1044	1.39698e-05
2	1	0	1	0	1	64.481	0.394863	0.394644	0.0212311	4	0.000143893	13	0	4.4539	8.37872e-06
2	1	0	1	0	1	64.8305	0.398357	0.39813	0.0362083	4	0.000153832	13	0	4.8034	1.44156e-05
2	1	0	1	0	1	65.18	0.401852	0.40161	0.0214412	4	0.00016367	13	0	5.1529	8.61103e-06
2	1	0	1	0	1	65.5295	0.405348	0.405098	0.0318433	4	0.000173404	13	0	5.5024	1.28997e-05
2	1	0	1	0	1	65.8791	0.408843	0.408636	0.0259298	4	0.000182976	13	0	5.852	1.05958e-05
2	1	0	1	0	1	66.2285	0.412338	0.412127	0.0254794	4	0.000192502	13	0	6.2014	1.05008e-05
2	1	0	1	0	1	66.5781	0.415833	0.41564	0.0312625	4	0.000201759	13	0	6.551	1.2994e-05
2	1	0	1	0	1	66.9276	0.419329	0.419072	0.019063	4	0.000211028	13	0	6.9005	7.98876e-06
2	1	0	1	0	1	67.2771	0.422823	0.422572	0.0340161	4	0.000220117	13	0	7.25	1.43742e-05
2	1	0	1	0	1	67.6266	0.426318	0.426073	0.0189375	4	0.000229107	13	0	7.5995	8.06875e-06
2	1	0	1	0	1	67.9761	0.429814	0.429589	0.0291293	4	0.000238051	13	0	7.949	1.25136e-05
2	1	0	1	0	1	68.3257	0.433309	0.433101	0.0247688	4	0.000246771	13	0	8.2986	1.07274e-05
2	1	0	1	0	1	68.6751	0.436804	0.436573	0.0214606	4	0.000255548	13	0	8.648	9.36911e-06
2	1	0	1	0	1	69.0247	0.440299	0.440115	0.0303738	4	0.00026411	13	0	8.9976	1.3368e-05
2	1	0	1	0	1	69.3742	0.443795	0.443588	0.01746	4	0.000272686	13	0	9.3471	7.74503e-06
2	1	0	1	0	1	69.7237	0.44729	0.447067	0.0310153	4	0.000281149	13	0	9.6966	1.38659e-05
2	1	0	1	0	1	70.02	0.449737	0.449531	-0.00682523	4	0.000287602	13	0	0.000000000000000E+000	-3.06815e-06
2	0	0	1	0	1	70.4295	0.445642	0.445357	-0.0143634	4	0.000280194	13	0	0.4095	-6.39683e-06
2	0	0	1	0	1	70.779	0.442146	0.441891	-0.0241407	4	0.000272887	13	0	0.759	-1.06675e-05
2	0	0	1	0	1	71.1285	0.438652	0.438388	-0.0230556	4	0.000265384	13	0	1.1085	-1.01073e-05
2	0	0	1	0	1	71.478	0.435156	0.434917	-0.0182646	4	0.000257532	13	0	1.458	-7.9436e-06
2	0	0	1	0	1	71.8275	0.431661	0.431421	-0.0297883	4	0.000249586	13	0	1.8075	-1.28513e-05
2	0	0	1	0	1	72.1771	0.428166	0.427964	-0.0159958	4	0.000241386	13	0	2.1571	-6.84563e-06
2	0	0	1	0	1	72.5265	0.424671	0.424353	-0.0317678	4	0.000233038	13	0	2.5065	-1.34807e-05
2	0	0	1	0	1	72.8761	0.421176	0.42088	-0.0175647	4	0.00022454	13	0	2.8561	-7.39263e-06
2	0	0	1	0	1	73.2256	0.41768	0.417423	-0.0307282	4	0.000215803	13	0	3.2056	-1.28266e-05
2	0	0	1	0	1	73.5751	0.414185	0.413951	-0.0228767	4	0.000207019	13	0	3.5551	-9.46984e-06
2	0	0	1	0	1	73.9246	0.41069	0.410458	-0.0254855	4	0.000197899	13	0	3.9046	-1.04607e-05
2	0	0	1	0	1	74.2741	0.407195	0.406965	-0.0305864	4	0.000188792	13	0	4.2541	-1.24476e-05
2	0	0	1	0	1	74.6237	0.4037	0.403477	-0.0208201	4	0.000179267	13	0	4.6037	-8.40045e-06
2	0	0	1	0	1	74.9731	0.400205	0.399944	-0.0355705	4	0.000169761	13	0	4.9531	-1.42262e-05
2	0	0	1	0	1	75.3227	0.39671	0.396435	-0.0207069	4	0.000159991	13	0	5.3027	-8.20896e-06
2	0	0	1	0	1	75.6722	0.393214	0.392941	-0.0343347	4	0.00015003	13	0	5.6522	-1.34915e-05
2	0	0	1	0	1	76.0217	0.389719	0.389443	-0.0277453	4	0.000139943	13	0	6.0017	-1.08052e-05
2	0	0	1	0	1	76.3712	0.386225	0.385952	-0.0278385	4	0.000129518	13	0	6.3512	-1.07443e-05
2	0	0	1	0	1	76.7207	0.382729	0.382416	-0.0357013	4	0.000119049	13	0	6.7007	-1.36528e-05
2	0	0	1	0	1	77.0703	0.379234	0.378928	-0.023868	4	0.000108213	13	0	7.0503	-9.04424e-06
2	0	0	1	0	1	77.4197	0.375739	0.375477	-0.0402352	4	9.72508e-05	13	0	7.3997	-1.51074e-05
2	0	0	1	0	1	77.7693	0.372244	0.371993	-0.0251336	4	8.60263e-05	13	0	7.7493	-9.34953e-06
2	0	0	1	0	1	78.1188	0.368748	0.368495	-0.0381797	4	7.45254e-05	13	0	8.0988	-1.4069e-05
2	0	0	1	0	1	78.4683	0.365253	0.364955	-0.0329202	4	6.28741e-05	13	0	8.4483	-1.20144e-05
2	0	0	1	0	1	78.8178	0.361759	0.361494	-0.0320146	4	5.0831e-05	13	0	8.7978	-1.15731e-05
2	0	0	1	0	1	79.1673	0.358263	0.357941	-0.0406733	4	3.86706e-05	13	0	9.1473	-1.45586e-05
2	0	0	1	0	1	79.5169	0.354768	0.354498	-0.02923	4	2.61134e-05	13	0	9.4969	-1.0362e-05
2	0	0	1	0	1	79.8664	0.351272	0.351035	-0.0451581	4	1.33701e-05	13	0	9.8464	-1.58521e-05
2	1	0	1	0	0	80.1536	0.351623	0.351367	0.0316711	5	1.18079e-05	12	0	0.0649	1.11282e-05
2	1	0	1	0	0	80.5331	0.355417	0.35516	0.0393096	5	2.31012e-05	13	0	0.4444	1.39612e-05
2	1	0	1	0	0	80.8825	0.358912	0.358636	0.0257167	5	3.41353e-05	13	0	0.7938	9.22295e-06
2	1	0	1	0	0	81.2321	0.362407	0.362128	0.0353515	5	4.53583e-05	13	0	1.1434	1.28018e-05
2	1	0	1	0	0	81.5816	0.365903	0.365626	0.0318808	5	5.63913e-05	13	0	1.4929	1.16564e-05
2	1	0	1	0	0	81.9311	0.369398	0.369179	0.0277718	5	6.75301e-05	13	0	1.8424	1.02528e-05
2	1	0	1	0	0	82.2806	0.372892	0.372708	0.037543	5	7.83869e-05	13	0	2.1919	1.39925e-05
2	1	0	1	0	0	82.6301	0.376388	0.376166	0.0229331	5	8.92571e-05	13	0	2.5414	8.62666e-06
2	1	0	1	0	0	82.9797	0.379883	0.379637	0.0381007	5	9.99242e-05	13	0	2.891	1.44644e-05
2	1	0	1	0	0	83.3291	0.383378	0.383173	0.0250997	5	0.00011045	13	0	3.2404	9.61753e-06
2	1	0	1	0	0	83.6787	0.386873	0.386609	0.0311921	5	0.000120935	13	0	3.59	1.20591e-05
2	1	0	1	0	0	84.0282	0.390368	0.390144	0.0316634	5	0.000131146	13	0	3.9395	1.23533e-05
2	1	0	1	0	0	84.3777	0.393864	0.393582	0.0223247	5	0.000141363	13	0	4.289	8.7866e-06
2	1	0	1	0	0	84.7272	0.397358	0.397123	0.0366244	5	0.000151315	13	0	4.6385	1.45444e-05
2	1	0	1	0	0	85.0767	0.400854	0.400627	0.0203222	5	0.000161186	13	0	4.988	8.14161e-06
2	1	0	1	0	0	85.4263	0.404349	0.404062	0.0333017	5	0.000170941	13	0	5.3376	1.3456e-05
2	1	0	1	0	0	85.7758	0.407845	0.407629	0.0252709	5	0.000180554	13	0	5.6871	1.03011e-05
2	1	0	1	0	0	86.1253	0.411339	0.41116	0.0255241	5	0.000190108	13	0	6.0366	1.04945e-05
2	1	0	1	0	0	86.4748	0.414834	0.414667	0.0310616	5	0.000199397	13	0	6.3861	1.28802e-05
2	1	0	1	0	0	86.8243	0.41833	0.418092	0.0199478	5	0.000208693	13	0	6.7356	8.34e-06
2	1	0	1	0	0	87.1739	0.421825	0.421593	0.0332744	5	0.000217794	13	0	7.0852	1.40282e-05
2	1	0	1	0	0	87.5233	0.42532	0.425126	0.0184798	5	0.000226808	13	0	7.4346	7.85624e-06
2	1	0	1	0	0	87.8729	0.428815	0.428571	0.031394	5	0.000235753	13	0	7.7842	1.34546e-05
2	1	0	1	0	0	88.2224	0.432311	0.432125	0.021627	5	0.00024451	13	0	8.1337	9.34556e-06
2	1	0	1	0	0	88.5719	0.435805	0.435541	0.0251231	5	0.000253313	13	0	8.4832	1.09422e-05
2	1	0	1	0	0	88.9214	0.4393	0.439081	0.0276311	5	0.000261863	13	0	8.8327	1.21323e-05
2	1	0	1	0	0	89.2709	0.442796	0.442578	0.0184443	5	0.0002705	13	0	9.1822	8.16304e-06
2	1	0	1	0	0	89.6205	0.446291	0.446084	0.0316005	5	0.00027894	13	0	9.5318	1.40965e-05
2	1	0	1	0	0	89.9674	0.449761	0.449601	0.0168079	5	0.000287303	13	0	9.8787	7.55688e-06
2	0	0	1	0	0	90.3262	0.44664	0.446372	-0.0127621	5	0.000282663	13	0	0.2447	-5.69665e-06
2	0	0	1	0	0	90.6757	0.443145	0.442925	-0.0261339	5	0.000275475	13	0	0.5942	-1.15754e-05
2	0	0	1	0	0	91.0252	0.439651	0.439368	-0.0196805	5	0.000268048	13	0	0.9437	-8.64698e-06
2	0	0	1	0	0	91.3747	0.436155	0.435886	-0.0216448	5	0.000260246	13	0	1.2932	-9.43465e-06
2	0	0	1	0	0	91.7243	0.43266	0.432388	-0.0275225	5	0.000252375	13	0	1.6428	-1.19004e-05
2	0	0	1	0	0	92.0738	0.429164	0.428957	-0.017003	5	0.000244205	13	0	1.9923	-7.29357e-06
2	0	0	1	0	0	92.4233	0.425669	0.425369	-0.0315089	5	0.000235939	13	0	2.3418	-1.34029e-05
2	0	0	1	0	0	92.7728	0.422174	0.42189	-0.0168443	5	0.000227473	13	0	2.6913	-7.10643e-06
2	0	0	1	0	0	93.1223	0.418679	0.418422	-0.0311049	5	0.0002188	13	0	3.0408	-1.3015e-05
2	0	0	1	0	0	93.4718	0.415185	0.414955	-0.0223306	5	0.000210066	13	0	3.3903	-9.26621e-06
2	0	0	1	0	0	93.8213	0.411689	0.411452	-0.0252741	5	0.000201003	13	0	3.7398	-1.03991e-05
2	0	0	1	0	0	94.1709	0.408194	0.40793	-0.0306097	5	0.000191952	13	0	4.0894	-1.24866e-05
2	0	0	1	0	0	94.5204	0.404698	0.404453	-0.0203016	5	0.000182493	13	0	4.4389	-8.21104e-06
2	0	0	1	0	0	94.8699	0.401203	0.400913	-0.0352795	5	0.000173044	13	0	4.7884	-1.4144e-05
2	0	0	1	0	0	95.2194	0.397709	0.39739	-0.0208656	5	0.000163336	13	0	5.1379	-8.29178e-06
2	0	0	1	0	0	95.5689	0.394213	0.393959	-0.0335433	5	0.000153433	13	0	5.4874	-1.32147e-05
2	0	0	1	0	0	95.9185	0.390718	0.390463	-0.027787	5	0.000143394	13	0	5.837	-1.08498e-05
2	0	0	1	0	0	96.2679	0.387223	0.386933	-0.027771	5	0.000133062	13	0	6.1864	-1.07455e-05
2	0	0	1	0	0	96.6175	0.383728	0.383398	-0.0351552	5	0.000122647	13	0	6.536	-1.34784e-05
2	0	0	1	0	0	96.967	0.380232	0.37993	-0.0246275	5	0.000111887	13	0	6.8855	-9.35675e-06
2	0	0	1	0	0	97.3165	0.376737	0.376462	-0.0392239	5	0.000101015	13	0	7.235	-1.47663e-05
2	0	0	1	0	0	97.666	0.373243	0.37297	-0.02409	5	8.98453e-05	13	0	7.5845	-8.98483e-06
2	0	0	1	0	0	98.0155	0.369747	0.369453	-0.0405675	5	7.84394e-05	13	0	7.934	-1.49878e-05
2	0	0	1	0	0	98.3651	0.366252	0.365964	-0.0278053	5	6.68455e-05	13	0	8.2836	-1.01757e-05
2	0	0	1	0	0	98.7145	0.362757	0.362512	-0.0369981	5	5.49056e-05	13	0	8.633	-1.34122e-05
2	0	0	1	0	0	99.0641	0.359262	0.358961	-0.0364051	5	4.28434e-05	13	0	8.9826	-1.3068e-05
2	0	0	1	0	0	99.4136	0.355766	0.355502	-0.0310009	5	3.03722e-05	13	0	9.3321	-1.10209e-05
2	0	0	1	0	0	99.7631	0.352271	0.352004	-0.0445585	5	1.77486e-05	13	0	9.6816	-1.56848e-05
2	0	0	1	0	1	100.02	0.350324	0.350077	0.00815101	6	9.31052e-06	13	0	0.000000000000000E+000	2.85348e-06
2	1	0	1	0	1	100.43	0.354419	0.354168	0.0396798	6	2.10679e-05	13	0	0.4095	1.40533e-05
2	1	0	1	0	1	100.779	0.357913	0.357653	0.0233954	6	3.20889e-05	13	0	0.759	8.36745e-06
2	1	0	1	0	1	101.129	0.361408	0.361136	0.0387238	6	4.3252e-05	13	0	1.1085	1.39846e-05
2	1	0	1	0	1	101.478	0.364904	0.36468	0.0280975	6	5.43084e-05	13	0	1.458	1.02466e-05
2	1	0	1	0	1	101.828	0.368399	0.368173	0.0309806	6	6.54716e-05	13	0	1.8076	1.14062e-05
2	1	0	1	0	1	102.177	0.371894	0.371675	0.035665	6	7.63454e-05	13	0	2.157	1.32558e-05
2	1	0	1	0	1	102.527	0.375389	0.375149	0.0243681	6	8.72793e-05	13	0	2.5066	9.14168e-06
2	1	0	1	0	1	102.876	0.378885	0.378662	0.0381967	6	9.79442e-05	13	0	2.8561	1.44636e-05
2	1	0	1	0	1	103.226	0.38238	0.382127	0.0224621	6	0.00010856	13	0	3.2056	8.58336e-06
2	1	0	1	0	1	103.575	0.385874	0.385602	0.03628	6	0.000119034	13	0	3.5551	1.39896e-05
2	1	0	1	0	1	103.925	0.38937	0.389154	0.0246917	6	0.000129305	13	0	3.9046	9.60889e-06
2	1	0	1	0	1	104.274	0.392865	0.392582	0.0299737	6	0.000139541	13	0	4.2542	1.17671e-05
2	1	0	1	0	1	104.624	0.396361	0.396135	0.0311237	6	0.000149493	13	0	4.6037	1.23292e-05
2	1	0	1	0	1	104.973	0.399855	0.399637	0.0223009	6	0.000159457	13	0	4.9532	8.91226e-06
2	1	0	1	0	1	105.323	0.40335	0.403082	0.0353448	6	0.000169153	13	0	5.3027	1.42468e-05
2	1	0	1	0	1	105.672	0.406846	0.406621	0.0198848	6	0.000178871	13	0	5.6522	8.08557e-06
2	1	0	1	0	1	106.022	0.410341	0.410154	0.0331032	6	0.00018838	13	0	6.0018	1.35774e-05
2	1	0	1	0	1	106.371	0.413836	0.413628	0.0234099	6	0.000197733	13	0	6.3512	9.68299e-06
2	1	0	1	0	1	106.721	0.417331	0.417139	0.0262756	6	0.000207066	13	0	6.7008	1.09606e-05
2	1	0	1	0	1	107.071	0.420827	0.420586	0.0298477	6	0.000216165	13	0	7.0503	1.25535e-05
2	1	0	1	0	1	107.42	0.424321	0.424017	0.0194943	6	0.000225266	13	0	7.3998	8.26591e-06
2	1	0	1	0	1	107.77	0.427816	0.427619	0.0334873	6	0.000234186	13	0	7.7493	1.43198e-05
2	1	0	1	0	1	108.119	0.431312	0.431059	0.0176145	6	0.000243029	13	0	8.0988	7.59288e-06
2	1	0	1	0	1	108.469	0.434807	0.434563	0.0307604	6	0.000251817	13	0	8.4484	1.33673e-05
2	1	0	1	0	1	108.818	0.438302	0.438117	0.0223601	6	0.000260403	13	0	8.7978	9.79635e-06
2	1	0	1	0	1	109.168	0.441797	0.441562	0.0226531	6	0.000269074	13	0	9.1474	1.00028e-05
2	1	0	1	0	1	109.517	0.445293	0.445102	0.0289935	6	0.00027749	13	0	9.4969	1.29051e-05
2	1	0	1	0	1	109.867	0.448787	0.448606	0.0171694	6	0.000285966	13	0	9.8464	7.70232e-06
2	0	0	1	0	1	110.208	0.447788	0.447552	-0.0166007	6	0.000285211	12	0	0.1948	-7.4297e-06
2	0	0	1	0	1	110.572	0.444144	0.443873	-0.0285829	6	0.000277676	13	0	0.5593	-1.26871e-05
2	0	0	1	0	1	110.922	0.440649	0.440382	-0.0163596	6	0.000270294	13	0	0.9087	-7.20447e-06
2	0	0	1	0	1	111.271	0.437154	0.436911	-0.0235889	6	0.000262581	13	0	1.2583	-1.03062e-05
2	0	0	1	0	1	111.621	0.433658	0.433368	-0.0265845	6	0.000254772	13	0	1.6078	-1.15209e-05
2	0	0	1	0	1	111.97	0.430163	0.429932	-0.0167448	6	0.000246656	13	0	1.9573	-7.19914e-06
2	0	0	1	0	1	112.32	0.426669	0.426413	-0.0318556	6	0.000238446	13	0	2.3068	-1.35837e-05
2	0	0	1	0	1	112.669	0.423173	0.422905	-0.0173461	6	0.000230052	13	0	2.6563	-7.33576e-06
2	0	0	1	0	1	113.019	0.419678	0.419408	-0.0286864	6	0.000221415	13	0	3.0059	-1.20313e-05
2	0	0	1	0	1	113.369	0.416182	0.415909	-0.0268822	6	0.000212743	13	0	3.3554	-1.11805e-05
2	0	0	1	0	1	113.718	0.412688	0.412455	-0.0205602	6	0.000203744	13	0	3.7049	-8.48015e-06
2	0	0	1	0	1	114.068	0.409192	0.408924	-0.0336154	6	0.000194725	13	0	4.0544	-1.37461e-05
2	0	0	1	0	1	114.417	0.405697	0.405404	-0.0199748	6	0.000185391	13	0	4.4039	-8.09789e-06
2	0	0	1	0	1	114.767	0.402202	0.401935	-0.0320153	6	0.000175917	13	0	4.7535	-1.28681e-05
2	0	0	1	0	1	115.116	0.398707	0.398374	-0.0275089	6	0.000166339	13	0	5.1029	-1.09588e-05
2	0	0	1	0	1	115.466	0.395212	0.394966	-0.0251386	6	0.000156452	13	0	5.4525	-9.92887e-06
2	0	0	1	0	1	115.815	0.391716	0.391399	-0.0354304	6	0.000146494	13	0	5.802	-1.38674e-05
2	0	0	1	0	1	116.165	0.388221	0.38792	-0.0218374	6	0.000136255	13	0	6.1515	-8.47118e-06
2	0	0	1	0	1	116.514	0.384727	0.384406	-0.0378761	6	0.000125846	13	0	6.501	-1.45598e-05
2	0	0	1	0	1	116.864	0.381231	0.380935	-0.0257795	6	0.000115264	13	0	6.8505	-9.82031e-06
2	0	0	1	0	1	117.213	0.377736	0.377514	-0.032358	6	0.000104342	13	0	7.2001	-1.22156e-05
2	0	0	1	0	1	117.563	0.374241	0.373929	-0.0355099	6	9.33576e-05	13	0	7.5495	-1.32782e-05
2	0	0	1	0	1	117.912	0.370746	0.370502	-0.026356	6	8.19787e-05	13	0	7.8991	-9.76495e-06
2	0	0	1	0	1	118.262	0.36725	0.366973	-0.0414805	6	7.04653e-05	13	0	8.2486	-1.52223e-05
2	0	0	1	0	1	118.611	0.363755	0.363497	-0.0272213	6	5.86675e-05	13	0	8.5981	-9.89486e-06
2	0	0	1	0	1	118.961	0.360261	0.360021	-0.0395215	6	4.65757e-05	13	0	8.9476	-1.42285e-05
2	0	0	1	0	1	119.31	0.356765	0.356431	-0.0355381	6	3.43326e-05	13	0	9.2971	-1.26669e-05
2	0	0	1	0	1	119.66	0.35327	0.353018	-0.0324164	6	2.16579e-05	13	0	9.6467	-1.14436e-05
2	0	0	1	0	1	119.984	0.35	0.349876	-0.0408412	6	9.96299e-06	13	0	9.9712	-1.42894e-05
2	1	0	1	0	0	120.326	0.35342	0.353151	0.0237411	7	1.84164e-05	13	0	0.2446	8.38421e-06
2	1	0	1	0	0	120.676	0.356915	0.35667	0.0398039	7	2.93019e-05	13	0	0.5942	1.41969e-05
2	1	0	1	0	0	121.025	0.36041	0.36019	0.0246773	7	4.04258e-05	13	0	0.9436	8.88851e-06
2	1	0	1	0	0	121.375	0.363905	0.363629	0.0366503	7	5.16031e-05	13	0	1.2932	1.33271e-05
2	1	0	1	0	0	121.725	0.367401	0.367198	0.0309671	7	6.26334e-05	13	0	1.6427	1.1371e-05
2	1	0	1	0	0	122.074	0.370895	0.370666	0.0272894	7	7.3699e-05	13	0	1.9922	1.01152e-05
2	1	0	1	0	0	122.424	0.37439	0.37416	0.0383722	7	8.45287e-05	13	0	2.3417	1.43574e-05
2	1	0	1	0	0	122.773	0.377886	0.377632	0.0220611	7	9.52969e-05	13	0	2.6912	8.33098e-06
2	1	0	1	0	0	123.123	0.381381	0.381108	0.0369765	7	0.000105936	13	0	3.0408	1.4092e-05
2	1	0	1	0	0	123.472	0.384876	0.384651	0.0267259	7	0.000116349	13	0	3.3902	1.02801e-05
2	1	0	1	0	0	123.822	0.388371	0.388093	0.0278408	7	0.000126787	13	0	3.7398	1.08048e-05
2	1	0	1	0	0	124.171	0.391867	0.391656	0.0344147	7	0.000136902	13	0	4.0893	1.34787e-05
2	1	0	1	0	0	124.521	0.395362	0.395104	0.0209478	7	0.00014703	13	0	4.4388	8.27655e-06
2	1	0	1	0	0	124.87	0.398856	0.398597	0.0359522	7	0.000156936	13	0	4.7883	1.43305e-05
2	1	0	1	0	0	125.22	0.402352	0.402111	0.0220558	7	0.000166719	13	0	5.1378	8.86887e-06
2	1	0	1	0	0	125.569	0.405847	0.405547	0.0299727	7	0.000176438	13	0	5.4874	1.21553e-05
2	1	0	1	0	0	125.919	0.409343	0.409192	0.0288847	7	0.00018596	13	0	5.8369	1.18194e-05
2	1	0	1	0	0	126.268	0.412837	0.412624	0.0219252	7	0.000195449	13	0	6.1864	9.04686e-06
2	1	0	1	0	0	126.618	0.416332	0.416164	0.0335707	7	0.000204683	13	0	6.5359	1.39709e-05
2	1	0	1	0	0	126.967	0.419828	0.419585	0.0186345	7	0.000213899	13	0	6.8854	7.81875e-06
2	1	0	1	0	0	127.317	0.423322	0.423081	0.0326388	7	0.000222966	13	0	7.2349	1.38088e-05
2	1	0	1	0	0	127.666	0.426818	0.426583	0.0216165	7	0.000231902	13	0	7.5844	9.22121e-06
2	1	0	1	0	0	128.016	0.430313	0.430074	0.0260022	7	0.000240829	13	0	7.934	1.11829e-05
2	1	0	1	0	0	128.365	0.433809	0.433628	0.0283432	7	0.000249544	13	0	8.2835	1.22904e-05
2	1	0	1	0	0	128.715	0.437303	0.437079	0.0190574	7	0.000258268	13	0	8.633	8.3296e-06
2	1	0	1	0	0	129.064	0.440798	0.440566	0.0320798	7	0.000266836	13	0	8.9825	1.41333e-05
2	1	0	1	0	0	129.414	0.444294	0.4441	0.0171252	7	0.000275341	13	0	9.332	7.60529e-06
2	1	0	1	0	0	129.763	0.447789	0.447622	0.0290672	7	0.000283816	13	0	9.6816	1.30111e-05
2	0	0	1	0	0	130.075	0.449087	0.448882	-0.0125551	7	0.000288364	13	0	0.000000000000000E+000	-5.63578e-06
2	0	0	1	0	0	130.469	0.445142	0.444812	-0.0210582	7	0.000280977	13	0	0.3945	-9.36695e-06
2	0	0	1	0	0	130.819	0.441647	0.441377	-0.0170289	7	0.000273611	13	0	0.744	-7.51617e-06
2	0	0	1	0	0	131.168	0.438153	0.437875	-0.0291794	7	0.000266083	13	0	1.0935	-1.27769e-05
2	0	0	1	0	0	131.518	0.434657	0.434408	-0.015252	7	0.000258257	13	0	1.443	-6.62558e-06
2	0	0	1	0	0	131.867	0.431162	0.430901	-0.0288294	7	0.000250231	13	0	1.7926	-1.24226e-05
2	0	0	1	0	0	132.217	0.427667	0.427361	-0.0212441	7	0.000242101	13	0	2.142	-9.07889e-06
2	0	0	1	0	0	132.566	0.424172	0.42392	-0.0226549	7	0.000233676	13	0	2.4916	-9.60385e-06
2	0	0	1	0	0	132.916	0.420676	0.420405	-0.0297899	7	0.000225206	13	0	2.8411	-1.25239e-05
2	0	0	1	0	0	133.265	0.417181	0.416959	-0.0177678	7	0.000216474	13	0	3.1906	-7.40844e-06
2	0	0	1	0	0	133.615	0.413687	0.41344	-0.0329871	7	0.000207615	13	0	3.5401	-1.36382e-05
2	0	0	1	0	0	133.964	0.410191	0.409897	-0.020752	7	0.000198609	13	0	3.8896	-8.50619e-06
2	0	0	1	0	0	134.314	0.406696	0.406441	-0.0279649	7	0.000189332	13	0	4.2392	-1.13661e-05
2	0	0	1	0	0	134.663	0.4032	0.402915	-0.030607	7	0.000179974	13	0	4.5887	-1.2332e-05
2	0	0	1	0	0	135.013	0.399705	0.399459	-0.0210317	7	0.000170333	13	0	4.9382	-8.40132e-06
2	0	0	1	0	0	135.362	0.39621	0.395918	-0.0362273	7	0.000160626	13	0	5.2877	-1.4343e-05
2	0	0	1	0	0	135.712	0.392715	0.392408	-0.0224194	7	0.000150677	13	0	5.6372	-8.79755e-06
2	0	0	1	0	0	136.061	0.38922	0.389011	-0.0324003	7	0.000140502	13	0	5.9868	-1.26041e-05
2	0	0	1	0	0	136.411	0.385725	0.385427	-0.0318143	7	0.000130222	13	0	6.3362	-1.22621e-05
2	0	0	1	0	0	136.76	0.38223	0.381972	-0.0245731	7	0.000119599	13	0	6.6858	-9.38622e-06
2	0	0	1	0	0	137.11	0.378734	0.378449	-0.0393905	7	0.000108863	13	0	7.0353	-1.49073e-05
2	0	0	1	0	0	137.459	0.375239	0.374969	-0.0235091	7	9.78506e-05	13	0	7.3848	-8.81519e-06
2	0	0	1	0	0	137.809	0.371745	0.371522	-0.0388547	7	8.65867e-05	13	0	7.7343	-1.44354e-05
2	0	0	1	0	0	138.158	0.368249	0.36793	-0.030636	7	7.51781e-05	13	0	8.0838	-1.12719e-05
2	0	0	1	0	0	138.508	0.364754	0.364483	-0.031959	7	6.33849e-05	13	0	8.4334	-1.16485e-05
2	0	0	1	0	0	138.857	0.361259	0.360974	-0.040712	7	5.14997e-05	13	0	8.7828	-1.4696e-05
2	0	0	1	0	0	139.207	0.357764	0.357494	-0.0275754	7	3.92235e-05	13	0	9.1324	-9.85804e-06
2	0	0	1	0	0	139.557	0.354268	0.353979	-0.0438767	7	2.67379e-05	13	0	9.4819	-1.55314e-05
2	0	0	1	0	0	139.906	0.350773	0.350505	-0.0318743	7	1.40139e-05	13	0	9.8314	-1.11721e-05
2	1	0	1	0	1	140.208	0.352271	0.352001	0.0307696	8	1.56568e-05	12	0	0.1948	1.08309e-05
2	1	0	1	0	1	140.573	0.355917	0.355715	0.0311703	8	2.65165e-05	13	0	0.5593	1.10878e-05
2	1	0	1	0	1	140.922	0.359411	0.359157	0.0272591	8	3.76951e-05	13	0	0.9088	9.79031e-06
2	1	0	1	0	1	141.272	0.362906	0.362688	0.0395601	8	4.87709e-05	13	0	1.2583	1.4348e-05
2	1	0	1	0	1	141.621	0.366402	0.366155	0.024345	8	5.98877e-05	13	0	1.6078	8.91401e-06
2	1	0	1	0	1	141.971	0.369897	0.369642	0.036203	8	7.09298e-05	13	0	1.9574	1.33821e-05
2	1	0	1	0	1	142.32	0.373392	0.373221	0.0310813	8	8.17688e-05	13	0	2.3068	1.16002e-05
2	1	0	1	0	1	142.67	0.376887	0.376657	0.0267169	8	9.26279e-05	13	0	2.6564	1.00631e-05
2	1	0	1	0	1	143.019	0.380383	0.38015	0.037523	8	0.000103215	13	0	3.0059	1.42644e-05
2	1	0	1	0	1	143.369	0.383877	0.383601	0.0216995	8	0.000113751	13	0	3.3554	8.32397e-06
2	1	0	1	0	1	143.718	0.387372	0.387101	0.0358748	8	0.000124131	13	0	3.7049	1.38872e-05
2	1	0	1	0	1	144.068	0.390868	0.390615	0.0263762	8	0.000134308	13	0	4.0544	1.03029e-05
2	1	0	1	0	1	144.417	0.394363	0.394122	0.0270513	8	0.000144476	13	0	4.404	1.06615e-05
2	1	0	1	0	1	144.767	0.397858	0.397606	0.0335742	8	0.000154367	13	0	4.7534	1.33493e-05
2	1	0	1	0	1	145.116	0.401353	0.401122	0.020529	8	0.000164244	13	0	5.103	8.23464e-06
2	1	0	1	0	1	145.466	0.404849	0.404545	0.0353352	8	0.000173934	13	0	5.4525	1.42947e-05
2	1	0	1	0	1	145.815	0.408344	0.408124	0.02088	8	0.000183544	13	0	5.802	8.52161e-06
2	1	0	1	0	1	146.165	0.411838	0.411618	0.030606	8	0.000193049	13	0	6.1515	1.2598e-05
2	1	0	1	0	1	146.514	0.415334	0.41513	0.0275359	8	0.000202301	13	0	6.501	1.1431e-05
2	1	0	1	0	1	146.864	0.418829	0.418582	0.021284	8	0.000211596	13	0	6.8506	8.9091e-06
2	1	0	1	0	1	147.214	0.422325	0.422123	0.0331466	8	0.000220629	13	0	7.2001	1.39919e-05
2	1	0	1	0	1	147.563	0.425819	0.425581	0.0180109	8	0.000229649	13	0	7.5496	7.66511e-06
2	1	0	1	0	1	147.913	0.429314	0.429093	0.0303412	8	0.00023854	13	0	7.8991	1.30192e-05
2	1	0	1	0	1	148.262	0.43281	0.432613	0.0245683	8	0.000247288	13	0	8.2486	1.06286e-05
2	1	0	1	0	1	148.612	0.436305	0.43601	0.0210298	8	0.000256047	13	0	8.5982	9.16919e-06
2	1	0	1	0	1	148.961	0.4398	0.439567	0.0315855	8	0.00026462	13	0	8.9476	1.3884e-05
2	1	0	1	0	1	149.311	0.443295	0.443044	0.0165829	8	0.000273176	13	0	9.2972	7.34695e-06
2	1	0	1	0	1	149.66	0.446791	0.446553	0.0312129	8	0.000281652	13	0	9.6467	1.39382e-05
2	1	0	0	0	1	149.979	0.450011	0.449773	0.0403583	8	0.000289252	13	0	9.9655	1.81521e-05
2	0	0	1	0	1	150.366	0.446141	0.44586	-0.0160976	8	0.000282329	13	0	0.3595	-7.17727e-06
2	0	0	1	0	1	150.715	0.442646	0.442415	-0.0217373	8	0.000275051	13	0	0.7091	-9.61691e-06
2	0	0	1	0	1	151.065	0.439151	0.438865	-0.0249268	8	0.000267623	13	0	1.0585	-1.09395e-05
2	0	0	1	0	1	151.414	0.435656	0.435377	-0.0165866	8	0.000259791	13	0	1.4081	-7.22141e-06
2	0	0	1	0	1	151.764	0.43216	0.43188	-0.0306644	8	0.000251899	13	0	1.7576	-1.32433e-05
2	0	0	1	0	1	152.113	0.428665	0.428433	-0.0159511	8	0.000243748	13	0	2.1071	-6.834e-06
2	0	0	1	0	1	152.463	0.425171	0.424918	-0.028852	8	0.000235428	13	0	2.4566	-1.22598e-05
2	0	0	1	0	1	152.812	0.421675	0.421406	-0.0246197	8	0.000227007	13	0	2.8061	-1.03749e-05
2	0	0	1	0	1	153.162	0.41818	0.417944	-0.0211582	8	0.000218292	13	0	3.1557	-8.84293e-06
2	0	0	1	0	1	153.511	0.414685	0.414415	-0.0325805	8	0.000209536	13	0	3.5051	-1.35018e-05
2	0	0	1	0	1	153.861	0.41119	0.410961	-0.0178134	8	0.000200534	13	0	3.8547	-7.32062e-06
2	0	0	1	0	1	154.211	0.407694	0.407448	-0.0328868	8	0.000191365	13	0	4.2042	-1.33997e-05
2	0	0	1	0	1	154.56	0.404199	0.403858	-0.0248804	8	0.000182032	13	0	4.5537	-1.00481e-05
2	0	0	1	0	1	154.91	0.400705	0.400437	-0.0253134	8	0.000172436	13	0	4.9032	-1.01364e-05
2	0	0	1	0	1	155.259	0.397209	0.396882	-0.0338295	8	0.000162838	13	0	5.2527	-1.34263e-05
2	0	0	1	0	1	155.609	0.393714	0.393412	-0.0211713	8	0.000152897	13	0	5.6023	-8.32902e-06
2	0	0	1	0	1	155.958	0.390218	0.38997	-0.0368094	8	0.000142851	13	0	5.9518	-1.43545e-05
2	0	0	1	0	1	156.308	0.386724	0.38642	-0.0239947	8	0.000132579	13	0	6.3013	-9.27201e-06
2	0	0	1	0	1	156.657	0.383229	0.382983	-0.0316032	8	0.000122051	13	0	6.6508	-1.21035e-05
2	0	0	1	0	1	157.007	0.379733	0.379421	-0.0340135	8	0.000111405	13	0	7.0003	-1.29054e-05
2	0	0	1	0	1	157.356	0.376238	0.375971	-0.0254392	8	0.000100424	13	0	7.3499	-9.56438e-06
2	0	0	1	0	1	157.706	0.372743	0.372463	-0.0404235	8	8.93046e-05	13	0	7.6993	-1.50563e-05
2	0	0	1	0	1	158.055	0.369248	0.368983	-0.0251432	8	7.7917e-05	13	0	8.0489	-9.2774e-06
2	0	0	1	0	1	158.405	0.365752	0.36547	-0.0396395	8	6.62471e-05	13	0	8.3984	-1.4487e-05
2	0	0	1	0	1	158.754	0.362257	0.361985	-0.0319409	8	5.44398e-05	13	0	8.7479	-1.15621e-05
2	0	0	1	0	1	159.104	0.358762	0.358487	-0.0326101	8	4.22165e-05	13	0	9.0974	-1.16903e-05
2	0	0	1	0	1	159.453	0.355267	0.354974	-0.0423638	8	2.98934e-05	13	0	9.4469	-1.50381e-05
2	0	0	1	0	1	159.803	0.351772	0.351528	-0.0285918	8	1.71747e-05	13	0	9.7965	-1.00508e-05
2	1	0	1	0	0	160.075	0.350973	0.350778	0.0288506	9	1.19632e-05	13	0	0.000000000000000E+000	1.01202e-05
2	1	0	1	0	0	160.469	0.354918	0.354671	0.0249987	9	2.40896e-05	13	0	0.3944	8.86632e-06
2	1	0	1	0	0	160.819	0.358413	0.358173	0.0343963	9	3.51773e-05	13	0	0.744	1.23199e-05
2	1	0	1	0	0	161.168	0.361908	0.361699	0.0331834	9	4.62216e-05	13	0	1.0934	1.20024e-05
2	1	0	1	0	0	161.518	0.365403	0.365114	0.0268318	9	5.74198e-05	13	0	1.443	9.79666e-06
2	1	0	1	0	0	161.868	0.368899	0.368688	0.0389954	9	6.841e-05	13	0	1.7925	1.43772e-05
2	1	0	1	0	0	162.217	0.372393	0.372169	0.0228699	9	7.93801e-05	13	0	2.142	8.51148e-06
2	1	0	1	0	0	162.567	0.375888	0.375679	0.0383567	9	9.01981e-05	13	0	2.4915	1.44098e-05
2	1	0	1	0	0	162.916	0.379384	0.379144	0.0259683	9	0.000100842	13	0	2.841	9.84573e-06
2	1	0	1	0	0	163.266	0.382879	0.382614	0.0307643	9	0.000111462	13	0	3.1906	1.17709e-05
2	1	0	1	0	0	163.615	0.386374	0.386133	0.0334076	9	0.000121796	13	0	3.54	1.28998e-05
2	1	0	1	0	0	163.965	0.389869	0.389637	0.0220453	9	0.000132127	13	0	3.8896	8.58964e-06
2	1	0	1	0	0	164.314	0.393365	0.39312	0.0370317	9	0.000142228	13	0	4.2391	1.45579e-05
2	1	0	1	0	0	164.664	0.396859	0.396614	0.0208138	9	0.000152214	13	0	4.5886	8.25504e-06
2	1	0	1	0	0	165.013	0.400354	0.400126	0.0337964	9	0.000162111	13	0	4.9381	1.35228e-05
2	1	0	1	0	0	165.363	0.40385	0.403631	0.0253883	9	0.000171755	13	0	5.2876	1.02475e-05
2	1	0	1	0	0	165.712	0.407345	0.407052	0.0255262	9	0.000181503	13	0	5.6372	1.03905e-05
2	1	0	1	0	0	166.062	0.41084	0.410678	0.0324512	9	0.0001909	13	0	5.9866	1.3327e-05
2	1	0	1	0	0	166.411	0.414335	0.414128	0.0191463	9	0.000200331	13	0	6.3362	7.92904e-06
2	1	0	1	0	0	166.761	0.417831	0.417585	0.0336327	9	0.000209543	13	0	6.6857	1.40445e-05
2	1	0	1	0	0	167.11	0.421326	0.421101	0.0205687	9	0.00021866	13	0	7.0352	8.66148e-06
2	1	0	1	0	0	167.46	0.42482	0.42453	0.0285043	9	0.000227711	13	0	7.3847	1.21009e-05
2	1	0	1	0	0	167.809	0.428316	0.428104	0.0265431	9	0.000236576	13	0	7.7342	1.13632e-05
2	1	0	1	0	0	168.159	0.431811	0.43158	0.0209463	9	0.000245448	13	0	8.0838	9.04e-06
2	1	0	1	0	0	168.508	0.435307	0.435119	0.0312364	9	0.000254123	13	0	8.4333	1.35916e-05
2	1	0	1	0	0	168.858	0.438801	0.438567	0.0169716	9	0.000262782	13	0	8.7828	7.44318e-06
2	1	0	1	0	0	169.207	0.442296	0.442082	0.0315313	9	0.000271344	13	0	9.1323	1.39394e-05
2	1	0	1	0	0	169.557	0.445792	0.445556	0.0195702	9	0.00027977	13	0	9.4818	8.71962e-06
2	1	0	1	0	0	169.906	0.449287	0.449055	0.0251884	9	0.000288246	13	0	9.8314	1.1311e-05
2	0	0	1	0	0	170.263	0.44714	0.446908	-0.0205995	9	0.000285435	13	0	0.1948	-9.20609e-06
2	0	0	1	0	0	170.612	0.443644	0.443371	-0.023727	9	0.000278422	13	0	0.5443	-1.05199e-05
2	0	0	1	0	0	170.962	0.440149	0.439935	-0.0158768	9	0.00027093	13	0	0.8938	-6.98475e-06
2	0	0	1	0	0	171.311	0.436654	0.436432	-0.0296631	9	0.000263289	13	0	1.2433	-1.29459e-05
2	0	0	1	0	0	171.661	0.433159	0.432911	-0.0156636	9	0.000255389	13	0	1.5928	-6.78094e-06
2	0	0	1	0	0	172.01	0.429664	0.429421	-0.0288806	9	0.000247285	13	0	1.9424	-1.24019e-05
2	0	0	1	0	0	172.36	0.426169	0.425886	-0.0218978	9	0.00023909	13	0	2.2918	-9.32596e-06
2	0	0	1	0	0	172.709	0.422674	0.422374	-0.0226788	9	0.000230599	13	0	2.6414	-9.57892e-06
2	0	0	1	0	0	173.059	0.419178	0.418872	-0.0300096	9	0.000222079	13	0	2.9909	-1.25702e-05
2	0	0	1	0	0	173.408	0.415683	0.415514	-0.0179697	9	0.000213279	13	0	3.3404	-7.46664e-06
2	0	0	1	0	0	173.758	0.412189	0.411978	-0.0335656	9	0.00020437	13	0	3.6899	-1.38283e-05
2	0	0	1	0	0	174.107	0.408693	0.408425	-0.0203876	9	0.000195303	13	0	4.0394	-8.32681e-06
2	0	0	1	0	0	174.457	0.405198	0.404883	-0.0299624	9	0.000185907	13	0	4.389	-1.21312e-05
2	0	0	1	0	0	174.806	0.401703	0.401394	-0.0283315	9	0.000176552	13	0	4.7384	-1.13721e-05
2	0	0	1	0	0	175.156	0.398208	0.397998	-0.022973	9	0.000166822	13	0	5.088	-9.14323e-06
2	0	0	1	0	0	175.505	0.394712	0.394415	-0.0356331	9	0.00015707	13	0	5.4375	-1.40543e-05
2	0	0	1	0	0	175.855	0.391217	0.390906	-0.0208776	9	0.000147011	13	0	5.787	-8.16118e-06
2	0	0	1	0	0	176.204	0.387723	0.387426	-0.0366178	9	0.000136806	13	0	6.1365	-1.41867e-05
2	0	0	1	0	0	176.554	0.384227	0.383926	-0.0265688	9	0.000126415	13	0	6.486	-1.02005e-05
2	0	0	1	0	0	176.903	0.380732	0.380439	-0.0313064	9	0.000115718	13	0	6.8356	-1.19102e-05
2	0	0	1	0	0	177.253	0.377236	0.376877	-0.0347007	9	0.000104937	13	0	7.1851	-1.30779e-05
2	0	0	1	0	0	177.602	0.373741	0.373508	-0.0255501	9	9.38079e-05	13	0	7.5346	-9.54319e-06
2	0	0	1	0	0	177.952	0.370246	0.369991	-0.0405699	9	8.25255e-05	13	0	7.8841	-1.50105e-05
2	0	0	1	0	0	178.301	0.366751	0.366423	-0.0257114	9	7.09752e-05	13	0	8.2336	-9.42123e-06
2	0	0	1	0	0	178.651	0.363256	0.362977	-0.0394929	9	5.91258e-05	13	0	8.5832	-1.4335e-05
2	0	0	1	0	0	179	0.359761	0.359492	-0.0334601	9	4.71441e-05	13	0	8.9326	-1.20286e-05
2	0	0	1	0	0	179.35	0.356266	0.355981	-0.0334429	9	3.47399e-05	13	0	9.2822	-1.1905e-05
2	0	0	1	0	0	179.7	0.35277	0.352479	-0.0423323	9	2.2243e-05	13	0	9.6317	-1.49213e-05
2	0	0	0	0	1	179.979	0.35005	0.349952	-0.0228846	10	1.2151e-05	13	0	9.9113	-8.00853e-06
2	1	0	1	0	1	180.366	0.353919	0.353712	0.0382251	10	2.21994e-05	13	0	0.2946	1.35207e-05
2	1	0	1	0	1	180.716	0.357414	0.357167	0.0241628	10	3.31772e-05	13	0	0.644	8.63017e-06
2	1	0	1	0	1	181.065	0.360909	0.360647	0.0382825	10	4.43007e-05	13	0	0.9936	1.38065e-05
2	1	0	1	0	1	181.415	0.364405	0.364178	0.0284014	10	5.53837e-05	13	0	1.3431	1.03432e-05
2	1	0	1	0	1	181.764	0.3679	0.3676	0.0321181	10	6.65211e-05	13	0	1.6926	1.18066e-05
2	1	0	1	0	1	182.114	0.371394	0.371184	0.0348254	10	7.74168e-05	13	0	2.0421	1.29266e-05
2	1	0	1	0	1	182.463	0.37489	0.374675	0.0241943	10	8.83408e-05	13	0	2.3916	9.06503e-06
2	1	0	1	0	1	182.813	0.378385	0.378098	0.0387617	10	9.90148e-05	13	0	2.7412	1.46557e-05
2	1	0	1	0	1	183.162	0.381881	0.381638	0.0217754	10	0.000109622	13	0	3.0907	8.31033e-06
2	1	0	1	0	1	183.512	0.385375	0.385103	0.0362174	10	0.000120086	13	0	3.4402	1.39474e-05
2	1	0	1	0	1	183.861	0.38887	0.388625	0.0263129	10	0.000130343	13	0	3.7897	1.02259e-05
2	1	0	1	0	1	184.211	0.392366	0.392103	0.0280375	10	0.000140593	13	0	4.1392	1.09936e-05
2	1	0	1	0	1	184.56	0.395861	0.395628	0.0333494	10	0.000150562	13	0	4.4888	1.3194e-05
2	1	0	1	0	1	184.91	0.399356	0.399144	0.0208814	10	0.000160512	13	0	4.8382	8.33467e-06
2	1	0	1	0	1	185.259	0.402851	0.40261	0.0356212	10	0.000170256	13	0	5.1878	1.43414e-05
2	1	0	1	0	1	185.609	0.406347	0.406141	0.0213639	10	0.000179904	13	0	5.5373	8.67676e-06
2	1	0	1	0	1	185.958	0.409841	0.409631	0.0313781	10	0.000189478	13	0	5.8868	1.28535e-05
2	1	0	1	0	1	186.308	0.413336	0.413121	0.0246136	10	0.000198786	13	0	6.2363	1.01684e-05
2	1	0	1	0	1	186.657	0.416832	0.416584	0.0246559	10	0.000208141	13	0	6.5858	1.02713e-05
2	1	0	1	0	1	187.007	0.420327	0.420106	0.0305859	10	0.000217213	13	0	6.9354	1.28493e-05
2	1	0	1	0	1	187.356	0.423822	0.423559	0.0192456	10	0.00022632	13	0	7.2848	8.15163e-06
2	1	0	1	0	1	187.706	0.427317	0.427042	0.032835	10	0.000235225	13	0	7.6344	1.40219e-05
2	1	0	1	0	1	188.056	0.430813	0.430574	0.0192529	10	0.000244065	13	0	7.9839	8.28979e-06
2	1	0	1	0	1	188.405	0.434308	0.434113	0.0276325	10	0.00025285	13	0	8.3334	1.19956e-05
2	1	0	1	0	1	188.755	0.437802	0.437603	0.0261071	10	0.000261456	13	0	8.6829	1.14245e-05
2	1	0	1	0	1	189.104	0.441298	0.441058	0.0195425	10	0.000270087	13	0	9.0324	8.61937e-06
2	1	0	1	0	1	189.454	0.444793	0.444576	0.0313732	10	0.00027854	13	0	9.382	1.39478e-05
2	1	0	1	0	1	189.803	0.448289	0.448095	0.0165291	10	0.000286963	13	0	9.7315	7.40659e-06
2	0	0	1	0	1	190.129	0.448438	0.4482	-0.0228232	10	0.00028875	12	0	0.065	-1.02294e-05
2	0	0	1	0	1	190.509	0.444643	0.444394	-0.02636	10	0.000281698	13	0	0.4444	-1.17142e-05
2	0	0	1	0	1	190.858	0.441148	0.440875	-0.0189899	10	0.000274405	13	0	0.794	-8.37218e-06
2	0	0	1	0	1	191.208	0.437653	0.437413	-0.020585	10	0.000266716	13	0	1.1434	-9.00417e-06
2	0	0	1	0	1	191.557	0.434158	0.433877	-0.0278796	10	0.000258956	13	0	1.493	-1.20963e-05
2	0	0	1	0	1	191.907	0.430662	0.43043	-0.0165425	10	0.000250877	13	0	1.8425	-7.12041e-06
2	0	0	1	0	1	192.256	0.427167	0.426897	-0.0311121	10	0.000242712	13	0	2.192	-1.32817e-05
2	0	0	1	0	1	192.606	0.423673	0.423394	-0.0182029	10	0.000234345	13	0	2.5415	-7.707e-06
2	0	0	1	0	1	192.955	0.420177	0.419923	-0.0280845	10	0.000225769	13	0	2.891	-1.17933e-05
2	0	0	1	0	1	193.305	0.416682	0.416402	-0.0248534	10	0.000217115	13	0	3.2406	-1.0349e-05
2	0	0	1	0	1	193.654	0.413187	0.412958	-0.0225262	10	0.000208187	13	0	3.59	-9.30237e-06
2	0	0	1	0	1	194.004	0.409692	0.409466	-0.0325234	10	0.000199196	13	0	3.9396	-1.33172e-05
2	0	0	1	0	1	194.354	0.406196	0.405943	-0.0190833	10	0.000189934	13	0	4.2891	-7.74672e-06
2	0	0	1	0	1	194.703	0.402701	0.402456	-0.0353601	10	0.000180502	13	0	4.6386	-1.42309e-05
2	0	0	1	0	1	195.053	0.399207	0.398934	-0.0200308	10	0.000170943	13	0	4.9881	-7.99094e-06
2	0	0	1	0	1	195.402	0.395711	0.395451	-0.0324281	10	0.000161138	13	0	5.3376	-1.28237e-05
2	0	0	1	0	1	195.752	0.392216	0.39189	-0.0298716	10	0.000151267	13	0	5.6872	-1.17064e-05
2	0	0	1	0	1	196.101	0.388721	0.388407	-0.0239175	10	0.000141055	13	0	6.0366	-9.28973e-06
2	0	0	1	0	1	196.451	0.385226	0.384906	-0.0380075	10	0.000130743	13	0	6.3862	-1.46293e-05
2	0	0	1	0	1	196.8	0.38173	0.381453	-0.0229875	10	0.000120182	13	0	6.7357	-8.76865e-06
2	0	0	1	0	1	197.15	0.378235	0.377996	-0.036589	10	0.000109374	13	0	7.0852	-1.38305e-05
2	0	0	1	0	1	197.499	0.374741	0.374425	-0.0302525	10	9.84436e-05	13	0	7.4347	-1.13273e-05
2	0	0	1	0	1	197.849	0.371245	0.370972	-0.030213	10	8.71229e-05	13	0	7.7842	-1.12082e-05
2	0	0	1	0	1	198.198	0.36775	0.367407	-0.0387892	10	7.57353e-05	13	0	8.1338	-1.42514e-05
2	0	0	1	0	1	198.548	0.364254	0.363988	-0.0261567	10	6.39471e-05	13	0	8.4833	-9.52075e-06
2	0	0	1	0	1	198.897	0.36076	0.36051	-0.0423119	10	5.19859e-05	13	0	8.8328	-1.52539e-05
2	0	0	1	0	1	199.247	0.357265	0.35697	-0.0295089	10	3.9753e-05	13	0	9.1823	-1.05338e-05
2	0	0	1	0	1	199.596	0.353769	0.353517	-0.0383301	10	2.72146e-05	13	0	9.5318	-1.35504e-05
2	0	0	1	0	1	199.946	0.350274	0.349987	-0.039431	10	1.45104e-05	13	0	9.8814	-1.38004e-05
2	0	0	0	0	1	199.971	0.35	0.349704	-0.0187359	10	1.36144e-05	13	0	9.9063	-6.55202e-06