File: ACS_Catal_2026/Figures_Na_K/main_figures/data/EC/20251112_2-148_alpha_reproducibility/20251112_2-148_006_gamma_reproducibility_2_K1_03_CVA_C02.mpt
EC-Lab ASCII FILE
Nb header lines : 66

Cyclic Voltammetry Advanced

Run on channel : 2 (SN 69290)
User :
CE vs. WE compliance from -10 V to 10 V
Electrode connection : standard
Potential control : Ewe
Ewe ctrl range : min = -1.00 V, max = 1.00 V
Safety Limits :
	Do not start on E overload
Acquisition started on : 11/12/2025 19:12:40.101
Loaded Setting File :  C:\Users\User\Documents\EC-Lab\Data\Yatsuzuka\20251112_2-148_alpha_reproducibility\20251112_2-148_002_alpha_reproducibility_2_K1.mps
Saved on :
	File : 20251112_2-148_006_gamma_reproducibility_2_K1_03_CVA_C02.mpr
	Directory : C:\Users\User\Documents\EC-Lab\Data\Yatsuzuka\20251112_2-148_alpha_reproducibility\
	Host : 192.109.209.127
Device : SP-150e (SN .003883)
Address : 192.109.209.128
EC-Lab for windows v11.52 (software)
Internet server v11.52 (firmware)
Command interpretor v11.50 (firmware)
Electrode material :
Initial state :
Electrolyte :
Comments :
Electrode surface area : 0.001 cm2
Characteristic mass : 0.001 g
Equivalent Weight : 0.000 g/eq.
Density : 0.000 g/cm3
Volume (V) : 0.001 cm3
Cycle Definition : Charge/Discharge alternance
Ei (V)              0.450
vs.                 Ref
ti (h:m:s)          0:00:10.0000
dti (s)             0.0000
dE/dt               5.000
dE/dt unit          mV/s
E1 (V)              0.700
vs.                 Ref
t1 (h:m:s)          0:00:0.0000
dt1 (s)             0.1000
Step percent        50
N                   10
E range min (V)     -1.000
E range max (V)     1.000
I Range             10 mA
I Range min         Unset
I Range max         Unset
I Range init        Unset
Bandwidth           5
E2 (V)              0.450
vs.                 Ref
t2 (h:m:s)          0:00:0.0000
dt2 (s)             0.1000
nc cycles           14
nr                  1
Reverse Scan        0
Ef (V)              0.000
vs.                 Eoc
tf (h:m:s)          0:00:0.0000
dtf (s)             0.1000

mode	ox/red	error	control changes	Ns changes	counter inc.	time/s	control/V	Ewe/V	<I>/mA	cycle number	(Q-Qo)/C	I Range	Ns	step time/s	P/W
2	1	0	1	0	0	232.741	0.450021	0.449687	0.00563072	1	0.0000000E+000	11	0	0.000000000000000E+000	2.53206e-06
2	1	0	1	0	0	235.393	0.463279	0.462791	0.00379951	1	1.048e-05	11	0	2.5969	1.75838e-06
2	1	0	1	0	0	238.09	0.476763	0.476312	0.00461229	1	2.17016e-05	11	0	5.2937	2.19689e-06
2	1	0	0	0	0	240.787	0.490248	0.48979	0.00465787	1	3.37338e-05	11	0	7.9906	2.28138e-06
2	1	0	1	0	0	243.484	0.503731	0.50328	0.00487011	1	4.68953e-05	11	0	10.6873	2.45102e-06
2	1	0	0	0	0	246.181	0.517216	0.516755	0.00513322	1	6.12613e-05	11	0	13.3842	2.65262e-06
2	1	0	0	0	0	248.877	0.5307	0.530299	0.00638628	1	7.7171e-05	11	0	16.081	3.38664e-06
2	1	0	0	0	0	251.574	0.544184	0.543739	0.0072795	1	9.4902e-05	11	0	18.7778	3.95815e-06
2	1	0	0	0	0	254.271	0.557668	0.557202	0.00752947	1	0.000115175	11	0	21.4746	4.19543e-06
2	1	0	0	0	0	256.968	0.571152	0.57066	0.00988451	1	0.000139016	11	0	24.1714	5.64069e-06
2	1	0	0	0	0	259.665	0.584636	0.584194	0.0113768	1	0.000167886	11	0	26.8682	6.64624e-06
2	1	0	0	0	0	262.361	0.59812	0.597688	0.0151019	1	0.000204685	11	0	29.565	9.02626e-06
2	1	0	0	0	0	265.058	0.611604	0.61117	0.02074	1	0.000253797	11	0	32.2618	1.26757e-05
2	1	0	0	0	0	267.755	0.625088	0.624668	0.0301346	1	0.000322924	11	0	34.9586	1.88241e-05
2	1	0	0	0	0	270.452	0.638572	0.638161	0.0446271	1	0.000423709	11	0	37.6554	2.84793e-05
2	1	0	0	0	0	273.149	0.652056	0.651633	0.067476	1	0.000573971	11	0	40.3522	4.39696e-05
2	1	0	0	0	0	275.845	0.66554	0.6651	0.101945	1	0.000800446	11	0	43.049	6.78034e-05
2	1	0	0	0	0	278.542	0.679024	0.678586	0.15254	1	0.00114062	11	0	45.7458	0.000103512
2	1	0	0	0	0	281.239	0.692508	0.692087	0.226357	1	0.00164665	11	0	48.4426	0.000156659
2	1	0	1	0	0	283.686	0.695255	0.69482	0.22803	1	0.00226254	11	0	50.89	0.00015844
2	1	0	1	0	0	286.383	0.681771	0.681368	0.136781	1	0.00274099	11	0	53.5868	9.31983e-05
2	1	0	1	0	0	289.08	0.668287	0.667839	0.0813047	1	0.00302842	11	0	56.2836	5.42985e-05
2	1	0	1	0	0	291.777	0.654802	0.65441	0.0491674	1	0.00320007	11	0	58.9805	3.21757e-05
2	1	0	1	0	0	294.474	0.641318	0.640854	0.0294201	1	0.00330307	11	0	61.6773	1.8854e-05
2	1	0	1	0	0	297.17	0.627834	0.627399	0.0173861	1	0.00336457	11	0	64.3741	1.0908e-05
2	1	0	1	0	0	299.867	0.61435	0.61389	0.0110199	1	0.00340144	11	0	67.0709	6.76501e-06
2	1	0	1	0	0	302.564	0.600866	0.600389	0.00680092	1	0.00342364	11	0	69.7677	4.08319e-06
2	1	0	1	0	0	305.261	0.587382	0.58689	0.00379863	1	0.0034372	11	0	72.4645	2.22938e-06
2	1	0	1	0	0	307.958	0.573898	0.573464	0.00252954	1	0.00344561	11	0	75.1613	1.4506e-06
2	1	0	1	0	0	310.654	0.560414	0.560038	0.0019784	1	0.00345093	11	0	77.8581	1.10798e-06
2	1	0	1	0	0	313.351	0.54693	0.546427	0.000874306	1	0.00345427	11	0	80.5549	4.77744e-07
2	1	0	1	0	0	316.048	0.533446	0.533013	0.00118485	1	0.00345649	11	0	83.2517	6.31543e-07
2	1	0	1	0	0	318.745	0.519962	0.519507	8.68153e-05	1	0.00345775	11	0	85.9485	4.51011e-08
2	1	0	1	0	0	321.442	0.506478	0.506058	0.000890823	1	0.00345851	11	0	0.000000000000000E+000	4.50808e-07
2	0	0	1	0	0	324.138	0.492994	0.492475	-0.000179846	1	0.00345885	11	0	0.000000000000000E+000	-8.85696e-08
2	0	0	1	0	0	326.835	0.47951	0.479044	6.83286e-05	1	0.00345882	11	0	0.000000000000000E+000	3.27324e-08
2	1	0	1	0	0	329.532	0.466026	0.4656	1.57502e-05	1	0.00345847	11	0	0.000000000000000E+000	7.33328e-09
2	1	0	1	0	0	332.229	0.452542	0.45211	-0.000337832	1	0.00345777	11	0	0.000000000000000E+000	-1.52737e-07
2	0	0	0	0	1	334.695	0.459834	0.459389	0.0026007	2	0.00346348	11	0	1.8978	1.19473e-06
2	1	0	0	0	1	337.392	0.473318	0.472856	0.00355	2	0.00347216	11	0	4.5946	1.67864e-06
2	0	0	0	0	1	340.089	0.486802	0.486328	0.00287671	2	0.00348101	11	0	7.2914	1.39903e-06
2	0	0	0	0	1	342.786	0.500286	0.499844	0.00307539	2	0.00348994	11	0	9.9882	1.53721e-06
2	1	0	0	0	1	345.482	0.51377	0.513298	0.00368929	2	0.00349911	11	0	12.685	1.89371e-06
2	1	0	0	0	1	348.179	0.527254	0.526775	0.0035965	2	0.00350854	11	0	15.3818	1.89455e-06
2	1	0	0	0	1	350.876	0.540738	0.540267	0.00395022	2	0.00351858	11	0	18.0786	2.13417e-06
2	0	0	0	0	1	353.573	0.554222	0.553804	0.00369054	2	0.00352945	11	0	20.7754	2.04384e-06
2	1	0	0	0	1	356.27	0.567706	0.567233	0.00512233	2	0.00354172	11	0	23.4722	2.90556e-06
2	1	0	0	0	1	358.966	0.58119	0.580753	0.00581306	2	0.0035562	11	0	26.169	3.37595e-06
2	1	0	0	0	1	361.663	0.594674	0.59422	0.007255	2	0.00357458	11	0	28.8658	4.31106e-06
2	1	0	0	0	1	364.36	0.608158	0.607734	0.0104554	2	0.00359946	11	0	31.5626	6.35413e-06
2	1	0	0	0	1	367.057	0.621642	0.621205	0.0160506	2	0.00363534	11	0	34.2594	9.9707e-06
2	1	0	0	0	1	369.754	0.635126	0.634694	0.0250168	2	0.00368961	11	0	36.9562	1.5878e-05
2	1	0	0	0	1	372.45	0.64861	0.648196	0.039069	2	0.00377446	11	0	39.653	2.53244e-05
2	1	0	0	0	1	375.147	0.662094	0.661685	0.0620642	2	0.00390924	11	0	42.3498	4.10669e-05
2	1	0	0	0	1	377.844	0.675578	0.675142	0.0999566	2	0.00412436	11	0	45.0466	6.74848e-05
2	1	0	0	0	1	380.541	0.689062	0.688642	0.156609	2	0.00446538	11	0	47.7434	0.000107847
2	1	0	1	0	1	382.978	0.69875	0.698363	0.211937	2	0.00493283	11	0	50.1809	0.000148009
2	1	0	1	0	1	385.675	0.685266	0.684853	0.126771	2	0.00537897	11	0	52.8777	8.68198e-05
2	1	0	1	0	1	388.372	0.671782	0.671281	0.0762884	2	0.00564649	11	0	55.5745	5.1211e-05
2	1	0	1	0	1	391.069	0.658298	0.657875	0.0459498	2	0.00580655	11	0	58.2713	3.02292e-05
2	1	0	1	0	1	393.765	0.644814	0.644345	0.0267109	2	0.00590196	11	0	60.9681	1.7211e-05
2	1	0	1	0	1	396.462	0.63133	0.630889	0.016384	2	0.0059586	11	0	63.6649	1.03365e-05
2	1	0	1	0	1	399.159	0.617846	0.617426	0.00981155	2	0.00599211	11	0	66.3617	6.05791e-06
2	1	0	1	0	1	401.856	0.604362	0.603918	0.00553099	2	0.0060121	11	0	69.0585	3.34026e-06
2	1	0	1	0	1	404.553	0.590878	0.590383	0.00368364	2	0.00602427	11	0	71.7553	2.17476e-06
2	1	0	1	0	1	407.249	0.577394	0.576919	0.00263449	2	0.0060317	11	0	74.4521	1.51989e-06
2	1	0	1	0	1	409.946	0.56391	0.563493	0.00111459	2	0.00603624	11	0	77.1489	6.28063e-07
2	1	0	1	0	1	412.643	0.550426	0.549992	0.00140965	2	0.00603912	11	0	79.8457	7.75294e-07
2	1	0	1	0	1	415.34	0.536942	0.536526	0.000761675	2	0.00604088	11	0	82.5425	4.08659e-07
2	0	0	1	0	1	418.037	0.523458	0.522997	0.000281284	2	0.00604198	11	0	0.000000000000000E+000	1.47111e-07
2	0	0	1	0	1	420.733	0.509974	0.509546	-9.7588e-05	2	0.0060426	11	0	0.000000000000000E+000	-4.97256e-08
2	0	0	1	0	1	423.43	0.49649	0.496045	-0.000242772	2	0.00604282	11	0	0.000000000000000E+000	-1.20426e-07
2	0	0	1	0	1	426.127	0.483006	0.482536	-0.000372017	2	0.00604272	11	0	0.000000000000000E+000	-1.79512e-07
2	0	0	1	0	1	428.824	0.469523	0.469091	-0.000454556	2	0.00604228	11	0	0.000000000000000E+000	-2.13228e-07
2	0	0	1	0	1	431.521	0.456039	0.455592	-8.9548e-05	2	0.00604157	11	0	0.2996	-4.07973e-08
2	0	0	0	0	0	433.987	0.456338	0.455851	0.00280357	3	0.00604466	11	0	1.2536	1.27801e-06
2	1	0	0	0	0	436.684	0.469822	0.469347	0.00336906	3	0.00605276	11	0	3.9504	1.58126e-06
2	1	0	0	0	0	439.381	0.483306	0.48285	0.00324647	3	0.00606106	11	0	6.6472	1.56756e-06
2	1	0	0	0	0	442.077	0.49679	0.49635	0.00296413	3	0.00606953	11	0	9.344	1.47124e-06
2	1	0	0	0	0	444.774	0.510274	0.509803	0.00281387	3	0.00607816	11	0	12.0408	1.43452e-06
2	1	0	0	0	0	447.471	0.523758	0.523291	0.00346244	3	0.0060869	11	0	14.7376	1.81186e-06
2	1	0	0	0	0	450.168	0.537242	0.536773	0.00359724	3	0.00609585	11	0	17.4344	1.9309e-06
2	1	0	0	0	0	452.865	0.550726	0.550302	0.00373911	3	0.0061054	11	0	20.1312	2.05764e-06
2	1	0	0	0	0	455.561	0.56421	0.563793	0.00375971	3	0.00611591	11	0	22.828	2.1197e-06
2	1	0	0	0	0	458.258	0.577694	0.577237	0.00506744	3	0.00612821	11	0	25.5248	2.92511e-06
2	1	0	0	0	0	460.955	0.591178	0.590702	0.00597141	3	0.0061433	11	0	28.2216	3.52732e-06
2	1	0	0	0	0	463.652	0.604662	0.604181	0.00879091	3	0.00616326	11	0	30.9184	5.3113e-06
2	1	0	0	0	0	466.349	0.618146	0.61772	0.0121138	3	0.00619134	11	0	33.6152	7.48295e-06
2	1	0	0	0	0	469.045	0.63163	0.631216	0.0194277	3	0.00623347	11	0	36.312	1.2263e-05
2	1	0	0	0	0	471.742	0.645114	0.644691	0.0300091	3	0.00629926	11	0	39.0088	1.93466e-05
2	1	0	0	0	0	474.439	0.658598	0.65814	0.0494486	3	0.00640482	11	0	41.7056	3.25441e-05
2	1	0	1	0	0	477.136	0.672083	0.671645	0.0790364	3	0.00657522	11	0	44.4025	5.30844e-05
2	1	0	1	0	0	479.833	0.685567	0.685117	0.127898	3	0.00685004	11	0	47.0993	8.76253e-05
2	1	0	1	0	0	482.529	0.699051	0.69858	0.200639	3	0.00728711	11	0	49.7961	0.000140162
2	1	0	1	0	0	484.967	0.688762	0.688369	0.135198	3	0.00770143	11	0	52.2335	9.30659e-05
2	1	0	1	0	0	487.664	0.675278	0.674794	0.0807093	3	0.00798575	11	0	54.9303	5.44622e-05
2	1	0	1	0	0	490.36	0.661794	0.661357	0.0486296	3	0.00815633	11	0	57.6271	3.21616e-05
2	1	0	1	0	0	493.057	0.64831	0.647844	0.0290279	3	0.00825771	11	0	60.3239	1.88056e-05
2	1	0	1	0	0	495.754	0.634826	0.634398	0.0166917	3	0.00831736	11	0	63.0207	1.05891e-05
2	1	0	1	0	0	498.451	0.621342	0.620893	0.0102837	3	0.00835226	11	0	65.7175	6.38508e-06
2	1	0	1	0	0	501.148	0.607859	0.607449	0.00570209	3	0.00837279	11	0	68.4143	3.46373e-06
2	1	0	1	0	0	503.844	0.594375	0.593917	0.00389646	3	0.008385	11	0	71.1111	2.31417e-06
2	1	0	1	0	0	506.541	0.58089	0.580388	0.00227022	3	0.00839244	11	0	73.8079	1.31761e-06
2	0	0	1	0	0	509.238	0.567406	0.566921	0.00133543	3	0.00839693	11	0	76.5047	7.57083e-07
2	1	0	1	0	0	511.935	0.553923	0.5535	0.00137359	3	0.00839978	11	0	79.2015	7.6028e-07
2	0	0	1	0	0	514.632	0.540439	0.540027	0.00038864	3	0.0084015	11	0	81.8983	2.09876e-07
2	1	0	1	0	0	517.328	0.526955	0.526481	0.000734029	3	0.00840257	11	0	0.000000000000000E+000	3.86453e-07
2	1	0	1	0	0	520.025	0.513471	0.513017	-5.39147e-07	3	0.00840301	11	0	0.000000000000000E+000	-2.76591e-10
2	1	0	1	0	0	522.722	0.499987	0.499535	0.00044479	3	0.00840316	11	0	0.000000000000000E+000	2.22188e-07
2	0	0	1	0	0	525.419	0.486503	0.486069	-0.000320637	3	0.008403	11	0	0.000000000000000E+000	-1.55851e-07
2	1	0	1	0	0	528.116	0.473019	0.472513	0.000435632	3	0.00840265	11	0	0.000000000000000E+000	2.05842e-07
2	0	0	0	0	0	530.813	0.459534	0.459105	-0.000482522	3	0.00840197	11	0	0.000000000000000E+000	-2.21528e-07
2	1	0	0	0	1	533.279	0.452842	0.452376	0.00295648	4	0.00840283	11	0	0.5644	1.33744e-06
2	1	0	0	0	1	535.976	0.466326	0.46589	0.0026422	4	0.00841074	11	0	3.2612	1.23097e-06
2	0	0	0	0	1	538.672	0.47981	0.479376	0.00251144	4	0.0084189	11	0	5.958	1.20393e-06
2	1	0	0	0	1	541.369	0.493294	0.492824	0.00309312	4	0.00842708	11	0	8.6548	1.52436e-06
2	1	0	0	0	1	544.066	0.506778	0.506315	0.00309021	4	0.00843534	11	0	11.3516	1.56462e-06
2	0	0	0	0	1	546.763	0.520262	0.51979	0.00260738	4	0.0084437	11	0	14.0484	1.35529e-06
2	1	0	0	0	1	549.46	0.533746	0.533283	0.00269118	4	0.00845227	11	0	16.7452	1.43516e-06
2	0	0	0	0	1	552.156	0.54723	0.546784	0.00301381	4	0.00846128	11	0	19.442	1.6479e-06
2	1	0	1	0	1	554.853	0.560715	0.560308	0.00356542	4	0.00847105	11	0	22.1389	1.99773e-06
2	1	0	1	0	1	557.55	0.574199	0.573765	0.00460704	4	0.00848216	11	0	24.8357	2.64336e-06
2	1	0	1	0	1	560.247	0.587683	0.587184	0.00508477	4	0.00849545	11	0	27.5325	2.98569e-06
2	1	0	1	0	1	562.944	0.601167	0.600748	0.00691387	4	0.0085126	11	0	30.2293	4.15349e-06
2	1	0	1	0	1	565.64	0.614651	0.614184	0.0102606	4	0.00853633	11	0	32.9261	6.3019e-06
2	1	0	1	0	1	568.337	0.628135	0.627685	0.0160889	4	0.00857142	11	0	35.6229	1.00987e-05
2	1	0	1	0	1	571.034	0.641619	0.641154	0.0250605	4	0.00862587	11	0	38.3197	1.60676e-05
2	1	0	1	0	1	573.731	0.655103	0.65465	0.0404627	4	0.0087134	11	0	41.0165	2.64889e-05
2	1	0	1	0	1	576.428	0.668587	0.668134	0.0667953	4	0.00885597	11	0	43.7133	4.46282e-05
2	1	0	1	0	1	579.124	0.682071	0.681651	0.108506	4	0.00908837	11	0	46.4101	7.39631e-05
2	1	0	1	0	1	581.821	0.695555	0.695108	0.172773	4	0.00946261	11	0	49.1069	0.000120096
2	1	0	1	0	1	584.259	0.692258	0.691792	0.14931	4	0.00989646	11	0	51.5443	0.000103291
2	1	0	1	0	1	586.955	0.678774	0.678341	0.0903628	4	0.0102124	11	0	54.2411	6.12968e-05
2	1	0	1	0	1	589.652	0.665291	0.664874	0.0538125	4	0.010402	11	0	56.9379	3.57786e-05
2	1	0	1	0	1	592.349	0.651807	0.651348	0.031601	4	0.0105143	11	0	59.6347	2.05833e-05
2	1	0	1	0	1	595.046	0.638323	0.637843	0.0186661	4	0.0105799	11	0	62.3315	1.1906e-05
2	1	0	1	0	1	597.743	0.624839	0.624415	0.0104474	4	0.0106178	11	0	65.0283	6.52354e-06
2	1	0	1	0	1	600.439	0.611355	0.610853	0.0065784	4	0.0106398	11	0	67.7251	4.01843e-06
2	1	0	0	0	1	603.136	0.59787	0.597386	0.00345662	4	0.0106527	11	0	70.422	2.06494e-06
2	1	0	0	0	1	605.833	0.584386	0.58392	0.00271865	4	0.0106605	11	0	73.1188	1.58748e-06
2	0	0	0	0	1	608.53	0.570902	0.570437	0.00133631	4	0.0106652	11	0	75.8156	7.62283e-07
2	1	0	0	0	1	611.227	0.557418	0.556972	0.00106869	4	0.010668	11	0	78.5124	5.95231e-07
2	1	0	0	0	1	613.924	0.543934	0.543495	0.00106413	4	0.0106699	11	0	81.2092	5.78349e-07
2	1	0	0	0	1	616.62	0.53045	0.529996	0.00075758	4	0.0106709	11	0	83.906	4.01515e-07
2	1	0	0	0	1	619.317	0.516966	0.516535	0.000317109	4	0.0106715	11	0	0.000000000000000E+000	1.63798e-07
2	1	0	0	0	1	622.014	0.503482	0.503038	0.000387308	4	0.0106717	11	0	0.0999	1.94831e-07
2	1	0	0	0	1	624.711	0.489998	0.489551	0.000299744	4	0.0106716	11	0	0.000000000000000E+000	1.4674e-07
2	1	0	0	0	1	627.408	0.476514	0.476074	-0.000168174	4	0.0106711	11	0	0.000000000000000E+000	-8.00632e-08
2	0	0	0	0	1	630.104	0.46303	0.462547	-0.000230131	4	0.0106704	11	0	0.2997	-1.06446e-07
2	0	0	0	0	1	632.705	0.450021	0.449515	-0.00485934	4	0.0106695	11	0	0.5035	-2.18435e-06
2	0	0	1	0	0	635.267	0.462831	0.462363	0.0022892	5	0.0106766	11	0	2.5521	1.05844e-06
2	1	0	1	0	0	637.964	0.476315	0.475888	0.00321736	5	0.0106845	11	0	5.2489	1.5311e-06
2	1	0	1	0	0	640.661	0.489799	0.489311	0.003224	5	0.0106924	11	0	7.9457	1.57754e-06
2	1	0	1	0	0	643.358	0.503283	0.502842	0.00323389	5	0.0107004	11	0	10.6425	1.62613e-06
2	1	0	1	0	0	646.055	0.516767	0.516317	0.00320326	5	0.0107085	11	0	13.3393	1.6539e-06
2	0	0	1	0	0	648.751	0.530251	0.529784	0.00250096	5	0.0107167	11	0	16.0361	1.32497e-06
2	0	0	1	0	0	651.448	0.543735	0.543309	0.00288444	5	0.0107253	11	0	18.7329	1.56714e-06
2	1	0	1	0	0	654.145	0.557219	0.556808	0.00341414	5	0.0107344	11	0	21.4297	1.90102e-06
2	1	0	1	0	0	656.842	0.570703	0.570238	0.00431368	5	0.0107446	11	0	24.1265	2.45982e-06
2	1	0	1	0	0	659.539	0.584187	0.583745	0.00443434	5	0.0107567	11	0	26.8233	2.58852e-06
2	1	0	1	0	0	662.235	0.597671	0.597199	0.00645458	5	0.0107719	11	0	29.5201	3.85467e-06
2	1	0	1	0	0	664.932	0.611155	0.61074	0.00908325	5	0.0107924	11	0	32.2169	5.5475e-06
2	1	0	1	0	0	667.629	0.624638	0.624183	0.012915	5	0.0108221	11	0	34.9137	8.06135e-06
2	1	0	1	0	0	670.326	0.638122	0.63768	0.0211577	5	0.0108681	11	0	37.6105	1.34918e-05
2	1	0	1	0	0	673.023	0.651606	0.651186	0.0349564	5	0.0109423	11	0	40.3073	2.27632e-05
2	1	0	1	0	0	675.719	0.665091	0.664624	0.0570182	5	0.0110642	11	0	43.0041	3.78957e-05
2	1	0	1	0	0	678.416	0.678574	0.678159	0.0938304	5	0.0112649	11	0	45.7009	6.36319e-05
2	1	0	1	0	0	681.113	0.692058	0.691597	0.152341	5	0.0115917	11	0	48.3977	0.000105359
2	1	0	0	0	0	683.551	0.695754	0.695326	0.168355	5	0.0120246	11	0	50.8352	0.000117062
2	1	0	0	0	0	686.247	0.68227	0.681822	0.102094	5	0.0123819	11	0	53.532	6.96097e-05
2	1	0	0	0	0	688.944	0.668786	0.668325	0.0616935	5	0.012598	11	0	56.2288	4.12313e-05
2	1	0	0	0	0	691.641	0.655302	0.654849	0.0363005	5	0.012726	11	0	58.9256	2.37714e-05
2	1	0	0	0	0	694.338	0.641818	0.641385	0.020671	5	0.0128003	11	0	61.6224	1.3258e-05
2	1	0	0	0	0	697.035	0.628334	0.627879	0.0123409	5	0.0128429	11	0	64.3192	7.74857e-06
2	1	0	0	0	0	699.731	0.61485	0.61438	0.00700084	5	0.0128673	11	0	67.016	4.30118e-06
2	1	0	0	0	0	702.428	0.601366	0.600872	0.00411269	5	0.0128815	11	0	69.7128	2.4712e-06
2	1	0	0	0	0	705.125	0.587882	0.587426	0.00273197	5	0.01289	11	0	72.4096	1.60483e-06
2	1	0	0	0	0	707.822	0.574398	0.573924	0.00164669	5	0.0128951	11	0	75.1064	9.45075e-07
2	1	0	0	0	0	710.519	0.560914	0.560498	0.00129268	5	0.0128983	11	0	77.8032	7.24544e-07
2	1	0	0	0	0	713.215	0.54743	0.547	0.00079783	5	0.0129002	11	0	80.5	4.36413e-07
2	0	0	0	0	0	715.912	0.533946	0.533503	7.32538e-05	5	0.0129014	11	0	83.1968	3.90811e-08
2	0	0	0	0	0	718.609	0.520462	0.520019	0.000129472	5	0.0129021	11	0	0.0999	6.73277e-08
2	1	0	0	0	0	721.306	0.506978	0.506487	8.73083e-05	5	0.0129025	11	0	0.0999	4.42205e-08
2	1	0	0	0	0	724.003	0.493494	0.492991	-0.000345878	5	0.0129026	11	0	0.000000000000000E+000	-1.70515e-07
2	0	0	0	0	0	726.699	0.48001	0.479538	-0.000222331	5	0.0129024	11	0	0.000000000000000E+000	-1.06616e-07
2	0	0	0	0	0	729.396	0.466526	0.466105	-0.000112986	5	0.012902	11	0	0.000000000000000E+000	-5.26633e-08
2	1	0	0	0	0	732.093	0.453042	0.452563	0.000157213	5	0.0129014	11	0	0.0999	7.11486e-08
2	1	0	1	0	1	734.559	0.459335	0.458847	0.00255677	6	0.0129063	11	0	1.8529	1.17317e-06
2	1	0	1	0	1	737.256	0.472818	0.472356	0.00232868	6	0.0129141	11	0	4.5497	1.09996e-06
2	1	0	1	0	1	739.953	0.486303	0.48585	0.00235564	6	0.0129221	11	0	7.2465	1.14449e-06
2	1	0	1	0	1	742.65	0.499787	0.499346	0.00252481	6	0.0129301	11	0	9.9433	1.26076e-06
2	1	0	1	0	1	745.346	0.51327	0.512795	0.00276288	6	0.0129381	11	0	12.6401	1.41679e-06
2	1	0	1	0	1	748.043	0.526755	0.526277	0.00311538	6	0.0129462	11	0	15.3369	1.63956e-06
2	1	0	1	0	1	750.74	0.540238	0.539753	0.00302362	6	0.0129545	11	0	18.0337	1.63201e-06
2	1	0	1	0	1	753.437	0.553722	0.553269	0.0036084	6	0.0129633	11	0	20.7305	1.99642e-06
2	1	0	1	0	1	756.134	0.567206	0.566732	0.00331579	6	0.012973	11	0	23.4273	1.87916e-06
2	1	0	1	0	1	758.83	0.58069	0.580285	0.00456733	6	0.0129843	11	0	26.1241	2.65035e-06
2	1	0	1	0	1	761.527	0.594174	0.59371	0.00537076	6	0.012998	11	0	28.8209	3.18867e-06
2	1	0	1	0	1	764.224	0.607658	0.607247	0.00781899	6	0.0130161	11	0	31.5177	4.74806e-06
2	1	0	1	0	1	766.921	0.621142	0.620677	0.0113454	6	0.013042	11	0	34.2145	7.04184e-06
2	1	0	1	0	1	769.618	0.634626	0.634184	0.0183434	6	0.0130816	11	0	36.9113	1.16331e-05
2	1	0	1	0	1	772.314	0.64811	0.647661	0.0296945	6	0.0131455	11	0	39.6081	1.9232e-05
2	1	0	1	0	1	775.011	0.661594	0.661177	0.0497776	6	0.0132513	11	0	42.3049	3.29118e-05
2	1	0	1	0	1	777.708	0.675078	0.674613	0.0831293	6	0.0134273	11	0	45.0017	5.60801e-05
2	1	0	1	0	1	780.405	0.688562	0.688082	0.134949	6	0.013717	11	0	47.6985	9.28561e-05
2	1	0	0	0	1	782.842	0.69925	0.698844	0.193327	6	0.0141268	11	0	50.136	0.000135105
2	1	0	0	0	1	785.539	0.685766	0.685341	0.11834	6	0.0145378	11	0	52.8328	8.1103e-05
2	1	0	0	0	1	788.236	0.672282	0.671841	0.0706924	6	0.0147871	11	0	55.5296	4.74941e-05
2	1	0	0	0	1	790.933	0.658798	0.658352	0.0421361	6	0.0149353	11	0	58.2264	2.77404e-05
2	1	0	0	0	1	793.63	0.645314	0.644878	0.0238044	6	0.0150212	11	0	60.9232	1.5351e-05
2	1	0	0	0	1	796.326	0.63183	0.631386	0.0132646	6	0.0150698	11	0	63.62	8.37505e-06
2	1	0	0	0	1	799.023	0.618346	0.617886	0.00775993	6	0.0150972	11	0	66.3168	4.79475e-06
2	1	0	0	0	1	801.72	0.604862	0.604397	0.0047731	6	0.0151128	11	0	69.0136	2.88485e-06
2	1	0	0	0	1	804.417	0.591378	0.590918	0.0030798	6	0.0151219	11	0	71.7104	1.81991e-06
2	1	0	0	0	1	807.114	0.577894	0.577445	0.001955	6	0.0151274	11	0	74.4072	1.12891e-06
2	1	0	0	0	1	809.81	0.56441	0.563973	0.00116369	6	0.0151307	11	0	77.104	6.56289e-07
2	0	0	0	0	1	812.507	0.550926	0.550471	0.000623438	6	0.0151328	11	0	79.8008	3.43184e-07
2	0	0	0	0	1	815.204	0.537442	0.537043	0.000216594	6	0.0151341	11	0	82.4976	1.16321e-07
2	0	0	0	0	1	817.901	0.523958	0.523529	4.63222e-05	6	0.0151348	11	0	0.000000000000000E+000	2.4251e-08
2	1	0	0	0	1	820.598	0.510474	0.509994	0.000622113	6	0.0151352	11	0	0.000000000000000E+000	3.17274e-07
2	1	0	0	0	1	823.294	0.49699	0.496552	9.56232e-05	6	0.0151353	11	0	0.000000000000000E+000	4.74819e-08
2	1	0	0	0	1	825.991	0.483506	0.483068	-0.000329242	6	0.0151351	11	0	0.000000000000000E+000	-1.59046e-07
2	1	0	0	0	1	828.688	0.470022	0.469573	0.000383475	6	0.0151347	11	0	0.0998	1.8007e-07
2	1	0	0	0	1	831.385	0.456538	0.45607	-0.00037391	6	0.015134	11	0	0.1997	-1.70529e-07
2	1	0	1	0	0	833.851	0.455838	0.455413	0.00231789	7	0.0151366	11	0	1.0987	1.0556e-06
2	0	0	1	0	0	836.548	0.469322	0.468898	0.00234256	7	0.0151442	11	0	3.7955	1.09842e-06
2	0	0	1	0	0	839.245	0.482806	0.482357	0.00246942	7	0.015152	11	0	6.4923	1.19114e-06
2	1	0	1	0	0	841.941	0.49629	0.495817	0.00272815	7	0.0151598	11	0	9.1891	1.35266e-06
2	1	0	1	0	0	844.638	0.509774	0.509337	0.00313122	7	0.0151676	11	0	11.8859	1.59485e-06
2	1	0	1	0	0	847.335	0.523258	0.522801	0.00322138	7	0.0151755	11	0	14.5827	1.68414e-06
2	1	0	1	0	0	850.032	0.536742	0.536233	0.00283622	7	0.0151836	11	0	17.2795	1.52088e-06
2	1	0	1	0	0	852.729	0.550226	0.549813	0.00266861	7	0.0151921	11	0	19.9763	1.46724e-06
2	1	0	1	0	0	855.425	0.56371	0.563248	0.00310997	7	0.0152012	11	0	22.6731	1.75168e-06
2	1	0	1	0	0	858.122	0.577194	0.576746	0.00362319	7	0.0152115	11	0	25.3699	2.08966e-06
2	1	0	1	0	0	860.819	0.590678	0.590239	0.00487109	7	0.0152239	11	0	28.0667	2.87511e-06
2	1	0	1	0	0	863.516	0.604162	0.603753	0.00687996	7	0.01524	11	0	30.7635	4.1538e-06
2	1	0	1	0	0	866.213	0.617647	0.617238	0.010189	7	0.0152624	11	0	33.4604	6.28904e-06
2	1	0	1	0	0	868.91	0.631131	0.630734	0.0159328	7	0.0152965	11	0	36.1572	1.00493e-05
2	1	0	1	0	0	871.606	0.644615	0.644246	0.0260058	7	0.0153514	11	0	38.854	1.67541e-05
2	1	0	1	0	0	874.303	0.658099	0.657644	0.0435535	7	0.0154434	11	0	41.5508	2.86427e-05
2	1	0	1	0	0	877	0.671583	0.671174	0.0732096	7	0.0155986	11	0	44.2476	4.91364e-05
2	1	0	1	0	0	879.697	0.685067	0.684659	0.121105	7	0.015857	11	0	46.9444	8.29156e-05
2	1	0	1	0	0	882.394	0.698551	0.698073	0.194477	7	0.0162769	11	0	49.6412	0.000135759
2	1	0	0	0	0	884.831	0.689262	0.688816	0.137259	7	0.0166938	11	0	52.0786	9.45461e-05
2	1	0	0	0	0	887.528	0.675778	0.67533	0.0829588	7	0.0169856	11	0	54.7754	5.60246e-05
2	1	0	0	0	0	890.225	0.662294	0.661883	0.0490287	7	0.0171598	11	0	57.4722	3.24513e-05
2	1	0	0	0	0	892.921	0.64881	0.648357	0.0281151	7	0.0172608	11	0	60.169	1.82286e-05
2	1	0	0	0	0	895.618	0.635326	0.634875	0.0159273	7	0.0173174	11	0	62.8658	1.01119e-05
2	1	0	0	0	0	898.315	0.621842	0.621416	0.00905758	7	0.0173488	11	0	65.5626	5.62852e-06
2	1	0	0	0	0	901.012	0.608358	0.607927	0.00510857	7	0.0173662	11	0	68.2594	3.10564e-06
2	1	0	0	0	0	903.709	0.594874	0.594398	0.00280454	7	0.0173763	11	0	70.9562	1.66701e-06
2	1	0	0	0	0	906.405	0.58139	0.580957	0.00222472	7	0.0173823	11	0	73.653	1.29247e-06
2	1	0	0	0	0	909.102	0.567906	0.567453	0.00146681	7	0.0173859	11	0	76.3498	8.32345e-07
2	0	0	1	0	0	911.799	0.554421	0.553932	0.00083738	7	0.0173881	11	0	79.0467	4.63852e-07
2	0	0	1	0	0	914.496	0.540937	0.540469	0.000214109	7	0.0173896	11	0	81.7435	1.15719e-07
2	0	0	1	0	0	917.193	0.527453	0.526977	1.07275e-05	7	0.0173905	11	0	0.000000000000000E+000	5.65315e-09
2	0	0	1	0	0	919.889	0.513969	0.513452	-8.58757e-05	7	0.017391	11	0	0.000000000000000E+000	-4.4093e-08
2	1	0	1	0	0	922.586	0.500485	0.500014	-0.000197727	7	0.0173911	11	0	0.000000000000000E+000	-9.88663e-08
2	0	0	1	0	0	925.283	0.487001	0.486526	-0.000224857	7	0.017391	11	0	0.000000000000000E+000	-1.09399e-07
2	0	0	1	0	0	927.98	0.473517	0.473025	0.000449915	7	0.0173908	11	0	0.000000000000000E+000	2.12821e-07
2	0	0	1	0	0	930.677	0.460033	0.459594	-0.000570255	7	0.0173903	11	0	0.000000000000000E+000	-2.62086e-07
2	1	0	1	0	1	933.143	0.452342	0.451902	0.00287706	8	0.017391	11	0	0.4545	1.30015e-06
2	0	0	1	0	1	935.84	0.465826	0.46537	0.002301	8	0.0173985	11	0	3.1513	1.07082e-06
2	1	0	1	0	1	938.536	0.47931	0.47884	0.00277662	8	0.0174064	11	0	5.8481	1.32956e-06
2	1	0	1	0	1	941.233	0.492794	0.492312	0.00231689	8	0.0174143	11	0	8.5449	1.14063e-06
2	0	0	1	0	1	943.93	0.506279	0.505826	0.00267141	8	0.0174222	11	0	11.2418	1.35127e-06
2	0	0	1	0	1	946.627	0.519763	0.519323	0.00243801	8	0.0174301	11	0	13.9386	1.26611e-06
2	1	0	1	0	1	949.324	0.533247	0.53279	0.00247811	8	0.0174381	11	0	16.6354	1.32031e-06
2	1	0	1	0	1	952.021	0.546731	0.546267	0.00334669	8	0.0174464	11	0	19.3322	1.82818e-06
2	1	0	1	0	1	954.717	0.560215	0.559757	0.00316913	8	0.0174553	11	0	22.029	1.77394e-06
2	1	0	1	0	1	957.414	0.573699	0.573266	0.00342947	8	0.0174653	11	0	24.7258	1.966e-06
2	1	0	1	0	1	960.111	0.587183	0.586711	0.00472837	8	0.0174769	11	0	27.4226	2.77418e-06
2	1	0	1	0	1	962.808	0.600667	0.600239	0.00636847	8	0.0174916	11	0	30.1194	3.82261e-06
2	1	0	1	0	1	965.505	0.614151	0.613754	0.00851107	8	0.0175116	11	0	32.8162	5.22371e-06
2	1	0	1	0	1	968.201	0.627635	0.627178	0.0135524	8	0.0175414	11	0	35.513	8.49974e-06
2	1	0	1	0	1	970.898	0.641119	0.640678	0.0227835	8	0.0175893	11	0	38.2098	1.45969e-05
2	1	0	1	0	1	973.595	0.654603	0.654222	0.0380946	8	0.0176699	11	0	40.9066	2.49223e-05
2	1	0	1	0	1	976.292	0.668087	0.667641	0.0657361	8	0.0178077	11	0	43.6034	4.38881e-05
2	1	0	1	0	1	978.989	0.681571	0.681137	0.110058	8	0.0180405	11	0	46.3002	7.49647e-05
2	1	0	1	0	1	981.685	0.695055	0.694635	0.177511	8	0.018423	11	0	48.997	0.000123306
2	1	0	0	0	1	984.123	0.692758	0.692304	0.161321	8	0.0188804	11	0	51.4344	0.000111683
2	1	0	0	0	1	986.82	0.679274	0.678864	0.0985459	8	0.0192244	11	0	54.1312	6.68992e-05
2	1	0	1	0	1	989.516	0.665789	0.665351	0.0582962	8	0.0194317	11	0	56.8281	3.87874e-05
2	1	0	1	0	1	992.213	0.652305	0.651883	0.0331264	8	0.0195523	11	0	59.5249	2.15946e-05
2	1	0	1	0	1	994.91	0.638821	0.638407	0.0187462	8	0.0196197	11	0	62.2217	1.19677e-05
2	1	0	1	0	1	997.607	0.625337	0.624906	0.0102161	8	0.0196564	11	0	64.9185	6.38413e-06
2	1	0	1	0	1	1000.3	0.611853	0.6114	0.00530311	8	0.0196764	11	0	67.6153	3.24232e-06
2	1	0	1	0	1	1003	0.598369	0.597942	0.00318884	8	0.0196876	11	0	70.3121	1.90674e-06
2	1	0	1	0	1	1005.7	0.584885	0.584419	0.00232614	8	0.0196941	11	0	73.0089	1.35944e-06
2	1	0	1	0	1	1008.39	0.571401	0.570976	0.00125432	8	0.0196981	11	0	75.7057	7.16189e-07
2	0	0	1	0	1	1011.09	0.557917	0.557454	0.000471705	8	0.0197005	11	0	78.4025	2.62954e-07
2	1	0	1	0	1	1013.79	0.544433	0.543989	0.000778272	8	0.019702	11	0	81.0993	4.23371e-07
2	1	0	1	0	1	1016.48	0.530949	0.530515	0.000561264	8	0.0197029	11	0	0.4994	2.97759e-07
2	0	0	1	0	1	1019.18	0.517465	0.516989	-0.000149859	8	0.0197033	11	0	0.000000000000000E+000	-7.74756e-08
2	1	0	1	0	1	1021.88	0.503981	0.503529	0.000572568	8	0.0197035	11	0	0.000000000000000E+000	2.88305e-07
2	1	0	1	0	1	1024.57	0.490497	0.490076	4.69736e-05	8	0.0197034	11	0	0.000000000000000E+000	2.30206e-08
2	0	0	1	0	1	1027.27	0.477013	0.476583	-0.000370271	8	0.0197031	11	0	0.000000000000000E+000	-1.76465e-07
2	1	0	1	0	1	1029.97	0.463529	0.463075	0.000374135	8	0.0197025	11	0	0.000000000000000E+000	1.73253e-07
2	0	0	1	0	1	1032.64	0.45017	0.449706	-0.00163451	8	0.0197017	11	0	0.1749	-7.35048e-07
2	0	0	1	0	0	1035.13	0.462331	0.461876	0.00217789	9	0.0197084	11	0	2.4522	1.00591e-06
2	1	0	1	0	0	1037.83	0.475815	0.475345	0.0029216	9	0.019716	11	0	5.149	1.38877e-06
2	1	0	1	0	0	1040.53	0.489299	0.488846	0.00261468	9	0.0197237	11	0	7.8458	1.27818e-06
2	1	0	1	0	0	1043.22	0.502783	0.502287	0.00260622	9	0.0197312	11	0	10.5426	1.30907e-06
2	1	0	1	0	0	1045.92	0.516267	0.515802	0.00311196	9	0.0197389	11	0	13.2394	1.60515e-06
2	1	0	1	0	0	1048.62	0.529751	0.529293	0.00270784	9	0.0197468	11	0	15.9362	1.43324e-06
2	1	0	1	0	0	1051.31	0.543235	0.542801	0.00283683	9	0.0197547	11	0	18.633	1.53983e-06
2	1	0	1	0	0	1054.01	0.556719	0.556257	0.00342189	9	0.0197632	11	0	21.3298	1.90345e-06
2	1	0	1	0	0	1056.71	0.570203	0.569744	0.00325096	9	0.0197724	11	0	24.0266	1.85221e-06
2	1	0	1	0	0	1059.4	0.583687	0.583263	0.00413337	9	0.0197833	11	0	26.7234	2.41084e-06
2	1	0	1	0	0	1062.1	0.597171	0.596672	0.0053887	9	0.0197966	11	0	29.4202	3.21529e-06
2	1	0	1	0	0	1064.8	0.610655	0.610198	0.00809282	9	0.0198146	11	0	32.117	4.93822e-06
2	1	0	1	0	0	1067.49	0.624139	0.62374	0.011481	9	0.0198408	11	0	34.8138	7.16119e-06
2	1	0	1	0	0	1070.19	0.637623	0.637186	0.019865	9	0.0198826	11	0	37.5106	1.26577e-05
2	1	0	1	0	0	1072.89	0.651107	0.650631	0.0336629	9	0.0199532	11	0	40.2074	2.19021e-05
2	1	0	1	0	0	1075.58	0.664591	0.664107	0.0586946	9	0.0200756	11	0	42.9042	3.89795e-05
2	1	0	1	0	0	1078.28	0.678075	0.677633	0.0999949	9	0.0202857	11	0	45.601	6.77599e-05
2	1	0	1	0	0	1080.98	0.691559	0.691134	0.162637	9	0.0206349	11	0	48.2978	0.000112404
2	1	0	1	0	0	1083.41	0.696253	0.695821	0.189807	9	0.0211061	11	0	50.7353	0.000132072
2	1	0	1	0	0	1086.11	0.682769	0.682289	0.117354	9	0.0215124	11	0	53.4321	8.00696e-05
2	1	0	1	0	0	1088.81	0.669285	0.668834	0.0700671	9	0.0217601	11	0	56.1289	4.68633e-05
2	1	0	1	0	0	1091.51	0.655801	0.65538	0.03987	9	0.021905	11	0	58.8257	2.613e-05
2	1	0	1	0	0	1094.2	0.642317	0.64187	0.0221414	9	0.021986	11	0	61.5225	1.42119e-05
2	1	0	1	0	0	1096.9	0.628833	0.628342	0.0117982	9	0.0220296	11	0	64.2193	7.41333e-06
2	1	0	1	0	0	1099.6	0.615349	0.614922	0.0067011	9	0.022053	11	0	66.9161	4.12065e-06
2	1	0	1	0	0	1102.29	0.601865	0.601418	0.00339843	9	0.0220659	11	0	69.6129	2.04388e-06
2	1	0	1	0	0	1104.99	0.588381	0.58791	0.0026046	9	0.0220734	11	0	72.3097	1.53127e-06
2	1	0	1	0	0	1107.69	0.574897	0.574446	0.0014116	9	0.0220778	11	0	75.0065	8.10889e-07
2	0	0	1	0	0	1110.38	0.561413	0.560956	0.000656207	9	0.0220806	11	0	77.7033	3.68103e-07
2	1	0	1	0	0	1113.08	0.547929	0.547458	0.00105453	9	0.0220824	11	0	80.4001	5.77309e-07
2	0	0	1	0	0	1115.78	0.534445	0.534009	0.000676096	9	0.0220836	11	0	83.0969	3.61041e-07
2	0	0	1	0	0	1118.47	0.520961	0.520524	-1.28669e-05	9	0.0220843	11	0	0.0999	-6.69754e-09
2	1	0	1	0	0	1121.17	0.507478	0.507036	0.000755876	9	0.0220848	11	0	0.000000000000000E+000	3.83256e-07
2	0	0	1	0	0	1123.87	0.493994	0.49353	8.76512e-05	9	0.0220851	11	0	0.000000000000000E+000	4.32585e-08
2	0	0	1	0	0	1126.56	0.48051	0.480075	-6.47742e-05	9	0.0220852	11	0	0.0999	-3.10965e-08
2	1	0	1	0	0	1129.26	0.467025	0.46656	0.000581529	9	0.022085	11	0	0.000000000000000E+000	2.71318e-07
2	1	0	1	0	0	1131.96	0.453542	0.453084	9.00315e-05	9	0.0220845	11	0	0.2996	4.07918e-08
2	1	0	1	0	1	1134.42	0.458835	0.458415	0.00269812	10	0.0220892	11	0	1.698	1.23686e-06
2	1	0	1	0	1	1137.12	0.472319	0.471873	0.00317384	10	0.0220969	11	0	4.3948	1.49765e-06
2	0	0	1	0	1	1139.82	0.485803	0.485376	0.00230386	10	0.0221047	11	0	7.0916	1.11824e-06
2	1	0	1	0	1	1142.51	0.499287	0.49883	0.00316045	10	0.0221125	11	0	9.7884	1.57653e-06
2	1	0	1	0	1	1145.21	0.512771	0.51229	0.00237759	10	0.0221203	11	0	12.4852	1.21802e-06
2	1	0	1	0	1	1147.91	0.526255	0.525752	0.00319459	10	0.0221283	11	0	15.182	1.67956e-06
2	0	0	1	0	1	1150.6	0.539739	0.539306	0.00249474	10	0.0221364	11	0	17.8788	1.34543e-06
2	1	0	1	0	1	1153.3	0.553223	0.552811	0.00347575	10	0.0221449	11	0	20.5756	1.92144e-06
2	1	0	1	0	1	1156	0.566707	0.566204	0.00320585	10	0.0221541	11	0	23.2724	1.81517e-06
2	1	0	1	0	1	1158.69	0.580191	0.579754	0.00435464	10	0.0221645	11	0	25.9692	2.52462e-06
2	1	0	1	0	1	1161.39	0.593675	0.5932	0.0047149	10	0.0221771	11	0	28.666	2.79688e-06
2	1	0	1	0	1	1164.09	0.607159	0.60671	0.00662758	10	0.0221934	11	0	31.3628	4.02102e-06
2	1	0	1	0	1	1166.78	0.620643	0.620213	0.0105245	10	0.0222166	11	0	34.0596	6.5274e-06
2	1	0	1	0	1	1169.48	0.634127	0.633696	0.0174606	10	0.0222532	11	0	36.7564	1.10647e-05
2	1	0	1	0	1	1172.18	0.647611	0.647181	0.0295064	10	0.0223154	11	0	39.4532	1.9096e-05
2	1	0	1	0	1	1174.88	0.661096	0.660655	0.0530754	10	0.0224248	11	0	42.1501	3.50645e-05
2	1	0	1	0	1	1177.57	0.67458	0.674128	0.0904212	10	0.0226148	11	0	44.8469	6.09554e-05
2	1	0	1	0	1	1180.27	0.688064	0.687575	0.151066	10	0.0229354	11	0	47.5437	0.000103869
2	1	0	1	0	1	1182.71	0.699749	0.69931	0.224239	10	0.0233934	11	0	49.9811	0.000156812
2	1	0	1	0	1	1185.4	0.686265	0.685789	0.140114	10	0.0238756	11	0	52.6779	9.60886e-05
2	1	0	1	0	1	1188.1	0.672781	0.672361	0.0851515	10	0.0241737	11	0	55.3747	5.72525e-05
2	1	0	1	0	1	1190.8	0.659297	0.658882	0.0491882	10	0.0243501	11	0	58.0715	3.24092e-05
2	1	0	1	0	1	1193.49	0.645813	0.645388	0.0263807	10	0.0244491	11	0	60.7683	1.70258e-05
2	1	0	1	0	1	1196.19	0.632329	0.631902	0.0139346	10	0.024502	11	0	63.4651	8.80533e-06
2	1	0	1	0	1	1198.89	0.618846	0.618451	0.00784505	10	0.0245298	11	0	66.1619	4.85177e-06
2	1	0	1	0	1	1201.58	0.605361	0.604903	0.00400272	10	0.0245448	11	0	68.8587	2.42125e-06
2	1	0	1	0	1	1204.28	0.591877	0.591431	0.00230146	10	0.0245533	11	0	71.5555	1.36116e-06
2	1	0	1	0	1	1206.98	0.578393	0.577885	0.00196985	10	0.0245584	11	0	74.2523	1.13835e-06
2	1	0	1	0	1	1209.67	0.56491	0.564469	0.00124153	10	0.0245615	11	0	76.9491	7.00807e-07
2	1	0	1	0	1	1212.37	0.551426	0.550973	0.000474827	10	0.0245636	11	0	79.6459	2.61617e-07
2	1	0	1	0	1	1215.07	0.537942	0.537545	0.000529037	10	0.024565	11	0	82.3427	2.84381e-07
2	1	0	1	0	1	1217.76	0.524458	0.523982	0.000573282	10	0.024566	11	0	0.2996	3.0039e-07
2	0	0	1	0	1	1220.46	0.510974	0.510496	-1.21461e-05	10	0.0245665	11	0	0.000000000000000E+000	-6.20055e-09
2	0	0	1	0	1	1223.16	0.49749	0.497059	2.13663e-05	10	0.0245668	11	0	0.000000000000000E+000	1.06203e-08
2	1	0	1	0	1	1225.86	0.484005	0.483546	0.000125424	10	0.0245669	11	0	0.000000000000000E+000	6.06485e-08
2	1	0	1	0	1	1228.55	0.470521	0.470027	0.000219611	10	0.0245668	11	0	0.000000000000000E+000	1.03223e-07
2	1	0	1	0	1	1231.25	0.457037	0.456563	-0.000295988	10	0.0245665	11	0	0.1998	-1.35137e-07
2	1	0	1	0	0	1233.72	0.455339	0.454889	0.00269937	11	0.024569	11	0	1.0538	1.22791e-06
2	1	0	1	0	0	1236.41	0.468823	0.468356	0.00230931	11	0.0245767	11	0	3.7506	1.08158e-06
2	1	0	1	0	0	1239.11	0.482307	0.481846	0.00318584	11	0.0245845	11	0	6.4474	1.53508e-06
2	1	0	1	0	0	1241.81	0.495791	0.495349	0.00290159	11	0.0245922	11	0	9.1442	1.4373e-06
2	1	0	1	0	0	1244.5	0.509275	0.508831	0.00238385	11	0.0245998	11	0	11.841	1.21298e-06
2	1	0	1	0	0	1247.2	0.522759	0.522264	0.00246686	11	0.0246076	11	0	14.5378	1.28835e-06
2	1	0	1	0	0	1249.9	0.536243	0.535774	0.00245523	11	0.0246156	11	0	17.2346	1.31545e-06
2	1	0	1	0	0	1252.59	0.549728	0.549287	0.00276037	11	0.0246239	11	0	19.9315	1.51623e-06
2	1	0	1	0	0	1255.29	0.563212	0.562741	0.00320028	11	0.0246327	11	0	22.6283	1.80093e-06
2	1	0	1	0	0	1257.99	0.576696	0.576272	0.00376743	11	0.0246425	11	0	25.3251	2.17107e-06
2	1	0	1	0	0	1260.68	0.59018	0.589716	0.00473564	11	0.0246541	11	0	28.0219	2.79268e-06
2	1	0	1	0	0	1263.38	0.603664	0.603238	0.00654318	11	0.0246689	11	0	30.7187	3.94709e-06
2	1	0	1	0	0	1266.08	0.617148	0.61668	0.0089804	11	0.0246897	11	0	33.4155	5.53803e-06
2	1	0	1	0	0	1268.77	0.630632	0.630179	0.0152423	11	0.0247218	11	0	36.1123	9.60536e-06
2	1	0	1	0	0	1271.47	0.644116	0.643684	0.0261585	11	0.0247763	11	0	38.8091	1.68378e-05
2	1	0	1	0	0	1274.17	0.657599	0.657182	0.0468492	11	0.0248731	11	0	41.5059	3.07884e-05
2	1	0	1	0	0	1276.86	0.671084	0.67066	0.0831241	11	0.0250448	11	0	44.2027	5.5748e-05
2	1	0	1	0	0	1279.56	0.684568	0.68416	0.139456	11	0.0253394	11	0	46.8995	9.54099e-05
2	1	0	1	0	0	1282.26	0.698051	0.697621	0.223123	11	0.0258212	11	0	49.5963	0.000155655
2	1	0	1	0	0	1284.7	0.689761	0.689335	0.16647	11	0.0263192	11	0	52.0337	0.000114754
2	1	0	1	0	0	1287.39	0.676278	0.675845	0.102455	11	0.0266759	11	0	54.7305	6.92439e-05
2	1	0	1	0	0	1290.09	0.662794	0.662344	0.0601463	11	0.0268901	11	0	57.4273	3.98376e-05
2	1	0	1	0	0	1292.79	0.64931	0.648867	0.0326741	11	0.0270112	11	0	60.1241	2.12011e-05
2	1	0	1	0	0	1295.48	0.635826	0.635376	0.0167706	11	0.0270759	11	0	62.8209	1.06556e-05
2	1	0	1	0	0	1298.18	0.622342	0.62189	0.00915931	11	0.0271093	11	0	65.5177	5.69609e-06
2	1	0	1	0	0	1300.88	0.608857	0.608391	0.0048436	11	0.0271266	11	0	68.2146	2.9468e-06
2	1	0	1	0	0	1303.57	0.595373	0.594871	0.002489	11	0.0271363	11	0	70.9114	1.48063e-06
2	1	0	1	0	0	1306.27	0.581889	0.58143	0.00196604	11	0.0271421	11	0	73.6082	1.14311e-06
2	1	0	1	0	0	1308.97	0.568405	0.567966	0.00145589	11	0.0271456	11	0	76.305	8.26894e-07
2	0	0	1	0	0	1311.66	0.554921	0.554459	0.000598419	11	0.0271478	11	0	79.0018	3.31799e-07
2	1	0	1	0	0	1314.36	0.541437	0.541027	0.000311517	11	0.0271493	11	0	81.6986	1.68539e-07
2	1	0	1	0	0	1317.06	0.527953	0.527457	0.000843526	11	0.0271503	11	0	0.000000000000000E+000	4.44924e-07
2	1	0	1	0	0	1319.75	0.514469	0.51401	0.000342349	11	0.0271509	11	0	0.000000000000000E+000	1.75971e-07
2	1	0	1	0	0	1322.45	0.500985	0.500544	-0.000193854	11	0.0271514	11	0	0.000000000000000E+000	-9.70326e-08
2	1	0	1	0	0	1325.15	0.487501	0.487049	0.000100627	11	0.0271516	11	0	0.000000000000000E+000	4.90102e-08
2	1	0	1	0	0	1327.84	0.474017	0.473533	0.000601068	11	0.0271515	11	0	0.000000000000000E+000	2.84626e-07
2	0	0	1	0	0	1330.54	0.460533	0.460051	-0.000191205	11	0.0271513	11	0	0.000000000000000E+000	-8.79642e-08
2	1	0	1	0	1	1333.01	0.451844	0.451389	0.00307751	12	0.027152	11	0	0.2997	1.38916e-06
2	1	0	1	0	1	1335.7	0.465328	0.464844	0.00252156	12	0.0271596	11	0	2.9965	1.17213e-06
2	1	0	1	0	1	1338.4	0.478812	0.478352	0.00259432	12	0.0271675	11	0	5.6933	1.241e-06
2	1	0	1	0	1	1341.1	0.492296	0.491823	0.00322887	12	0.0271753	11	0	8.3901	1.58803e-06
2	0	0	1	0	1	1343.79	0.50578	0.505313	0.00248101	12	0.0271831	11	0	11.0869	1.25369e-06
2	1	0	1	0	1	1346.49	0.519264	0.518835	0.00265955	12	0.027191	11	0	13.7837	1.37987e-06
2	1	0	1	0	1	1349.19	0.532748	0.532294	0.00292044	12	0.027199	11	0	16.4805	1.55453e-06
2	1	0	1	0	1	1351.88	0.546232	0.545724	0.00315168	12	0.0272073	11	0	19.1773	1.71995e-06
2	1	0	1	0	1	1354.58	0.559716	0.559245	0.00346813	12	0.0272161	11	0	21.8741	1.93954e-06
2	0	0	1	0	1	1357.28	0.5732	0.572764	0.00345994	12	0.0272256	11	0	24.5709	1.98173e-06
2	1	0	1	0	1	1359.98	0.586684	0.58626	0.00396854	12	0.0272367	11	0	27.2677	2.3266e-06
2	1	0	1	0	1	1362.67	0.600167	0.599765	0.005687	12	0.0272504	11	0	29.9645	3.41086e-06
2	1	0	1	0	1	1365.37	0.613651	0.613216	0.00852203	12	0.027269	11	0	32.6613	5.22584e-06
2	1	0	1	0	1	1368.07	0.627135	0.626702	0.0131328	12	0.0272972	11	0	35.3581	8.23033e-06
2	1	0	1	0	1	1370.76	0.640619	0.640221	0.022654	12	0.0273448	11	0	38.0549	1.45036e-05
2	1	0	1	0	1	1373.46	0.654103	0.653632	0.0417884	12	0.0274306	11	0	40.7517	2.73143e-05
2	1	0	1	0	1	1376.16	0.667587	0.66714	0.0755533	12	0.0275852	11	0	43.4485	5.04046e-05
2	1	0	1	0	1	1378.85	0.681071	0.68064	0.12811	12	0.0278547	11	0	46.1453	8.71969e-05
2	1	0	1	0	1	1381.55	0.694555	0.694142	0.208191	12	0.028302	11	0	48.8421	0.000144514
2	1	0	1	0	1	1383.99	0.693257	0.692845	0.198167	12	0.0288518	11	0	51.2796	0.000137299
2	1	0	1	0	1	1386.68	0.679773	0.679334	0.123471	12	0.029279	11	0	53.9764	8.38781e-05
2	1	0	1	0	1	1389.38	0.666289	0.665903	0.0735056	12	0.0295389	11	0	56.6732	4.89476e-05
2	1	0	1	0	1	1392.08	0.652805	0.65238	0.0405367	12	0.0296881	11	0	59.37	2.64453e-05
2	1	0	1	0	1	1394.77	0.639321	0.63891	0.020709	12	0.0297681	11	0	62.0668	1.32312e-05
2	1	0	1	0	1	1397.47	0.625837	0.625398	0.0109536	12	0.0298089	11	0	64.7636	6.85036e-06
2	1	0	1	0	1	1400.17	0.612353	0.611938	0.00577848	12	0.0298295	11	0	67.4604	3.53607e-06
2	0	0	1	0	1	1402.86	0.598869	0.598361	0.00280585	12	0.0298404	11	0	70.1572	1.67891e-06
2	1	0	1	0	1	1405.56	0.585385	0.584951	0.00217046	12	0.0298467	11	0	72.854	1.26961e-06
2	1	0	1	0	1	1408.26	0.571901	0.571432	0.00118002	12	0.0298504	11	0	75.5508	6.74303e-07
2	1	0	1	0	1	1410.95	0.558417	0.557993	0.000605925	12	0.0298528	11	0	78.2476	3.38102e-07
2	1	0	1	0	1	1413.65	0.544933	0.544539	0.000961407	12	0.0298543	11	0	80.9444	5.23524e-07
2	0	0	1	0	1	1416.35	0.531449	0.531026	0.000219096	12	0.0298554	11	0	83.6412	1.16346e-07
2	1	0	1	0	1	1419.05	0.517965	0.51752	0.000285248	12	0.0298561	11	0	0.2996	1.47621e-07
2	1	0	1	0	1	1421.74	0.504481	0.504031	0.000732341	12	0.0298565	11	0	0.000000000000000E+000	3.69122e-07
2	1	0	1	0	1	1424.44	0.490997	0.490554	0.000127779	12	0.0298566	11	0	0.000000000000000E+000	6.26826e-08
2	0	0	1	0	1	1427.14	0.477513	0.477056	-0.000232854	12	0.0298566	11	0	0.1997	-1.11084e-07
2	1	0	1	0	1	1429.83	0.464029	0.463606	0.000435873	12	0.0298563	11	0	0.000000000000000E+000	2.02073e-07
2	1	0	1	0	1	1432.53	0.450545	0.450066	0.000253239	12	0.0298558	11	0	0.2996	1.13974e-07
2	1	0	1	0	0	1435	0.461832	0.461365	0.00252304	13	0.0298622	11	0	2.3523	1.16404e-06
2	1	0	1	0	0	1437.69	0.475316	0.474877	0.00313259	13	0.0298699	11	0	5.0491	1.4876e-06
2	1	0	1	0	0	1440.39	0.488799	0.488331	0.00301586	13	0.0298774	11	0	7.7459	1.47274e-06
2	0	0	1	0	0	1443.09	0.502283	0.501842	0.00241138	13	0.029885	11	0	10.4427	1.21013e-06
2	0	0	1	0	0	1445.78	0.515768	0.515308	0.00228113	13	0.0298926	11	0	13.1395	1.17548e-06
2	1	0	1	0	0	1448.48	0.529252	0.528824	0.00283478	13	0.0299004	11	0	15.8363	1.4991e-06
2	1	0	1	0	0	1451.18	0.542735	0.542252	0.0032406	13	0.0299083	11	0	18.5331	1.75722e-06
2	1	0	1	0	0	1453.87	0.556219	0.555773	0.00298073	13	0.0299167	11	0	21.2299	1.65661e-06
2	0	0	1	0	0	1456.57	0.569703	0.569262	0.00306091	13	0.0299258	11	0	23.9267	1.74246e-06
2	1	0	1	0	0	1459.27	0.583187	0.582757	0.00399353	13	0.0299361	11	0	26.6235	2.32726e-06
2	1	0	1	0	0	1461.96	0.596671	0.596224	0.0054133	13	0.0299485	11	0	29.3203	3.22754e-06
2	1	0	1	0	0	1464.66	0.610155	0.609683	0.0071433	13	0.029965	11	0	32.0171	4.35515e-06
2	1	0	1	0	0	1467.36	0.623639	0.623231	0.0111418	13	0.0299899	11	0	34.7139	6.94389e-06
2	1	0	1	0	0	1470.05	0.637123	0.636716	0.0203793	13	0.0300315	11	0	37.4107	1.29758e-05
2	1	0	1	0	0	1472.75	0.650607	0.650165	0.0375546	13	0.0301068	11	0	40.1075	2.44167e-05
2	1	0	1	0	0	1475.45	0.664091	0.663635	0.0675044	13	0.0302453	11	0	42.8043	4.47983e-05
2	1	0	1	0	0	1478.14	0.677575	0.677134	0.118677	13	0.0304917	11	0	45.5011	8.03605e-05
2	1	0	1	0	0	1480.84	0.691059	0.690622	0.194187	13	0.0309079	11	0	48.1979	0.00013411
2	1	0	1	0	0	1483.28	0.696753	0.696262	0.233845	13	0.0314738	11	0	50.6354	0.000162818
2	1	0	1	0	0	1485.98	0.683269	0.682831	0.148428	13	0.0319821	11	0	53.3322	0.000101351
2	1	0	1	0	0	1488.67	0.669785	0.66934	0.0897474	13	0.0322967	11	0	56.029	6.00715e-05
2	1	0	1	0	0	1491.37	0.656301	0.655874	0.0504136	13	0.0324803	11	0	58.7258	3.30649e-05
2	1	0	1	0	0	1494.07	0.642817	0.642405	0.025902	13	0.0325795	11	0	61.4226	1.66396e-05
2	1	0	1	0	0	1496.76	0.629333	0.628928	0.012667	13	0.0326297	11	0	64.1194	7.96663e-06
2	1	0	1	0	0	1499.46	0.615849	0.615416	0.00691505	13	0.0326546	11	0	66.8162	4.25563e-06
2	1	0	1	0	0	1502.16	0.602365	0.601862	0.00359547	13	0.0326672	11	0	69.513	2.16398e-06
2	1	0	1	0	0	1504.85	0.588881	0.588435	0.00183543	13	0.0326743	11	0	72.2098	1.08003e-06
2	1	0	1	0	0	1507.55	0.575397	0.574913	0.00162564	13	0.0326784	11	0	74.9066	9.34604e-07
2	0	0	1	0	0	1510.25	0.561913	0.561451	0.000703349	13	0.0326809	11	0	77.6034	3.94896e-07
2	1	0	1	0	0	1512.94	0.548429	0.547966	0.00076045	13	0.0326825	11	0	80.3002	4.16701e-07
2	0	0	1	0	0	1515.64	0.534945	0.534475	0.000429545	13	0.0326835	11	0	82.997	2.29581e-07
2	0	0	1	0	0	1518.34	0.521461	0.521039	0.000219229	13	0.0326842	11	0	0.2996	1.14227e-07
2	1	0	1	0	0	1521.03	0.507977	0.507542	0.00043575	13	0.0326846	11	0	0.000000000000000E+000	2.21161e-07
2	1	0	1	0	0	1523.73	0.494493	0.494019	1.1608e-05	13	0.0326848	11	0	0.000000000000000E+000	5.73458e-09
2	1	0	1	0	0	1526.43	0.481009	0.480557	0.000562614	13	0.0326847	11	0	0.000000000000000E+000	2.70368e-07
2	0	0	1	0	0	1529.12	0.467524	0.467063	-0.000246754	13	0.0326843	11	0	0.000000000000000E+000	-1.1525e-07
2	0	0	1	0	0	1531.82	0.45404	0.453579	-0.000470629	13	0.0326838	11	0	0.1998	-2.13467e-07
2	0	0	1	0	1	1534.29	0.458335	0.457848	0.0025876	14	0.032688	11	0	1.6531	1.18473e-06
2	0	0	1	0	1	1536.98	0.471819	0.471406	0.00226129	14	0.0326955	11	0	4.3499	1.06599e-06
2	1	0	1	0	1	1539.68	0.485303	0.484804	0.00277617	14	0.0327031	11	0	7.0467	1.3459e-06
2	1	0	1	0	1	1542.38	0.498787	0.498366	0.00318285	14	0.0327108	11	0	9.7435	1.58622e-06
2	1	0	1	0	1	1545.07	0.512271	0.511834	0.00250491	14	0.0327184	11	0	12.4403	1.2821e-06
2	1	0	1	0	1	1547.77	0.525755	0.525323	0.00250317	14	0.0327262	11	0	15.1371	1.31497e-06
2	1	0	1	0	1	1550.47	0.539239	0.538805	0.00325076	14	0.0327341	11	0	17.8339	1.75153e-06
2	0	0	1	0	1	1553.17	0.552723	0.552284	0.00284171	14	0.0327423	11	0	20.5307	1.56943e-06
2	0	0	1	0	1	1555.86	0.566207	0.565774	0.00290446	14	0.032751	11	0	23.2275	1.64327e-06
2	1	0	1	0	1	1558.56	0.579691	0.579268	0.00414781	14	0.0327609	11	0	25.9243	2.40269e-06
2	1	0	1	0	1	1561.26	0.593175	0.592746	0.00439635	14	0.0327727	11	0	28.6211	2.60592e-06
2	1	0	0	0	1	1563.95	0.60666	0.606247	0.00648105	14	0.032788	11	0	31.318	3.92911e-06
2	1	0	0	0	1	1566.65	0.620144	0.619688	0.0103706	14	0.0328101	11	0	34.0148	6.42654e-06
2	1	0	0	0	1	1569.35	0.633628	0.633206	0.0171849	14	0.0328465	11	0	36.7116	1.08816e-05
2	1	0	0	0	1	1572.04	0.647112	0.646686	0.0325376	14	0.0329126	11	0	39.4084	2.10416e-05
2	1	0	0	0	1	1574.74	0.660596	0.6602	0.0612916	14	0.0330361	11	0	42.1052	4.04647e-05
2	1	0	0	0	1	1577.44	0.67408	0.673637	0.108767	14	0.0332606	11	0	44.802	7.32696e-05
2	1	0	0	0	1	1580.13	0.687564	0.687111	0.181174	14	0.0336463	11	0	47.4988	0.000124487
2	1	0	0	0	1	1582.62	0.700024	0.699575	0.277101	14	0.0342086	11	0	49.9814	0.000193853
2	1	0	1	0	1	1585.27	0.686765	0.686379	0.177441	14	0.0347982	11	0	52.633	0.000121792
2	1	0	1	0	1	1587.96	0.673281	0.67284	0.108825	14	0.0351791	11	0	55.3298	7.32215e-05
2	1	0	1	0	1	1590.66	0.659797	0.659397	0.0626388	14	0.0354055	11	0	58.0266	4.13038e-05
2	1	0	1	0	1	1593.36	0.646313	0.645883	0.0326723	14	0.0355296	11	0	60.7234	2.11025e-05
2	1	0	1	0	1	1596.05	0.632829	0.632411	0.0157821	14	0.0355925	11	0	63.4202	9.9808e-06
2	1	0	1	0	1	1598.75	0.619345	0.618906	0.00826587	14	0.0356231	11	0	66.117	5.1158e-06
2	1	0	1	0	1	1601.45	0.605861	0.605476	0.00394885	14	0.0356382	11	0	68.8138	2.39094e-06
2	1	0	1	0	1	1604.14	0.592377	0.59193	0.00268405	14	0.0356463	11	0	71.5106	1.58877e-06
2	1	0	1	0	1	1606.84	0.578892	0.578425	0.0012792	14	0.0356509	11	0	74.2075	7.39922e-07
2	1	0	1	0	1	1609.54	0.565408	0.564956	0.000856534	14	0.0356538	11	0	76.9043	4.83904e-07
2	0	0	1	0	1	1612.24	0.551924	0.551471	0.000429616	14	0.0356556	11	0	79.6011	2.36921e-07
2	0	0	1	0	1	1614.93	0.53844	0.537975	0.000563762	14	0.0356568	11	0	82.2979	3.0329e-07
2	1	0	1	0	1	1617.63	0.524956	0.524531	0.000432099	14	0.0356578	11	0	84.9947	2.26649e-07
2	1	0	1	0	1	1620.33	0.511472	0.511061	0.000133962	14	0.0356584	11	0	0.000000000000000E+000	6.84629e-08
2	1	0	1	0	1	1623.02	0.497988	0.497542	0.000218499	14	0.0356588	11	0	0.2997	1.08712e-07
2	0	0	1	0	1	1625.72	0.484504	0.48402	0.000169184	14	0.0356589	11	0	0.000000000000000E+000	8.18885e-08
2	1	0	1	0	1	1628.42	0.47102	0.470563	0.000159569	14	0.0356588	11	0	0.000000000000000E+000	7.50871e-08
2	0	0	1	0	1	1631.11	0.457536	0.457101	-0.0002736	14	0.0356586	11	0	0.000000000000000E+000	-1.25063e-07
2	1	0	1	0	0	1633.58	0.454839	0.45436	0.00269074	15	0.0356609	11	0	0.9539	1.22257e-06
2	1	0	1	0	0	1636.28	0.468323	0.467891	0.00283512	15	0.0356686	11	0	3.6507	1.32653e-06
2	1	0	1	0	0	1638.97	0.481807	0.481361	0.00228242	15	0.0356762	11	0	6.3475	1.09867e-06
2	1	0	0	0	0	1641.67	0.495292	0.494798	0.0030199	15	0.0356839	11	0	9.0444	1.49424e-06
2	1	0	0	0	0	1644.37	0.508776	0.508348	0.00311895	15	0.0356916	11	0	11.7412	1.58551e-06
2	1	0	0	0	0	1647.06	0.52226	0.521841	0.00313904	15	0.0356992	11	0	14.438	1.63808e-06
2	1	0	0	0	0	1649.76	0.535744	0.535309	0.00303057	15	0.035707	11	0	17.1348	1.62229e-06
2	1	0	0	0	0	1652.46	0.549228	0.548775	0.00297745	15	0.0357152	11	0	19.8316	1.63395e-06
2	1	0	0	0	0	1655.15	0.562712	0.562286	0.00353882	15	0.0357239	11	0	22.5284	1.98983e-06
2	1	0	0	0	0	1657.85	0.576196	0.575757	0.0038773	15	0.0357333	11	0	25.2252	2.23238e-06
2	1	0	0	0	0	1660.55	0.58968	0.589219	0.0045848	15	0.0357444	11	0	27.922	2.70146e-06
2	1	0	0	0	0	1663.24	0.603164	0.602712	0.00547207	15	0.0357584	11	0	30.6188	3.29808e-06
2	1	0	0	0	0	1665.94	0.616648	0.616208	0.00870541	15	0.035778	11	0	33.3156	5.36434e-06
2	1	0	0	0	0	1668.64	0.630132	0.629657	0.0153663	15	0.0358099	11	0	36.0124	9.67552e-06
2	1	0	0	0	0	1671.33	0.643616	0.643177	0.0289479	15	0.0358674	11	0	38.7092	1.86186e-05
2	1	0	0	0	0	1674.03	0.6571	0.656674	0.0541359	15	0.0359766	11	0	41.406	3.55496e-05
2	1	0	0	0	0	1676.73	0.670584	0.670162	0.0987636	15	0.0361789	11	0	44.1028	6.61876e-05
2	1	0	0	0	0	1679.42	0.684068	0.683602	0.168849	15	0.036534	11	0	46.7996	0.000115426
2	1	0	0	0	0	1682.12	0.697552	0.697091	0.268411	15	0.0371158	11	0	49.4964	0.000187107
2	1	0	1	0	0	1684.56	0.69026	0.689793	0.211252	15	0.0377354	11	0	51.9339	0.00014572
2	1	0	1	0	0	1687.26	0.676776	0.676347	0.13172	15	0.0381895	11	0	54.6307	8.90887e-05
2	1	0	1	0	0	1689.95	0.663292	0.662849	0.0765001	15	0.0384647	11	0	57.3275	5.0708e-05
2	1	0	1	0	0	1692.65	0.649808	0.649336	0.0407947	15	0.0386186	11	0	60.0243	2.64895e-05
2	1	0	1	0	0	1695.35	0.636324	0.635887	0.0203953	15	0.0386974	11	0	62.7211	1.29691e-05
2	1	0	1	0	0	1698.04	0.62284	0.622385	0.00945467	15	0.0387354	11	0	65.4179	5.88445e-06
2	1	0	1	0	0	1700.74	0.609356	0.608888	0.00489655	15	0.0387537	11	0	68.1147	2.98145e-06
2	1	0	1	0	0	1703.44	0.595872	0.595418	0.0031141	15	0.0387632	11	0	70.8115	1.85419e-06
2	1	0	1	0	0	1706.13	0.582388	0.581966	0.0014892	15	0.0387686	11	0	73.5083	8.66662e-07
2	0	0	1	0	0	1708.83	0.568904	0.568456	0.000960913	15	0.0387719	11	0	76.2051	5.46237e-07
2	1	0	1	0	0	1711.53	0.55542	0.555025	0.00107634	15	0.038774	11	0	78.9019	5.97396e-07
2	0	0	1	0	0	1714.22	0.541936	0.541477	0.000215392	15	0.0387755	11	0	81.5987	1.1663e-07
2	1	0	1	0	0	1716.92	0.528452	0.528025	0.000711941	15	0.0387766	11	0	84.2955	3.75923e-07
2	1	0	1	0	0	1719.62	0.514968	0.514539	0.000416812	15	0.0387773	11	0	0.2996	2.14466e-07
2	0	0	1	0	0	1722.31	0.501484	0.501038	6.64569e-05	15	0.0387778	11	0	0.000000000000000E+000	3.32974e-08
2	1	0	1	0	0	1725.01	0.488	0.487533	0.00057666	15	0.038778	11	0	0.000000000000000E+000	2.81141e-07
2	1	0	1	0	0	1727.71	0.474516	0.474069	-0.000306151	15	0.038778	11	0	0.000000000000000E+000	-1.45137e-07
2	1	0	1	0	0	1730.4	0.461032	0.460572	0.000550183	15	0.0387779	11	0	0.000000000000000E+000	2.53398e-07
2	1	0	0	0	0	1732.61	0.450021	0.449439	0.000590464	15	0.0387775	11	0	0.2039	2.65377e-07