File: ACS_Catal_2026/Figures_Na_K/main_figures/data/EC/20251112_2-148_alpha_reproducibility/20251112_2-148_001_alpha_reproducibility_1_Na1_01_CVA_C01.mpt
EC-Lab ASCII FILE
Nb header lines : 66

Cyclic Voltammetry Advanced

Run on channel : 1 (SN 69187)
User :
CE vs. WE compliance from -10 V to 10 V
Electrode connection : standard
Potential control : Ewe
Ewe ctrl range : min = -1.00 V, max = 1.00 V
Safety Limits :
	Do not start on E overload
Acquisition started on : 11/12/2025 13:54:05.582
Loaded Setting File :  C:\Users\User\Documents\EC-Lab\Data\Yatsuzuka\20251030_2-147_gamma_reproducibility\20251030_2-147_001_gamma1_K_1.mps
Saved on :
	File : 20251112_2-148_001_alpha_reproducibility_1_Na1_01_CVA_C01.mpr
	Directory : C:\Users\User\Documents\EC-Lab\Data\Yatsuzuka\20251112_2-148_alpha_reproducibility\
	Host : 192.109.209.127
Device : SP-150e (SN .003883)
Address : 192.109.209.128
EC-LAB for windows v11.52 (software)
Internet server v11.52 (firmware)
Command interpretor v11.50 (firmware)
Electrode material :
Initial state :
Electrolyte :
Comments :
Electrode surface area : 0.001 cm2
Characteristic mass : 0.001 g
Equivalent Weight : 0.000 g/eq.
Density : 0.000 g/cm3
Volume (V) : 0.001 cm3
Cycle Definition : Charge/Discharge alternance
Ei (V)              0.350
vs.                 Ref
ti (h:m:s)          0:00:10.0000
dti (s)             0.0000
dE/dt               10.000
dE/dt unit          mV/s
E1 (V)              0.450
vs.                 Ref
t1 (h:m:s)          0:00:0.0000
dt1 (s)             0.1000
Step percent        50
N                   10
E range min (V)     -1.000
E range max (V)     1.000
I Range             Auto
I Range min         Unset
I Range max         Unset
I Range init        Unset
Bandwidth           5
E2 (V)              0.350
vs.                 Ref
t2 (h:m:s)          0:00:0.0000
dt2 (s)             0.1000
nc cycles           9
nr                  1
Reverse Scan        0
Ef (V)              0.000
vs.                 Eoc
tf (h:m:s)          0:00:0.0000
dtf (s)             0.1000

mode	ox/red	error	control changes	Ns changes	counter inc.	time/s	control/V	Ewe/V	<I>/mA	cycle number	(Q-Qo)/C	I Range	Ns	step time/s	Pwe/W	Rwe/Ohm
2	0	0	1	0	0	0.000000000000000E+000	0.34995	0.34959	-0.00239882	1	0.0000000E+000	14	0	0.000000000000000E+000	-8.38603e-07	145734
2	1	0	1	0	0	0.4069	0.354019	0.353788	0.0371564	1	1.17331e-05	13	0	0.3646	1.31455e-05	9521.6
2	1	0	1	0	0	0.8063	0.358013	0.357817	0.0325237	1	2.49358e-05	13	0	0.764	1.16375e-05	11001.7
2	1	0	1	0	0	1.2057	0.362008	0.3618	0.0279617	1	3.82279e-05	13	0	1.1634	1.01165e-05	12939.2
2	1	0	1	0	0	1.6052	0.366003	0.365755	0.0261188	1	5.14743e-05	13	0	1.5629	9.5531e-06	14003.5
2	1	0	1	0	0	2.0046	0.369996	0.369775	0.0278228	1	6.46061e-05	13	0	1.9623	1.02882e-05	13290.4
2	1	0	1	0	0	2.4041	0.373991	0.373718	0.0327647	1	7.75539e-05	13	0	2.3618	1.22448e-05	11406.1
2	1	0	1	0	0	2.8035	0.377986	0.377697	0.0367254	1	9.02968e-05	13	0	2.7612	1.38711e-05	10284.4
2	1	0	1	0	0	3.2029	0.38198	0.381755	0.0384007	1	0.000102878	13	0	3.1606	1.46597e-05	9941.34
2	1	0	1	0	0	3.6024	0.385974	0.385702	0.035938	1	0.000115329	13	0	3.5601	1.38613e-05	10732.4
2	1	0	1	0	0	4.0019	0.389969	0.38974	0.030326	1	0.000127699	13	0	3.9596	1.18193e-05	12851.7
2	1	0	1	0	0	4.4013	0.393963	0.393768	0.0256579	1	0.000139987	13	0	4.359	1.01033e-05	15346.8
2	1	0	1	0	0	4.8007	0.397958	0.397713	0.0237651	1	0.000152184	13	0	4.7584	9.45171e-06	16735.1
2	1	0	1	0	0	5.2002	0.401953	0.401687	0.0276787	1	0.000164209	13	0	5.1579	1.11182e-05	14512.5
2	1	0	1	0	0	5.5997	0.405947	0.405728	0.0333344	1	0.000176036	13	0	5.5574	1.35247e-05	12171.5
2	1	0	1	0	0	5.9991	0.409941	0.409723	0.0354125	1	0.000187726	13	0	5.9568	1.45093e-05	11570
2	1	0	1	0	0	6.3985	0.413936	0.413718	0.0345481	1	0.000199243	13	0	6.3562	1.42932e-05	11975.1
2	1	0	1	0	0	6.798	0.417931	0.417703	0.030417	1	0.000210679	13	0	6.7557	1.27053e-05	13732.6
2	1	0	1	0	0	7.1974	0.421924	0.421698	0.0260845	1	0.000222049	13	0	7.1551	1.09998e-05	16166.6
2	1	0	1	0	0	7.5969	0.425919	0.425672	0.0223491	1	0.000233349	13	0	7.5546	9.51341e-06	19046.5
2	1	0	1	0	0	7.9963	0.429914	0.429704	0.0210307	1	0.000244558	13	0	7.954	9.03696e-06	20432.3
2	1	0	1	0	0	8.3957	0.433908	0.433673	0.0233954	1	0.000255648	13	0	8.3534	1.0146e-05	18536.6
2	1	0	1	0	0	8.7952	0.437902	0.437699	0.0275996	1	0.000266592	13	0	8.7529	1.20803e-05	15858.9
2	1	0	1	0	0	9.1947	0.441897	0.4417	0.0321298	1	0.000277386	13	0	9.1524	1.41917e-05	13747.4
2	1	0	1	0	0	9.5941	0.445891	0.445654	0.0331407	1	0.000288073	13	0	9.5518	1.47693e-05	13447.3
2	1	0	1	0	0	9.986	0.449811	0.449649	0.0377802	1	0.000298586	13	0	9.9437	1.69878e-05	11901.7
2	0	0	1	0	0	10.3897	0.446141	0.445912	-0.0206692	1	0.000291773	13	0	0.3595	-9.21663e-06	21573.8
2	0	0	1	0	0	10.7892	0.442146	0.44188	-0.0271229	1	0.000282767	13	0	0.759	-1.19851e-05	16291.8
2	0	0	1	0	0	11.1886	0.438153	0.43791	-0.0301638	1	0.000273415	13	0	1.1584	-1.3209e-05	14517.8
2	0	0	1	0	0	11.5881	0.434158	0.433828	-0.0294113	1	0.000263763	13	0	1.5579	-1.27594e-05	14750.4
2	0	0	1	0	0	11.9875	0.430163	0.429929	-0.0255522	1	0.000253823	13	0	1.9573	-1.09856e-05	16825.5
2	0	0	1	0	0	12.3869	0.426169	0.425855	-0.0218819	1	0.000243612	13	0	2.3567	-9.3185e-06	19461.5
2	0	0	1	0	0	12.7864	0.422174	0.421889	-0.0196454	1	0.00023316	13	0	2.7562	-8.28816e-06	21475.2
2	0	0	1	0	0	13.1859	0.41818	0.417962	-0.0201302	1	0.000222523	13	0	3.1557	-8.41365e-06	20763
2	0	0	1	0	0	13.5853	0.414185	0.413951	-0.0235414	1	0.00021171	13	0	3.5551	-9.74499e-06	17584
2	0	0	1	0	0	13.9847	0.410191	0.409989	-0.0284514	1	0.000200744	13	0	3.9545	-1.16648e-05	14410.2
2	0	0	1	0	0	14.3842	0.406196	0.405949	-0.0334825	1	0.000189631	13	0	4.354	-1.35922e-05	12124.2
2	0	0	1	0	0	14.7837	0.402202	0.40196	-0.0352828	1	0.0001783	13	0	4.7535	-1.41823e-05	11392.5
2	0	0	1	0	0	15.1831	0.398208	0.397904	-0.0336928	1	0.000166812	13	0	5.1529	-1.34065e-05	11809.8
2	0	0	1	0	0	15.5825	0.394213	0.393891	-0.0298622	1	0.000155068	13	0	5.5523	-1.17624e-05	13190.3
2	0	0	1	0	0	15.982	0.390218	0.389918	-0.0257438	1	0.000143056	13	0	5.9518	-1.00379e-05	15146.1
2	0	0	1	0	0	16.3814	0.386225	0.385918	-0.024124	1	0.000130812	13	0	6.3512	-9.30989e-06	15997.2
2	0	0	1	0	0	16.7809	0.38223	0.381941	-0.0258655	1	0.000118331	13	0	6.7507	-9.87911e-06	14766.4
2	0	0	1	0	0	17.1803	0.378235	0.378029	-0.0304441	1	0.000105656	13	0	7.1501	-1.15088e-05	12417.1
2	0	0	1	0	0	17.5797	0.374241	0.373989	-0.0358584	1	9.27935e-05	13	0	7.5495	-1.34106e-05	10429.6
2	0	0	1	0	0	17.9792	0.370246	0.370012	-0.0395264	1	7.97173e-05	13	0	7.949	-1.46252e-05	9361.13
2	0	0	1	0	0	18.3787	0.366252	0.365961	-0.039613	1	6.63653e-05	13	0	8.3485	-1.44968e-05	9238.4
2	0	0	1	0	0	18.7781	0.362257	0.361926	-0.0358691	1	5.27164e-05	13	0	8.7479	-1.2982e-05	10090.2
2	0	0	1	0	0	19.1775	0.358263	0.357992	-0.0316173	1	3.872e-05	13	0	9.1473	-1.13187e-05	11322.7
2	0	0	1	0	0	19.577	0.354268	0.353963	-0.0293698	1	2.43707e-05	13	0	9.5468	-1.03958e-05	12051.9
2	0	0	1	0	0	19.9765	0.350274	0.35004	-0.030389	1	9.71518e-06	13	0	9.9463	-1.06374e-05	11518.6
2	1	0	1	0	1	20.3435	0.35342	0.353142	0.0278691	2	1.77429e-05	13	0	0.2946	9.84174e-06	12671.4
2	1	0	1	0	1	20.7429	0.357414	0.357163	0.0335311	2	3.0187e-05	13	0	0.694	1.19761e-05	10651.7
2	1	0	1	0	1	21.1424	0.361408	0.361184	0.0378337	2	4.28406e-05	13	0	1.0935	1.36649e-05	9546.61
2	1	0	1	0	1	21.5419	0.365403	0.365196	0.0386956	2	5.55306e-05	13	0	1.493	1.41315e-05	9437.67
2	1	0	1	0	1	21.9413	0.369398	0.369203	0.0367452	2	6.82014e-05	13	0	1.8924	1.35664e-05	10047.6
2	1	0	1	0	1	22.3407	0.373392	0.373186	0.0327751	2	8.08322e-05	13	0	2.2918	1.22312e-05	11386.3
2	1	0	1	0	1	22.7402	0.377386	0.377201	0.0281756	2	9.34187e-05	13	0	2.6913	1.06279e-05	13387.5
2	1	0	1	0	1	23.1397	0.381381	0.381129	0.0250364	2	0.000105921	13	0	3.0908	9.54213e-06	15223
2	1	0	1	0	1	23.5391	0.385375	0.385126	0.0245738	2	0.000118294	13	0	3.4902	9.46402e-06	15672.2
2	1	0	1	0	1	23.9385	0.38937	0.389164	0.0267755	2	0.000130548	13	0	3.8896	1.042e-05	14534.3
2	1	0	1	0	1	24.338	0.393365	0.393091	0.0312483	2	0.000142623	13	0	4.2891	1.22834e-05	12579.6
2	1	0	1	0	1	24.7374	0.397358	0.397105	0.0348024	2	0.000154528	13	0	4.6885	1.38202e-05	11410.3
2	1	0	1	0	1	25.1369	0.401353	0.401084	0.036222	2	0.000166307	13	0	5.088	1.4528e-05	11072.9
2	1	0	1	0	1	25.5363	0.405348	0.405111	0.0361472	2	0.000177974	13	0	5.4874	1.46436e-05	11207.2
2	1	0	1	0	1	25.9358	0.409343	0.409142	0.0343488	2	0.0001896	13	0	5.8869	1.40536e-05	11911.4
2	1	0	1	0	1	26.3352	0.413336	0.413121	0.0317551	2	0.000201064	13	0	6.2863	1.31187e-05	13009.6
2	1	0	1	0	1	26.7347	0.417331	0.417151	0.0284482	2	0.000212432	13	0	6.6858	1.18672e-05	14663.5
2	1	0	1	0	1	27.1341	0.421326	0.421082	0.025791	2	0.000223718	13	0	7.0852	1.08601e-05	16326.7
2	1	0	1	0	1	27.5335	0.42532	0.425101	0.0230761	2	0.000234909	13	0	7.4846	9.80969e-06	18421.7
2	1	0	1	0	1	27.933	0.429314	0.429101	0.0214771	2	0.000246016	13	0	7.8841	9.21584e-06	19979.5
2	1	0	1	0	1	28.3325	0.433309	0.433109	0.0209223	2	0.000257036	13	0	8.2836	9.06162e-06	20700.8
2	1	0	1	0	1	28.7319	0.437303	0.437069	0.0214617	2	0.000267956	13	0	8.683	9.38022e-06	20365.1
2	1	0	1	0	1	29.1313	0.441298	0.441047	0.0233651	2	0.000278786	13	0	9.0824	1.03051e-05	18876.3
2	1	0	1	0	1	29.5308	0.445293	0.445084	0.0262024	2	0.00028951	13	0	9.4819	1.16622e-05	16986.4
2	1	0	1	0	1	29.9303	0.449287	0.449067	0.0291351	2	0.000300141	13	0	9.8814	1.30836e-05	15413.3
2	0	0	1	0	1	30.3364	0.44664	0.446414	-0.0156361	2	0.000296101	13	0	0.2297	-6.98017e-06	28550.2
2	0	0	1	0	1	30.7359	0.442646	0.4424	-0.0172617	2	0.000287041	13	0	0.6292	-7.63657e-06	25629
2	0	0	1	0	1	31.1353	0.438652	0.438384	-0.0201697	2	0.000277586	13	0	1.0286	-8.84208e-06	21734.8
2	0	0	1	0	1	31.5347	0.434657	0.434406	-0.0238098	2	0.000267867	13	0	1.428	-1.03431e-05	18244.9
2	0	0	1	0	1	31.9342	0.430662	0.430417	-0.0284714	2	0.000257939	13	0	1.8275	-1.22546e-05	15117.5
2	0	0	1	0	1	32.3336	0.426669	0.426377	-0.0315495	2	0.000247829	13	0	2.2269	-1.3452e-05	13514.5
2	0	0	1	0	1	32.7331	0.422674	0.422419	-0.0332646	2	0.000237525	13	0	2.6264	-1.40516e-05	12698.8
2	0	0	1	0	1	33.1325	0.418679	0.418394	-0.032301	2	0.000227025	13	0	3.0258	-1.35145e-05	12953
2	0	0	1	0	1	33.5319	0.414685	0.414403	-0.029257	2	0.000216312	13	0	3.4252	-1.21242e-05	14164.2
2	0	0	1	0	1	33.9314	0.41069	0.410433	-0.0252833	2	0.000205357	13	0	3.8247	-1.03771e-05	16233.3
2	0	0	1	0	1	34.3309	0.406696	0.406412	-0.0222345	2	0.000194171	13	0	4.2242	-9.03637e-06	18278.4
2	0	0	1	0	1	34.7303	0.402701	0.402417	-0.0225088	2	0.000182719	13	0	4.6236	-9.05794e-06	17878.2
2	0	0	1	0	1	35.1297	0.398707	0.39844	-0.0261308	2	0.000171163	13	0	5.023	-1.04116e-05	15247.9
2	0	0	1	0	1	35.5292	0.394712	0.394441	-0.0312979	2	0.000159454	13	0	5.4225	-1.23452e-05	12602.8
2	0	0	1	0	1	35.9287	0.390718	0.390463	-0.0356649	2	0.000147582	13	0	5.822	-1.39258e-05	10948.1
2	0	0	1	0	1	36.3281	0.386724	0.386428	-0.0374854	2	0.000135517	13	0	6.2214	-1.44854e-05	10308.8
2	0	0	1	0	1	36.7275	0.382729	0.382433	-0.0357543	2	0.000123212	13	0	6.6208	-1.36736e-05	10696.1
2	0	0	1	0	1	37.127	0.378734	0.378422	-0.0310979	2	0.000110619	13	0	7.0203	-1.17681e-05	12168.7
2	0	0	1	0	1	37.5264	0.374741	0.374492	-0.0270619	2	9.77294e-05	13	0	7.4197	-1.01345e-05	13838.3
2	0	0	1	0	1	37.9259	0.370746	0.370502	-0.0264983	2	8.4554e-05	13	0	7.8192	-9.81767e-06	13982.1
2	0	0	1	0	1	38.3253	0.366751	0.366519	-0.0303762	2	7.11434e-05	13	0	8.2186	-1.11335e-05	12066
2	0	0	1	0	1	38.7247	0.362757	0.362529	-0.036575	2	5.75286e-05	13	0	8.618	-1.32595e-05	9911.91
2	0	0	1	0	1	39.1242	0.358762	0.358476	-0.0416196	2	4.36864e-05	13	0	9.0175	-1.49196e-05	8613.15
2	0	0	1	0	1	39.5237	0.354768	0.354475	-0.041987	2	2.95686e-05	13	0	9.417	-1.48834e-05	8442.49
2	0	0	1	0	1	39.9231	0.350773	0.350518	-0.0381603	2	1.50878e-05	13	0	9.8164	-1.33759e-05	9185.41
2	1	0	1	0	0	40.2902	0.352921	0.352688	0.0259829	3	1.74441e-05	13	0	0.2447	9.16387e-06	13573.9
2	1	0	1	0	0	40.6897	0.356915	0.356673	0.0248804	3	2.99244e-05	13	0	0.6442	8.87419e-06	14335.5
2	1	0	1	0	0	41.0891	0.360909	0.360641	0.028157	3	4.26768e-05	13	0	1.0436	1.01546e-05	12808.2
2	1	0	1	0	0	41.4885	0.364904	0.3646	0.0338018	3	5.5416e-05	13	0	1.443	1.23241e-05	10786.4
2	1	0	1	0	0	41.888	0.368899	0.368652	0.0381923	3	6.80562e-05	13	0	1.8425	1.40796e-05	9652.52
2	1	0	1	0	0	42.2874	0.372892	0.372656	0.0374149	3	8.0606e-05	13	0	2.2419	1.39429e-05	9960.08
2	1	0	1	0	0	42.6869	0.376887	0.376641	0.0320549	3	9.31298e-05	13	0	2.6414	1.20732e-05	11749.9
2	1	0	1	0	0	43.0863	0.380882	0.380655	0.0263168	3	0.000105601	13	0	3.0408	1.00176e-05	14464.3
2	1	0	1	0	0	43.4857	0.384876	0.384606	0.0242035	3	0.000118005	13	0	3.4402	9.30881e-06	15890.5
2	1	0	1	0	0	43.8852	0.38887	0.388589	0.0275813	3	0.000130262	13	0	3.8397	1.07178e-05	14088.9
2	1	0	1	0	0	44.2847	0.392865	0.392596	0.0330627	3	0.000142316	13	0	4.2392	1.29803e-05	11874.3
2	1	0	1	0	0	44.6841	0.396859	0.396644	0.0362122	3	0.000154163	13	0	4.6386	1.43634e-05	10953.3
2	1	0	1	0	0	45.0835	0.400854	0.400624	0.0338014	3	0.000165907	13	0	5.038	1.35416e-05	11852.3
2	1	0	1	0	0	45.483	0.404849	0.404595	0.0274908	3	0.000177606	13	0	5.4375	1.11226e-05	14717.5
2	1	0	1	0	0	45.8825	0.408843	0.408677	0.0225381	3	0.000189353	13	0	5.837	9.2108e-06	18132.8
2	1	0	1	0	0	46.2819	0.412837	0.412633	0.0233498	3	0.00020092	13	0	6.2364	9.63489e-06	17671.8
2	1	0	1	0	0	46.6813	0.416832	0.416652	0.0289306	3	0.000212302	13	0	6.6358	1.2054e-05	14401.8
2	1	0	1	0	0	47.0808	0.420827	0.420594	0.0337629	3	0.000223502	13	0	7.0353	1.42005e-05	12457.3
2	1	0	1	0	0	47.4802	0.42482	0.424605	0.0333504	3	0.00023456	13	0	7.4347	1.41608e-05	12731.6
2	1	0	1	0	0	47.8797	0.428815	0.428665	0.0277079	3	0.00024559	13	0	7.8342	1.18774e-05	15470.8
2	1	0	1	0	0	48.2791	0.43281	0.432596	0.0221475	3	0.000256622	13	0	8.2336	9.58093e-06	19532.5
2	1	0	1	0	0	48.6785	0.436804	0.436594	0.02096	3	0.000267611	13	0	8.633	9.15101e-06	20829.9
2	1	0	1	0	0	49.078	0.440798	0.440599	0.0256825	3	0.000278454	13	0	9.0325	1.13157e-05	17155.6
2	1	0	1	0	0	49.4775	0.444793	0.444549	0.0314578	3	0.000289143	13	0	9.432	1.39845e-05	14131.6
2	1	0	1	0	0	49.8769	0.448787	0.448597	0.0326773	3	0.000299688	13	0	9.8314	1.46589e-05	13728.1
2	0	0	1	0	0	50.2831	0.44714	0.446904	-0.0233366	3	0.000297468	13	0	0.2447	-1.04292e-05	19150.4
2	0	0	1	0	0	50.6825	0.443145	0.442843	-0.0290935	3	0.000288591	13	0	0.6441	-1.28838e-05	15221.4
2	0	0	1	0	0	51.0819	0.439151	0.438896	-0.0297222	3	0.000279294	13	0	1.0435	-1.3045e-05	14766.6
2	0	0	1	0	0	51.4814	0.435156	0.434859	-0.0259973	3	0.000269641	13	0	1.443	-1.13051e-05	16727.1
2	0	0	1	0	0	51.8809	0.431162	0.430921	-0.0213211	3	0.000259694	13	0	1.8425	-9.18773e-06	20211
2	0	0	1	0	0	52.2803	0.427167	0.426918	-0.0191632	3	0.000249477	13	0	2.2419	-8.18109e-06	22278
2	0	0	1	0	0	52.6797	0.423173	0.422922	-0.0218175	3	0.000239075	13	0	2.6413	-9.22711e-06	19384.5
2	0	0	1	0	0	53.0792	0.419178	0.418941	-0.0281227	3	0.000228544	13	0	3.0408	-1.17818e-05	14896.9
2	0	0	1	0	0	53.4786	0.415185	0.414984	-0.033057	3	0.000217914	13	0	3.4402	-1.37181e-05	12553.6
2	0	0	1	0	0	53.8781	0.41119	0.410959	-0.0327827	3	0.000207107	13	0	3.8397	-1.34724e-05	12535.9
2	0	0	1	0	0	54.2775	0.407195	0.406917	-0.0268493	3	0.000196043	13	0	4.2391	-1.09254e-05	15155.6
2	0	0	1	0	0	54.677	0.4032	0.402911	-0.0220789	3	0.000184606	13	0	4.6386	-8.89584e-06	18248.6
2	0	0	1	0	0	55.0764	0.399207	0.398963	-0.0241172	3	0.000173046	13	0	5.038	-9.62189e-06	16542.7
2	0	0	1	0	0	55.4759	0.395212	0.394962	-0.0311391	3	0.000161373	13	0	5.4375	-1.22988e-05	12683.8
2	0	0	1	0	0	55.8753	0.391217	0.390966	-0.0361568	3	0.000149589	13	0	5.8369	-1.41361e-05	10813.1
2	0	0	1	0	0	56.2747	0.387223	0.386887	-0.0346196	3	0.000137596	13	0	6.2363	-1.33939e-05	11175.4
2	0	0	1	0	0	56.6742	0.383229	0.382965	-0.0284987	3	0.000125286	13	0	6.6358	-1.0914e-05	13438
2	0	0	1	0	0	57.0737	0.379234	0.378995	-0.0248705	3	0.000112634	13	0	7.0353	-9.42579e-06	15238.7
2	0	0	1	0	0	57.4731	0.375239	0.375005	-0.02954	3	9.9768e-05	13	0	7.4347	-1.10777e-05	12694.8
2	0	0	1	0	0	57.8725	0.371245	0.370994	-0.0369901	3	8.67827e-05	13	0	7.8341	-1.37231e-05	10029.6
2	0	0	1	0	0	58.272	0.36725	0.366961	-0.0396196	3	7.36161e-05	13	0	8.2336	-1.45388e-05	9262.1
2	0	0	1	0	0	58.6715	0.363256	0.362943	-0.0331853	3	6.0097e-05	13	0	8.6331	-1.20444e-05	10936.9
2	0	0	1	0	0	59.0709	0.359262	0.359023	-0.0283516	3	4.61467e-05	13	0	9.0325	-1.01789e-05	12663.2
2	0	0	1	0	0	59.4703	0.355267	0.354992	-0.0321673	3	3.19098e-05	13	0	9.4319	-1.14191e-05	11035.8
2	0	0	1	0	0	59.8698	0.351272	0.351006	-0.0408248	3	1.75093e-05	13	0	9.8314	-1.43298e-05	8597.88
2	1	0	1	0	1	60.2369	0.352421	0.352182	0.0367162	4	1.90238e-05	13	0	0.1298	1.29308e-05	9592.01
2	1	0	1	0	1	60.6363	0.356416	0.356195	0.0318062	4	3.13007e-05	13	0	0.5292	1.13292e-05	11198.9
2	1	0	1	0	1	61.0357	0.36041	0.360174	0.0261879	4	4.40305e-05	13	0	0.9286	9.43223e-06	13753.4
2	1	0	1	0	1	61.4352	0.364405	0.364169	0.026444	4	5.68742e-05	13	0	1.3281	9.63011e-06	13771.3
2	1	0	1	0	1	61.8347	0.368399	0.368161	0.0327795	4	6.95987e-05	13	0	1.7276	1.20681e-05	11231.5
2	1	0	1	0	1	62.2341	0.372393	0.372175	0.0378169	4	8.21513e-05	13	0	2.127	1.40745e-05	9841.51
2	1	0	1	0	1	62.6335	0.376388	0.376173	0.0360014	4	9.45878e-05	13	0	2.5264	1.35428e-05	10448.8
2	1	0	1	0	1	63.033	0.380383	0.380186	0.0290513	4	0.000107014	13	0	2.9259	1.10449e-05	13086.7
2	1	0	1	0	1	63.4324	0.384376	0.384109	0.0242363	4	0.000119413	13	0	3.3253	9.30939e-06	15848.5
2	1	0	1	0	1	63.8319	0.388371	0.388107	0.025972	4	0.000131689	13	0	3.7248	1.00799e-05	14943.3
2	1	0	1	0	1	64.2313	0.392366	0.392092	0.0320979	4	0.000143747	13	0	4.1242	1.25853e-05	12215.5
2	1	0	1	0	1	64.6308	0.396361	0.396098	0.0362034	4	0.000155597	13	0	4.5237	1.43401e-05	10940.9
2	1	0	1	0	1	65.0302	0.400354	0.400138	0.0346592	4	0.000167326	13	0	4.9231	1.38685e-05	11544.9
2	1	0	1	0	1	65.4297	0.404349	0.404147	0.0284219	4	0.000178994	13	0	5.3226	1.14866e-05	14219.6
2	1	0	1	0	1	65.8291	0.408344	0.408141	0.02314	4	0.000190719	13	0	5.722	9.44437e-06	17637.9
2	1	0	1	0	1	66.2285	0.412338	0.412124	0.0222764	4	0.00020228	13	0	6.1214	9.18063e-06	18500.5
2	1	0	1	0	1	66.628	0.416332	0.416106	0.026495	4	0.000213686	13	0	6.5209	1.10247e-05	15705.1
2	1	0	1	0	1	67.0275	0.420327	0.420059	0.0321693	4	0.000224913	13	0	6.9204	1.3513e-05	13057.7
2	1	0	1	0	1	67.4269	0.424321	0.424064	0.0341145	4	0.000235986	13	0	7.3198	1.44667e-05	12430.6
2	1	0	1	0	1	67.8263	0.428316	0.42814	0.0309063	4	0.000246979	13	0	7.7192	1.32322e-05	13852.9
2	1	0	1	0	1	68.2258	0.432311	0.432083	0.0243542	4	0.00025797	13	0	8.1187	1.0523e-05	17741.6
2	1	0	1	0	1	68.6253	0.436305	0.436067	0.0204969	4	0.000268951	13	0	8.5182	8.93803e-06	21274.8
2	1	0	1	0	1	69.0247	0.440299	0.440059	0.0229542	4	0.000279843	13	0	8.9176	1.01012e-05	19171.2
2	1	0	1	0	1	69.4241	0.444294	0.444053	0.0295553	4	0.000290551	13	0	9.317	1.31241e-05	15024.5
2	1	0	1	0	1	69.8236	0.448289	0.448082	0.0329543	4	0.000301097	13	0	9.7165	1.47663e-05	13597.1
2	0	0	1	0	1	70.2297	0.447639	0.447412	-0.0226304	4	0.000302864	13	0	0.1298	-1.01251e-05	19770.3
2	0	0	1	0	1	70.6292	0.443644	0.443369	-0.0291716	4	0.000294073	13	0	0.5293	-1.29338e-05	15198.6
2	0	0	1	0	1	71.0286	0.439651	0.439358	-0.0280179	4	0.000284839	13	0	0.9287	-1.23099e-05	15681.3
2	0	0	1	0	1	71.4281	0.435656	0.435388	-0.0216354	4	0.000275181	13	0	1.3282	-9.4198e-06	20123.8
2	0	0	1	0	1	71.8275	0.431661	0.431399	-0.0185129	4	0.000265196	13	0	1.7276	-7.98646e-06	23302.6
2	0	0	1	0	1	72.2269	0.427667	0.427423	-0.023083	4	0.000255024	13	0	2.127	-9.86623e-06	18516.8
2	0	0	1	0	1	72.6264	0.423673	0.423424	-0.0303694	4	0.000244761	13	0	2.5265	-1.28591e-05	13942.5
2	0	0	1	0	1	73.0259	0.419678	0.419396	-0.0328165	4	0.000234394	13	0	2.926	-1.37631e-05	12780.1
2	0	0	1	0	1	73.4253	0.415683	0.415447	-0.0275885	4	0.000223765	13	0	3.3254	-1.14616e-05	15058.7
2	0	0	1	0	1	73.8247	0.411689	0.411455	-0.0217442	4	0.00021283	13	0	3.7248	-8.94678e-06	18922.5
2	0	0	1	0	1	74.2242	0.407694	0.407521	-0.0232327	4	0.000201669	13	0	4.1243	-9.4678e-06	17540.8
2	0	0	1	0	1	74.6237	0.4037	0.403455	-0.030678	4	0.000190356	13	0	4.5238	-1.23772e-05	13151.3
2	0	0	1	0	1	75.0231	0.399705	0.399441	-0.0354421	4	0.000179038	13	0	4.9232	-1.4157e-05	11270.3
2	0	0	1	0	1	75.4225	0.395711	0.395379	-0.0324621	4	0.0001675	13	0	5.3226	-1.28348e-05	12179.7
2	0	0	1	0	1	75.822	0.391716	0.391441	-0.0254772	4	0.000155606	13	0	5.7221	-9.97281e-06	15364.4
2	0	0	1	0	1	76.2214	0.387723	0.387418	-0.0245306	4	0.000143452	13	0	6.1215	-9.50358e-06	15793.3
2	0	0	1	0	1	76.6209	0.383728	0.383464	-0.0309507	4	0.000131142	13	0	6.521	-1.18685e-05	12389.5
2	0	0	1	0	1	77.0203	0.379733	0.379478	-0.0376769	4	0.000118743	13	0	6.9204	-1.42976e-05	10071.9
2	0	0	1	0	1	77.4197	0.375739	0.375444	-0.0371682	4	0.000106134	13	0	7.3198	-1.39546e-05	10101.2
2	0	0	1	0	1	77.8192	0.371745	0.371503	-0.0305055	4	9.31571e-05	13	0	7.7193	-1.13329e-05	12178.2
2	0	0	1	0	1	78.2187	0.36775	0.367455	-0.0268669	4	7.98206e-05	13	0	8.1188	-9.87236e-06	13676.9
2	0	0	1	0	1	78.6181	0.363755	0.363484	-0.03166	4	6.62498e-05	13	0	8.5182	-1.15079e-05	11480.9
2	0	0	1	0	1	79.0175	0.359761	0.35947	-0.0398529	4	5.25274e-05	13	0	8.9176	-1.43259e-05	9019.91
2	0	0	1	0	1	79.417	0.355766	0.355473	-0.0416962	4	3.85759e-05	13	0	9.3171	-1.48219e-05	8525.31
2	0	0	1	0	1	79.8165	0.351772	0.351454	-0.0353724	4	2.42281e-05	13	0	9.7166	-1.24318e-05	9935.85
2	1	0	1	0	0	80.1536	0.351623	0.351354	0.0344081	5	2.00959e-05	12	0	0.1299	1.20894e-05	10211.4
2	1	0	1	0	0	80.583	0.355917	0.355636	0.0276988	5	3.2976e-05	13	0	0.5593	9.85069e-06	12839.4
2	1	0	1	0	0	80.9824	0.35991	0.359719	0.0356653	5	4.55661e-05	13	0	0.9587	1.28295e-05	10086
2	1	0	1	0	0	81.3819	0.363905	0.363647	0.0384541	5	5.81778e-05	13	0	1.3582	1.39837e-05	9456.66
2	1	0	1	0	0	81.7813	0.3679	0.367675	0.0332508	5	7.08036e-05	13	0	1.7576	1.22255e-05	11057.6
2	1	0	1	0	0	82.1807	0.371894	0.371691	0.0263265	5	8.35086e-05	13	0	2.157	9.78531e-06	14118.5
2	1	0	1	0	0	82.5802	0.375888	0.375624	0.0260746	5	9.61705e-05	13	0	2.5565	9.79426e-06	14405.7
2	1	0	1	0	0	82.9797	0.379883	0.379633	0.0331879	5	0.000108611	13	0	2.956	1.25992e-05	11438.9
2	1	0	1	0	0	83.3791	0.383877	0.3836	0.0371745	5	0.000120801	13	0	3.3554	1.42602e-05	10318.9
2	1	0	1	0	0	83.7785	0.387872	0.387635	0.0325756	5	0.000132904	13	0	3.7548	1.26275e-05	11899.6
2	1	0	1	0	0	84.178	0.391867	0.391666	0.0249001	5	0.000145038	13	0	4.1543	9.75254e-06	15729.5
2	1	0	1	0	0	84.5775	0.395861	0.395595	0.0245293	5	0.000157104	13	0	4.5538	9.70368e-06	16127.5
2	1	0	1	0	0	84.9769	0.399855	0.399582	0.0313181	5	0.000168929	13	0	4.9532	1.25141e-05	12758.8
2	1	0	1	0	0	85.3763	0.40385	0.403586	0.0359035	5	0.000180504	13	0	5.3526	1.44902e-05	11240.9
2	1	0	1	0	0	85.7758	0.407845	0.407613	0.0311868	5	0.000192073	13	0	5.7521	1.27121e-05	13070.1
2	1	0	1	0	0	86.1752	0.411838	0.411721	0.0236994	5	0.000203609	13	0	6.1515	9.75755e-06	17372.6
2	1	0	1	0	0	86.5747	0.415833	0.415591	0.0233552	5	0.000215102	13	0	6.551	9.70621e-06	17794.4
2	1	0	1	0	0	86.9741	0.419828	0.419585	0.0305687	5	0.000226371	13	0	6.9504	1.28262e-05	13726
2	1	0	1	0	0	87.3735	0.423822	0.423627	0.0346976	5	0.000237412	13	0	7.3498	1.46988e-05	12209.1
2	1	0	1	0	0	87.773	0.427816	0.42767	0.0296168	5	0.000248396	13	0	7.7493	1.26662e-05	14440.1
2	1	0	1	0	0	88.1725	0.431811	0.431627	0.0222666	5	0.000259447	13	0	8.1488	9.61087e-06	19384.5
2	1	0	1	0	0	88.5719	0.435805	0.435553	0.0226276	5	0.000270444	13	0	8.5482	9.85554e-06	19248.7
2	1	0	1	0	0	88.9713	0.4398	0.439594	0.0297694	5	0.000281255	13	0	8.9476	1.30864e-05	14766.6
2	1	0	1	0	0	89.3708	0.443795	0.443582	0.033638	5	0.000291864	13	0	9.3471	1.49212e-05	13186.9
2	1	0	1	0	0	89.7703	0.447789	0.447597	0.0282845	5	0.000302445	13	0	9.7466	1.266e-05	15824.8
2	0	0	1	0	0	90.1614	0.448289	0.448063	-0.0168445	5	0.000306596	12	0	0.0649	-7.5474e-06	26599.9
2	0	0	1	0	0	90.5759	0.444144	0.443882	-0.0243157	5	0.000297865	13	0	0.4794	-1.07933e-05	18255
2	0	0	1	0	0	90.9753	0.440149	0.43989	-0.0183548	5	0.000288508	13	0	0.8788	-8.07411e-06	23965.9
2	0	0	1	0	0	91.3747	0.436155	0.435881	-0.0197017	5	0.000278792	13	0	1.2782	-8.58758e-06	22124
2	0	0	1	0	0	91.7742	0.43216	0.431913	-0.0276724	5	0.000268939	13	0	1.6777	-1.19521e-05	15608.1
2	0	0	1	0	0	92.1737	0.428166	0.427923	-0.03177	5	0.000259001	13	0	2.0772	-1.35951e-05	13469.4
2	0	0	1	0	0	92.5731	0.424172	0.423905	-0.0273032	5	0.000248809	13	0	2.4766	-1.1574e-05	15525.8
2	0	0	1	0	0	92.9725	0.420177	0.419891	-0.0207071	5	0.000238277	13	0	2.876	-8.69472e-06	20277.7
2	0	0	1	0	0	93.372	0.416182	0.415997	-0.0225388	5	0.000227518	13	0	3.2755	-9.37608e-06	18456.9
2	0	0	1	0	0	93.7714	0.412189	0.411981	-0.0303682	5	0.000216709	13	0	3.6749	-1.25111e-05	13566.2
2	0	0	1	0	0	94.1709	0.408194	0.407947	-0.0341765	5	0.000205824	13	0	4.0744	-1.39422e-05	11936.5
2	0	0	1	0	0	94.5703	0.404199	0.40393	-0.0285979	5	0.000194622	13	0	4.4738	-1.15515e-05	14124.5
2	0	0	1	0	0	94.9697	0.400205	0.399948	-0.0227054	5	0.00018313	13	0	4.8732	-9.08096e-06	17614.7
2	0	0	1	0	0	95.3692	0.39621	0.395969	-0.0255926	5	0.00017144	13	0	5.2727	-1.01339e-05	15472
2	0	0	1	0	0	95.7687	0.392216	0.391944	-0.0340763	5	0.000159687	13	0	5.6722	-1.3356e-05	11502
2	0	0	1	0	0	96.1681	0.388221	0.387943	-0.036278	5	0.000147828	13	0	6.0716	-1.40738e-05	10693.6
2	0	0	1	0	0	96.5675	0.384227	0.383949	-0.0297349	5	0.000135643	13	0	6.471	-1.14167e-05	12912.4
2	0	0	1	0	0	96.967	0.380232	0.379964	-0.0249683	5	0.000123083	13	0	6.8705	-9.48705e-06	15217.9
2	0	0	1	0	0	97.3665	0.376238	0.375999	-0.0305093	5	0.000110318	13	0	7.27	-1.14715e-05	12324.1
2	0	0	1	0	0	97.7659	0.372244	0.372025	-0.038375	5	9.7475e-05	13	0	7.6694	-1.42764e-05	9694.46
2	0	0	1	0	0	98.1653	0.368249	0.367943	-0.0383814	5	8.44336e-05	13	0	8.0688	-1.41222e-05	9586.48
2	0	0	1	0	0	98.5648	0.364254	0.363959	-0.0308687	5	7.09839e-05	13	0	8.4683	-1.12349e-05	11790.5
2	0	0	1	0	0	98.9642	0.360261	0.360022	-0.0285559	5	5.71425e-05	13	0	8.8677	-1.02808e-05	12607.6
2	0	0	1	0	0	99.3637	0.356266	0.355996	-0.0355945	5	4.3078e-05	13	0	9.2672	-1.26715e-05	10001.4
2	0	0	1	0	0	99.7631	0.352271	0.352	-0.0429032	5	2.88592e-05	13	0	9.6666	-1.51019e-05	8204.52
2	1	0	1	0	1	100.085	0.350973	0.350705	0.0240821	6	2.16364e-05	13	0	0.000000000000000E+000	8.4457e-06	14562.9
2	1	0	1	0	1	100.53	0.355417	0.355185	0.0269472	6	3.506e-05	13	0	0.4444	9.57125e-06	13180.8
2	1	0	1	0	1	100.929	0.359411	0.359136	0.0257967	6	4.77711e-05	13	0	0.8438	9.2645e-06	13921.8
2	1	0	1	0	1	101.328	0.363406	0.363162	0.0331841	6	6.05041e-05	13	0	1.2432	1.20512e-05	10943.9
2	1	0	1	0	1	101.728	0.367401	0.36717	0.0383646	6	7.3075e-05	13	0	1.6427	1.40863e-05	9570.56
2	1	0	1	0	1	102.127	0.371394	0.371169	0.0331129	6	8.56078e-05	13	0	2.0421	1.22905e-05	11209.2
2	1	0	1	0	1	102.527	0.375389	0.375186	0.0253535	6	9.823e-05	13	0	2.4416	9.5123e-06	14798.2
2	1	0	1	0	1	102.926	0.379384	0.379137	0.0262168	6	0.00011077	13	0	2.841	9.93976e-06	14461.6
2	1	0	1	0	1	103.326	0.383378	0.383098	0.0339201	6	0.000123067	13	0	3.2404	1.29947e-05	11294.1
2	1	0	1	0	1	103.725	0.387372	0.3871	0.0365073	6	0.000135117	13	0	3.6399	1.4132e-05	10603.4
2	1	0	1	0	1	104.125	0.391367	0.391159	0.029737	6	0.000147127	13	0	4.0394	1.16319e-05	13153.9
2	1	0	1	0	1	104.524	0.395362	0.395134	0.0232755	6	0.000159174	13	0	4.4388	9.19696e-06	16976.4
2	1	0	1	0	1	104.923	0.399356	0.399048	0.0256377	6	0.000171096	13	0	4.8382	1.02307e-05	15564.8
2	1	0	1	0	1	105.323	0.40335	0.403106	0.0333265	6	0.000182748	13	0	5.2377	1.34341e-05	12095.6
2	1	0	1	0	1	105.722	0.407345	0.407147	0.0342514	6	0.00019427	13	0	5.6372	1.39453e-05	11887
2	1	0	1	0	1	106.122	0.411339	0.411166	0.0269177	6	0.00020571	13	0	6.0366	1.10676e-05	15274.9
2	1	0	1	0	1	106.521	0.415334	0.415111	0.0216318	6	0.000217196	13	0	6.436	8.97958e-06	19189.9
2	1	0	1	0	1	106.921	0.419329	0.419078	0.026263	6	0.000228537	13	0	6.8355	1.10062e-05	15957
2	1	0	1	0	1	107.32	0.423322	0.423109	0.0331601	6	0.000239617	13	0	7.2349	1.40303e-05	12759.6
2	1	0	1	0	1	107.72	0.427317	0.42709	0.0316284	6	0.000250566	13	0	7.6344	1.35082e-05	13503.4
2	1	0	1	0	1	108.119	0.431312	0.431095	0.0237645	6	0.000261553	13	0	8.0338	1.02448e-05	18140.3
2	1	0	1	0	1	108.519	0.435307	0.435065	0.0207875	6	0.000272563	13	0	8.4333	9.04393e-06	20929.1
2	1	0	1	0	1	108.918	0.4393	0.439073	0.0272395	6	0.000283421	13	0	8.8327	1.19601e-05	16119
2	1	0	1	0	1	109.317	0.443295	0.443078	0.0327472	6	0.000294043	13	0	9.2322	1.45095e-05	13530.3
2	1	0	1	0	1	109.717	0.44729	0.447105	0.0293641	6	0.000304605	13	0	9.6316	1.31289e-05	15226.2
2	0	0	1	0	1	110.093	0.448937	0.448709	-0.0140095	6	0.000311331	12	0	0.0649	-6.28621e-06	32028.8
2	0	0	1	0	1	110.522	0.444643	0.444372	-0.0246845	6	0.000302796	13	0	0.4943	-1.09691e-05	18002.1
2	0	0	1	0	1	110.922	0.440649	0.440426	-0.0185666	6	0.000293499	13	0	0.8937	-8.17719e-06	23721.4
2	0	0	1	0	1	111.321	0.436654	0.436404	-0.0192023	6	0.00028381	13	0	1.2932	-8.37995e-06	22726.7
2	0	0	1	0	1	111.721	0.43266	0.432365	-0.0268137	6	0.000273983	13	0	1.6927	-1.15933e-05	16124.8
2	0	0	1	0	1	112.12	0.428665	0.42844	-0.031645	6	0.000264066	13	0	2.0921	-1.3558e-05	13538.9
2	0	0	1	0	1	112.52	0.424671	0.42444	-0.0279634	6	0.000253923	13	0	2.4915	-1.18688e-05	15178.4
2	0	0	1	0	1	112.919	0.420676	0.420427	-0.0211243	6	0.000243441	13	0	2.891	-8.8812e-06	19902.6
2	0	0	1	0	1	113.319	0.416682	0.416439	-0.0213946	6	0.000232707	13	0	3.2905	-8.90955e-06	19464.7
2	0	0	1	0	1	113.718	0.412688	0.41249	-0.0289607	6	0.000221895	13	0	3.6899	-1.1946e-05	14243.1
2	0	0	1	0	1	114.117	0.408693	0.408475	-0.033898	6	0.00021105	13	0	4.0893	-1.38465e-05	12050.1
2	0	0	1	0	1	114.517	0.404698	0.40446	-0.0296168	6	0.000199905	13	0	4.4888	-1.19788e-05	13656.4
2	0	0	1	0	1	114.916	0.400705	0.400444	-0.0227037	6	0.000188478	13	0	4.8882	-9.09156e-06	17637.8
2	0	0	1	0	1	115.316	0.39671	0.396436	-0.0242532	6	0.000176805	13	0	5.2877	-9.61483e-06	16345.7
2	0	0	1	0	1	115.715	0.392715	0.392482	-0.0322921	6	0.000165073	13	0	5.6871	-1.26741e-05	12154.1
2	0	0	1	0	1	116.115	0.388721	0.388443	-0.0364346	6	0.000153249	13	0	6.0865	-1.41528e-05	10661.4
2	0	0	1	0	1	116.514	0.384727	0.384479	-0.03149	6	0.000141146	13	0	6.486	-1.21072e-05	12209.5
2	0	0	1	0	1	116.914	0.380732	0.380471	-0.025045	6	0.000128664	13	0	6.8855	-9.52891e-06	15191.5
2	0	0	1	0	1	117.313	0.376737	0.376466	-0.026963	6	0.000115938	13	0	7.2849	-1.01506e-05	13962.3
2	0	0	1	0	1	117.712	0.372743	0.372524	-0.0350979	6	0.00010308	13	0	7.6843	-1.30748e-05	10613.8
2	0	0	1	0	1	118.112	0.368748	0.368458	-0.0393533	6	9.00884e-05	13	0	8.0838	-1.45001e-05	9362.83
2	0	0	1	0	1	118.511	0.364754	0.364452	-0.0346113	6	7.67737e-05	13	0	8.4833	-1.26142e-05	10529.9
2	0	0	1	0	1	118.911	0.36076	0.360487	-0.0282837	6	6.30422e-05	13	0	8.8827	-1.01959e-05	12745.4
2	0	0	1	0	1	119.31	0.356765	0.356484	-0.0303029	6	4.89812e-05	13	0	9.2821	-1.08025e-05	11764
2	0	0	1	0	1	119.71	0.35277	0.352495	-0.0385486	6	3.47288e-05	13	0	9.6816	-1.35882e-05	9144.17
2	0	0	1	0	0	120.017	0.350324	0.350089	0.0084877	7	2.45965e-05	13	0	0.000000000000000E+000	2.97145e-06	41246.6
2	1	0	1	0	0	120.476	0.354918	0.354733	0.0325009	7	3.58238e-05	13	0	0.4594	1.15291e-05	10914.6
2	1	0	1	0	0	120.876	0.358912	0.358689	0.0262807	7	4.8446e-05	13	0	0.8588	9.42662e-06	13648.4
2	1	0	1	0	0	121.275	0.362906	0.362676	0.0271109	7	6.12468e-05	13	0	1.2583	9.83247e-06	13377.5
2	1	0	1	0	0	121.675	0.366901	0.366636	0.0348653	7	7.39228e-05	13	0	1.6578	1.27829e-05	10515.8
2	1	0	1	0	0	122.074	0.370895	0.370676	0.0380961	7	8.64251e-05	13	0	2.0572	1.41213e-05	9730.02
2	1	0	1	0	0	122.473	0.37489	0.374689	0.032502	7	9.88851e-05	13	0	2.4566	1.21781e-05	11528.2
2	1	0	1	0	0	122.873	0.378885	0.37864	0.025387	7	0.0001114	13	0	2.8561	9.61254e-06	14914.7
2	1	0	1	0	0	123.272	0.382879	0.382628	0.0266669	7	0.000123829	13	0	3.2556	1.02035e-05	14348.4
2	1	0	1	0	0	123.672	0.386873	0.386668	0.0337031	7	0.000135995	13	0	3.655	1.30319e-05	11472.8
2	1	0	1	0	0	124.071	0.390868	0.39064	0.0368223	7	0.00014793	13	0	4.0544	1.43843e-05	10608.8
2	1	0	1	0	0	124.471	0.394863	0.394625	0.0310525	7	0.000159809	13	0	4.4539	1.22541e-05	12708.3
2	1	0	1	0	0	124.87	0.398856	0.398614	0.0242119	7	0.000171702	13	0	4.8533	9.65121e-06	16463.5
2	1	0	1	0	0	125.27	0.402851	0.402629	0.0244328	7	0.000183521	13	0	5.2528	9.83736e-06	16479
2	1	0	1	0	0	125.669	0.406846	0.406596	0.0317324	7	0.000195162	13	0	5.6522	1.29022e-05	12813.3
2	1	0	1	0	0	126.068	0.41084	0.41064	0.035371	7	0.000206516	13	0	6.0516	1.45247e-05	11609.5
2	1	0	1	0	0	126.468	0.414834	0.414646	0.0301038	7	0.000217816	13	0	6.4511	1.24824e-05	13773.9
2	1	0	1	0	0	126.867	0.418829	0.418607	0.0227042	7	0.000229151	13	0	6.8506	9.50412e-06	18437.4
2	1	0	1	0	0	127.267	0.422823	0.422576	0.0227509	7	0.000240428	13	0	7.25	9.61397e-06	18574.1
2	1	0	1	0	0	127.666	0.426818	0.426544	0.0297171	7	0.000251504	13	0	7.6494	1.26756e-05	14353.5
2	1	0	1	0	0	128.066	0.430813	0.430612	0.0339662	7	0.000262362	13	0	8.0489	1.46262e-05	12677.7
2	1	0	1	0	0	128.465	0.434807	0.434568	0.0287603	7	0.000273169	13	0	8.4484	1.24983e-05	15110
2	1	0	1	0	0	128.865	0.438801	0.438573	0.021903	7	0.000284043	13	0	8.8478	9.60605e-06	20023.4
2	1	0	1	0	0	129.264	0.442796	0.442534	0.0215926	7	0.00029489	13	0	9.2472	9.55545e-06	20494.7
2	1	0	1	0	0	129.664	0.446791	0.44652	0.0289739	7	0.000305549	13	0	9.6467	1.29374e-05	15411.1
2	1	0	1	0	0	130.025	0.449587	0.449348	-0.0029411	7	0.000313477	13	0	0.000000000000000E+000	-1.32158e-06	152782
2	0	0	1	0	0	130.469	0.445142	0.444877	-0.025053	7	0.000303801	13	0	0.4444	-1.11455e-05	17757.5
2	0	0	1	0	0	130.869	0.441148	0.440929	-0.029924	7	0.000294731	13	0	0.8439	-1.31944e-05	14735
2	0	0	1	0	0	131.268	0.437154	0.436892	-0.0263291	7	0.000285286	13	0	1.2433	-1.15029e-05	16593.5
2	0	0	1	0	0	131.667	0.433159	0.432865	-0.0197762	7	0.000275438	13	0	1.6427	-8.56042e-06	21888.2
2	0	0	1	0	0	132.067	0.429164	0.428949	-0.0204542	7	0.000265314	13	0	2.0422	-8.77382e-06	20971.2
2	0	0	1	0	0	132.466	0.425171	0.424944	-0.0281328	7	0.000255107	13	0	2.4416	-1.19549e-05	15105
2	0	0	1	0	0	132.866	0.421176	0.420912	-0.0329627	7	0.000244843	13	0	2.8411	-1.38744e-05	12769.3
2	0	0	1	0	0	133.265	0.417181	0.416916	-0.0289277	7	0.000234342	13	0	3.2405	-1.20604e-05	14412.3
2	0	0	1	0	0	133.665	0.413187	0.412951	-0.0224578	7	0.000223524	13	0	3.6399	-9.27396e-06	18387.9
2	0	0	1	0	0	134.064	0.409192	0.408999	-0.0226181	7	0.000212464	13	0	4.0394	-9.2508e-06	18082.8
2	0	0	1	0	0	134.464	0.405198	0.404954	-0.0301141	7	0.00020126	13	0	4.4389	-1.21948e-05	13447.3
2	0	0	1	0	0	134.863	0.401203	0.400988	-0.0353315	7	0.000190055	13	0	4.8383	-1.41675e-05	11349.3
2	0	0	1	0	0	135.262	0.397209	0.396909	-0.0323327	7	0.000178639	13	0	5.2377	-1.28331e-05	12275.8
2	0	0	1	0	0	135.662	0.393214	0.392915	-0.0253255	7	0.000166887	13	0	5.6372	-9.95076e-06	15514.6
2	0	0	1	0	0	136.061	0.38922	0.388955	-0.0242986	7	0.000154861	13	0	6.0367	-9.45107e-06	16007.3
2	0	0	1	0	0	136.461	0.385226	0.385008	-0.0312177	7	0.000142689	13	0	6.4361	-1.20191e-05	12333
2	0	0	1	0	0	136.86	0.381231	0.380958	-0.037584	7	0.000130443	13	0	6.8355	-1.43179e-05	10136.2
2	0	0	1	0	0	137.26	0.377236	0.376995	-0.0357386	7	0.000117974	13	0	7.235	-1.34733e-05	10548.7
2	0	0	1	0	0	137.659	0.373243	0.372957	-0.0286154	7	0.000105139	13	0	7.6344	-1.06723e-05	13033.4
2	0	0	1	0	0	138.059	0.369248	0.368975	-0.0267252	7	9.19465e-05	13	0	8.0339	-9.86095e-06	13806.2
2	0	0	1	0	0	138.458	0.365253	0.364956	-0.0333179	7	7.85629e-05	13	0	8.4333	-1.21596e-05	10953.7
2	0	0	1	0	0	138.857	0.361259	0.361008	-0.0405154	7	6.50629e-05	13	0	8.8327	-1.46264e-05	8910.38
2	0	0	1	0	0	139.257	0.357265	0.356947	-0.0395391	7	5.12892e-05	13	0	9.2322	-1.41134e-05	9027.71
2	0	0	1	0	0	139.656	0.35327	0.352936	-0.0327281	7	3.70832e-05	13	0	9.6317	-1.15509e-05	10783.9
2	0	0	1	0	1	139.986	0.35005	0.349762	-0.0177715	8	2.50539e-05	13	0	9.9612	-6.21579e-06	19681
2	1	0	1	0	1	140.423	0.354419	0.354191	0.0294948	8	3.6618e-05	13	0	0.3445	1.04468e-05	12008.6
2	1	0	1	0	1	140.822	0.358413	0.358164	0.0369833	8	4.90421e-05	13	0	0.744	1.32461e-05	9684.47
2	1	0	1	0	1	141.222	0.362407	0.362166	0.0373366	8	6.15894e-05	13	0	1.1434	1.3522e-05	9700.03
2	1	0	1	0	1	141.621	0.366402	0.366145	0.0306729	8	7.4233e-05	13	0	1.5428	1.12307e-05	11937.1
2	1	0	1	0	1	142.021	0.370397	0.370175	0.0254172	8	8.69674e-05	13	0	1.9423	9.40879e-06	14564
2	1	0	1	0	1	142.42	0.37439	0.374153	0.0286136	8	9.95906e-05	13	0	2.3417	1.07059e-05	13076
2	1	0	1	0	1	142.82	0.378385	0.378141	0.0359797	8	0.000111958	13	0	2.7412	1.36054e-05	10509.8
2	1	0	1	0	1	143.219	0.38238	0.382191	0.0366825	8	0.000124138	13	0	3.1406	1.40197e-05	10418.9
2	1	0	1	0	1	143.618	0.386374	0.386136	0.029918	8	0.000136284	13	0	3.54	1.15524e-05	12906.5
2	1	0	1	0	1	144.018	0.390368	0.390159	0.0238026	8	0.000148448	13	0	3.9395	9.2868e-06	16391.4
2	1	0	1	0	1	144.417	0.394363	0.394114	0.0264691	8	0.000160493	13	0	4.339	1.04318e-05	14889.6
2	1	0	1	0	1	144.817	0.398357	0.398092	0.033795	8	0.000172264	13	0	4.7384	1.34535e-05	11779.6
2	1	0	1	0	1	145.216	0.402352	0.402152	0.0352307	8	0.000183844	13	0	5.1378	1.41681e-05	11414.8
2	1	0	1	0	1	145.616	0.406347	0.406142	0.0293145	8	0.000195421	13	0	5.5373	1.19059e-05	13854.6
2	1	0	1	0	1	146.015	0.410341	0.410197	0.0222289	8	0.000207019	13	0	5.9368	9.11823e-06	18453.3
2	1	0	1	0	1	146.415	0.414335	0.414125	0.0247729	8	0.000218488	13	0	6.3362	1.02591e-05	16716.9
2	1	0	1	0	1	146.814	0.41833	0.418139	0.0320008	8	0.000229725	13	0	6.7356	1.33808e-05	13066.5
2	1	0	1	0	1	147.214	0.422325	0.422118	0.0338585	8	0.000240766	13	0	7.1351	1.42923e-05	12467.1
2	1	0	1	0	1	147.613	0.426318	0.426093	0.028027	8	0.000251782	13	0	7.5345	1.19421e-05	15203
2	1	0	1	0	1	148.012	0.430313	0.430063	0.0218549	8	0.000262837	13	0	7.934	9.39897e-06	19678.1
2	1	0	1	0	1	148.412	0.434308	0.434082	0.0221715	8	0.000273837	13	0	8.3334	9.62423e-06	19578.4
2	1	0	1	0	1	148.811	0.438302	0.43805	0.0288918	8	0.000284651	13	0	8.7328	1.26561e-05	15161.7
2	1	0	1	0	1	149.211	0.442296	0.442079	0.0333403	8	0.000295275	13	0	9.1323	1.47391e-05	13259.6
2	1	0	1	0	1	149.61	0.446291	0.446106	0.0300261	8	0.000305853	13	0	9.5318	1.33948e-05	14857.2
2	1	0	0	0	1	149.979	0.450011	0.449754	0.039946	8	0.000315595	13	0	9.9005	1.79659e-05	11259.1
2	0	0	1	0	1	150.416	0.445642	0.445375	-0.0279869	8	0.000306328	13	0	0.3945	-1.24647e-05	15913.7
2	0	0	1	0	1	150.815	0.441647	0.441369	-0.0239256	8	0.00029723	13	0	0.7939	-1.056e-05	18447.6
2	0	0	1	0	1	151.215	0.437653	0.43742	-0.0188353	8	0.000287683	13	0	1.1933	-8.23893e-06	23223.4
2	0	0	1	0	1	151.614	0.433658	0.433411	-0.0190346	8	0.000277837	13	0	1.5928	-8.24981e-06	22769.6
2	0	0	1	0	1	152.014	0.429664	0.429455	-0.0247683	8	0.000267825	13	0	1.9923	-1.06369e-05	17338.9
2	0	0	1	0	1	152.413	0.425669	0.425398	-0.0308983	8	0.000257729	13	0	2.3917	-1.31441e-05	13767.7
2	0	0	1	0	1	152.812	0.421675	0.421415	-0.0318934	8	0.000247478	13	0	2.7911	-1.34403e-05	13213.2
2	0	0	1	0	1	153.212	0.41768	0.417421	-0.027048	8	0.000236966	13	0	3.1906	-1.12904e-05	15432.6
2	0	0	1	0	1	153.611	0.413687	0.41346	-0.0212673	8	0.000226166	13	0	3.59	-8.79315e-06	19441.1
2	0	0	1	0	1	154.011	0.409692	0.40949	-0.0219031	8	0.000215151	13	0	3.9895	-8.9691e-06	18695.5
2	0	0	1	0	1	154.41	0.405697	0.405425	-0.0291648	8	0.000203994	13	0	4.3889	-1.18241e-05	13901.2
2	0	0	1	0	1	154.81	0.401703	0.401429	-0.0344733	8	0.000192787	13	0	4.7883	-1.38386e-05	11644.6
2	0	0	1	0	1	155.209	0.397709	0.397399	-0.0336671	8	0.00018141	13	0	5.1878	-1.33793e-05	11803.8
2	0	0	1	0	1	155.609	0.393714	0.3934	-0.0275931	8	0.000169748	13	0	5.5873	-1.08551e-05	14257.2
2	0	0	1	0	1	156.008	0.389719	0.389471	-0.0234263	8	0.000157784	13	0	5.9867	-9.12387e-06	16625.4
2	0	0	1	0	1	156.407	0.385725	0.385438	-0.0264952	8	0.000145612	13	0	6.3861	-1.02123e-05	14547.5
2	0	0	1	0	1	156.807	0.38173	0.381452	-0.0334584	8	0.000133322	13	0	6.7856	-1.27628e-05	11400.8
2	0	0	1	0	1	157.206	0.377736	0.377522	-0.0381913	8	0.000120873	13	0	7.1851	-1.44181e-05	9885.05
2	0	0	1	0	1	157.606	0.373741	0.373513	-0.0379086	8	0.00010819	13	0	7.5845	-1.41593e-05	9852.98
2	0	0	1	0	1	158.005	0.369747	0.369467	-0.033755	8	9.5202e-05	13	0	7.9839	-1.24714e-05	10945.5
2	0	0	1	0	1	158.405	0.365752	0.365463	-0.0292602	8	8.18866e-05	13	0	8.3834	-1.06935e-05	12490.1
2	0	0	1	0	1	158.804	0.361759	0.361453	-0.0276604	8	6.82737e-05	13	0	8.7828	-9.99796e-06	13067.5
2	0	0	1	0	1	159.204	0.357764	0.357525	-0.030304	8	5.43742e-05	13	0	9.1823	-1.08344e-05	11797.9
2	0	0	1	0	1	159.603	0.353769	0.353538	-0.0359541	8	4.02486e-05	13	0	9.5817	-1.27111e-05	9833.05
2	0	0	0	0	1	159.978	0.35	0.349876	-0.0184693	8	2.68801e-05	13	0	9.9562	-6.46197e-06	18943.6
2	1	0	1	0	0	160.37	0.353919	0.353675	0.0370926	9	3.6269e-05	13	0	0.2946	1.31187e-05	9534.92
2	1	0	1	0	0	160.769	0.357913	0.357666	0.0349519	9	4.8657e-05	13	0	0.694	1.25011e-05	10233.1
2	1	0	1	0	0	161.168	0.361908	0.361711	0.0295443	9	6.13044e-05	13	0	1.0934	1.06865e-05	12243
2	1	0	1	0	0	161.568	0.365903	0.365709	0.024955	9	7.40512e-05	13	0	1.4929	9.12628e-06	14654.8
2	1	0	1	0	0	161.967	0.369897	0.36965	0.025666	9	8.67547e-05	13	0	1.8924	9.48743e-06	14402.3
2	1	0	1	0	0	162.367	0.373891	0.373661	0.0305533	9	9.93052e-05	13	0	2.2918	1.14166e-05	12229.8
2	1	0	1	0	0	162.766	0.377886	0.377699	0.0355311	9	0.000111669	13	0	2.6912	1.34201e-05	10630.1
2	1	0	1	0	0	163.166	0.381881	0.381653	0.037126	9	0.00012389	13	0	3.0907	1.41693e-05	10279.9
2	1	0	1	0	0	163.565	0.385874	0.385643	0.0341916	9	0.000136013	13	0	3.4901	1.31857e-05	11278.9
2	1	0	1	0	0	163.965	0.389869	0.389675	0.0285985	9	0.000148078	13	0	3.8896	1.11441e-05	13625.7
2	1	0	1	0	0	164.364	0.393864	0.393644	0.0240363	9	0.000160075	13	0	4.289	9.46173e-06	16377.1
2	1	0	1	0	0	164.763	0.397858	0.39764	0.0231719	9	0.000171982	13	0	4.6884	9.21407e-06	17160.5
2	1	0	1	0	0	165.163	0.401852	0.401587	0.0267619	9	0.00018373	13	0	5.0879	1.07472e-05	15005.9
2	1	0	1	0	0	165.562	0.405847	0.405609	0.0321151	9	0.000195295	13	0	5.4874	1.30262e-05	12629.9
2	1	0	1	0	0	165.962	0.409841	0.409643	0.0349959	9	0.00020674	13	0	5.8868	1.43358e-05	11705.5
2	1	0	1	0	0	166.361	0.413836	0.413648	0.0330518	9	0.000218025	13	0	6.2862	1.36718e-05	12515.1
2	1	0	1	0	0	166.761	0.417831	0.417607	0.0278137	9	0.000229265	13	0	6.6857	1.16152e-05	15014.4
2	1	0	1	0	0	167.16	0.421825	0.4216	0.0227365	9	0.000240481	13	0	7.0852	9.58572e-06	18542.8
2	1	0	1	0	0	167.56	0.425819	0.425608	0.0209501	9	0.000251628	13	0	7.4846	8.9165e-06	20315.3
2	1	0	1	0	0	167.959	0.429814	0.429588	0.0236906	9	0.000262659	13	0	7.884	1.01772e-05	18133.3
2	1	0	1	0	0	168.359	0.433809	0.433558	0.0293965	9	0.000273536	13	0	8.2835	1.27451e-05	14748.6
2	1	0	1	0	0	168.758	0.437802	0.437598	0.0328249	9	0.000284262	13	0	8.6829	1.43641e-05	13331.3
2	1	0	1	0	0	169.157	0.441797	0.441583	0.0317568	9	0.000294909	13	0	9.0824	1.40233e-05	13905.1
2	1	0	1	0	0	169.557	0.445792	0.445584	0.027184	9	0.000305541	13	0	9.4818	1.21128e-05	16391.4
2	1	0	1	0	0	169.954	0.449761	0.449574	0.0226023	9	0.000316131	13	0	9.8787	1.01614e-05	19890.7
2	0	0	1	0	0	170.362	0.446141	0.44586	-0.0270033	9	0.000309332	13	0	0.3445	-1.20397e-05	16511.3
2	0	0	1	0	0	170.762	0.442146	0.441861	-0.0232268	9	0.00030028	13	0	0.744	-1.0263e-05	19023.8
2	0	0	1	0	0	171.161	0.438153	0.437925	-0.018988	9	0.000290791	13	0	1.1434	-8.31535e-06	23063.2
2	0	0	1	0	0	171.561	0.434158	0.43392	-0.0182217	9	0.000280993	13	0	1.5429	-7.90674e-06	23813.4
2	0	0	1	0	0	171.96	0.430163	0.429912	-0.0217953	9	0.000270991	13	0	1.9423	-9.37006e-06	19725
2	0	0	1	0	0	172.36	0.426169	0.425927	-0.0274475	9	0.000260862	13	0	2.3417	-1.16906e-05	15517.9
2	0	0	1	0	0	172.759	0.422174	0.421864	-0.0320225	9	0.000250602	13	0	2.7412	-1.35091e-05	13174
2	0	0	1	0	0	173.159	0.41818	0.417943	-0.0324702	9	0.000240178	13	0	3.1407	-1.35707e-05	12871.6
2	0	0	1	0	0	173.558	0.414185	0.413888	-0.028892	9	0.000229524	13	0	3.5401	-1.19581e-05	14325.3
2	0	0	1	0	0	173.957	0.410191	0.410002	-0.0237254	9	0.000218612	13	0	3.9395	-9.72747e-06	17281.1
2	0	0	1	0	0	174.357	0.406196	0.405942	-0.0215635	9	0.000207457	13	0	4.339	-8.75354e-06	18825.4
2	0	0	1	0	0	174.756	0.402202	0.401951	-0.0242197	9	0.000196084	13	0	4.7385	-9.73515e-06	16596
2	0	0	1	0	0	175.156	0.398208	0.397971	-0.0301811	9	0.000184648	13	0	5.1379	-1.20112e-05	13186.1
2	0	0	1	0	0	175.555	0.394213	0.393951	-0.0352283	9	0.000173101	13	0	5.5373	-1.38783e-05	11182.8
2	0	0	1	0	0	175.955	0.390218	0.389945	-0.0356746	9	0.000161349	13	0	5.9368	-1.39111e-05	10930.6
2	0	0	1	0	0	176.354	0.386225	0.385938	-0.0326635	9	0.000149347	13	0	6.3362	-1.26061e-05	11815.6
2	0	0	1	0	0	176.754	0.38223	0.381897	-0.0339179	9	0.000137083	13	0	6.7357	-1.29531e-05	11259.5
2	0	0	1	0	0	177.153	0.378235	0.377994	-0.0366459	9	0.000124588	13	0	7.1351	-1.38519e-05	10314.8
2	0	0	1	0	0	177.552	0.374241	0.373965	-0.0377926	9	0.000111864	13	0	7.5345	-1.41331e-05	9895.21
2	0	0	1	0	0	177.952	0.370246	0.369988	-0.038397	9	9.88992e-05	13	0	7.934	-1.42064e-05	9635.85
2	0	0	1	0	0	178.351	0.366252	0.365983	-0.0388082	9	8.56789e-05	13	0	8.3335	-1.42031e-05	9430.56
2	0	0	1	0	0	178.751	0.362257	0.361993	-0.0392456	9	7.21922e-05	13	0	8.7329	-1.42067e-05	9223.79
2	0	0	1	0	0	179.15	0.358263	0.357961	-0.0396652	9	5.84233e-05	13	0	9.1323	-1.41986e-05	9024.57
2	0	0	1	0	0	179.55	0.354268	0.353949	-0.0400586	9	4.43675e-05	13	0	9.5318	-1.41787e-05	8835.79
2	0	0	1	0	0	179.949	0.350274	0.35006	-0.0399127	9	2.99962e-05	13	0	9.9313	-1.39719e-05	8770.66
2	1	0	1	0	1	180.301	0.35327	0.353062	0.0307441	10	3.68119e-05	12	0	0.2296	1.08546e-05	11483.9
2	1	0	1	0	1	180.716	0.357414	0.357191	0.0336035	10	4.93198e-05	13	0	0.644	1.20029e-05	10629.6
2	1	0	1	0	1	181.115	0.361408	0.361223	0.0328737	10	6.19343e-05	13	0	1.0435	1.18748e-05	10988.2
2	1	0	1	0	1	181.515	0.365403	0.365154	0.0321129	10	7.45881e-05	13	0	1.443	1.17262e-05	11370.9
2	1	0	1	0	1	181.914	0.369398	0.369241	0.0312001	10	8.72078e-05	13	0	1.8424	1.15204e-05	11834.6
2	1	0	1	0	1	182.313	0.373392	0.373237	0.0302323	10	9.97339e-05	13	0	2.2418	1.12838e-05	12345.6
2	1	0	1	0	1	182.713	0.377386	0.377166	0.0293913	10	0.000112161	13	0	2.6413	1.10854e-05	12832.6
2	1	0	1	0	1	183.112	0.381381	0.381111	0.0289647	10	0.000124471	13	0	3.0408	1.10388e-05	13157.8
2	1	0	1	0	1	183.512	0.385375	0.385135	0.0281361	10	0.000136653	13	0	3.4402	1.08362e-05	13688.3
2	1	0	1	0	1	183.911	0.38937	0.389145	0.0274819	10	0.000148714	13	0	3.8396	1.06944e-05	14160
2	1	0	1	0	1	184.311	0.393365	0.393084	0.026446	10	0.00016066	13	0	4.2391	1.03955e-05	14863.6
2	1	0	1	0	1	184.71	0.397358	0.397129	0.0254836	10	0.000172486	13	0	4.6385	1.01203e-05	15583.7
2	1	0	1	0	1	185.11	0.401353	0.401141	0.0245553	10	0.000184202	13	0	5.038	9.85015e-06	16336.2
2	1	0	1	0	1	185.509	0.405348	0.405095	0.0237325	10	0.000195792	13	0	5.4374	9.61392e-06	17069.2
2	1	0	1	0	1	185.909	0.409343	0.409188	0.0227185	10	0.000207347	13	0	5.8369	9.29616e-06	18011.2
2	1	0	1	0	1	186.308	0.413336	0.413116	0.0220329	10	0.000218734	13	0	6.2363	9.10213e-06	18750
2	1	0	1	0	1	186.707	0.417331	0.41716	0.0215537	10	0.000230009	13	0	6.6358	8.99133e-06	19354.5
2	1	0	1	0	1	187.107	0.421326	0.421085	0.0213679	10	0.000241192	13	0	7.0352	8.99769e-06	19706.4
2	1	0	1	0	1	187.506	0.42532	0.425098	0.0214321	10	0.000252266	13	0	7.4346	9.11074e-06	19834.6
2	1	0	1	0	1	187.906	0.429314	0.42911	0.0215422	10	0.000263248	13	0	7.8341	9.24399e-06	19919.5
2	1	0	1	0	1	188.305	0.433309	0.433046	0.0218502	10	0.000274156	13	0	8.2336	9.46215e-06	19818.9
2	1	0	1	0	1	188.705	0.437303	0.437112	0.0224715	10	0.00028498	13	0	8.633	9.82256e-06	19451.9
2	1	0	1	0	1	189.104	0.441298	0.441066	0.0229304	10	0.000295719	13	0	9.0324	1.01138e-05	19235
2	1	0	1	0	1	189.504	0.445293	0.445061	0.0241229	10	0.000306384	13	0	9.4319	1.07362e-05	18449.8
2	1	0	1	0	1	189.903	0.449287	0.449039	0.0251485	10	0.000316978	13	0	9.8314	1.12926e-05	17855.5
2	0	0	1	0	1	190.309	0.44664	0.446396	-0.0186073	10	0.000311864	13	0	0.2297	-8.30623e-06	23990.4
2	0	0	1	0	1	190.709	0.442646	0.442372	-0.0189483	10	0.000302839	13	0	0.6292	-8.3822e-06	23346.2
2	0	0	1	0	1	191.108	0.438652	0.438406	-0.0190837	10	0.000293427	13	0	1.0286	-8.3664e-06	22972.9
2	0	0	1	0	1	191.507	0.434657	0.434452	-0.0191519	10	0.000283744	13	0	1.428	-8.32059e-06	22684.5
2	0	0	1	0	1	191.907	0.430662	0.430363	-0.0192658	10	0.00027382	13	0	1.8275	-8.29129e-06	22338.2
2	0	0	1	0	1	192.306	0.426669	0.426379	-0.0194705	10	0.000263698	13	0	2.2269	-8.3018e-06	21898.7
2	0	0	1	0	1	192.706	0.422674	0.422384	-0.0197932	10	0.000253376	13	0	2.6264	-8.36035e-06	21339.8
2	0	0	1	0	1	193.105	0.418679	0.418418	-0.0201973	10	0.000242886	13	0	3.0258	-8.45093e-06	20716.5
2	0	0	1	0	1	193.505	0.414685	0.414442	-0.0209361	10	0.000232216	13	0	3.4252	-8.67682e-06	19795.6
2	0	0	1	0	1	193.904	0.41069	0.410433	-0.0214796	10	0.000221359	13	0	3.8247	-8.81594e-06	19108
2	0	0	1	0	1	194.304	0.406696	0.406477	-0.0225432	10	0.000210325	13	0	4.2242	-9.16329e-06	18031
2	0	0	1	0	1	194.703	0.402701	0.402489	-0.0234914	10	0.000199038	13	0	4.6236	-9.45504e-06	17133.5
2	0	0	1	0	1	195.102	0.398707	0.398464	-0.0248955	10	0.000187638	13	0	5.023	-9.91996e-06	16005.4
2	0	0	1	0	1	195.502	0.394712	0.394491	-0.026139	10	0.000176048	13	0	5.4225	-1.03116e-05	15092
2	0	0	1	0	1	195.901	0.390718	0.39043	-0.0279719	10	0.000164238	13	0	5.822	-1.09211e-05	13958
2	0	0	1	0	1	196.301	0.386724	0.386416	-0.0294448	10	0.000152241	13	0	6.2214	-1.1378e-05	13123.4
2	0	0	1	0	1	196.7	0.382729	0.38249	-0.0309206	10	0.00014003	13	0	6.6208	-1.18268e-05	12370.1
2	0	0	1	0	1	197.1	0.378734	0.378473	-0.0333668	10	0.000127595	13	0	7.0203	-1.26284e-05	11342.8
2	0	0	1	0	1	197.499	0.374741	0.374448	-0.0351046	10	0.000114937	13	0	7.4197	-1.31448e-05	10666.7
2	0	0	1	0	1	197.899	0.370746	0.370485	-0.0366669	10	0.00010204	13	0	7.8192	-1.35846e-05	10104.1
2	0	0	1	0	1	198.298	0.366751	0.366479	-0.038572	10	8.88813e-05	13	0	8.2186	-1.41358e-05	9501.15
2	0	0	1	0	1	198.697	0.362757	0.362448	-0.0401452	10	7.54716e-05	13	0	8.618	-1.45506e-05	9028.42
2	0	0	1	0	1	199.097	0.358762	0.35847	-0.0413202	10	6.1763e-05	13	0	9.0175	-1.48121e-05	8675.43
2	0	0	1	0	1	199.496	0.354768	0.35447	-0.0421826	10	4.77874e-05	13	0	9.417	-1.49525e-05	8403.21
2	0	0	1	0	1	199.896	0.350773	0.35051	-0.0433511	10	3.34825e-05	13	0	9.8164	-1.5195e-05	8085.38
2	0	0	0	0	1	199.971	0.35	0.349704	-0.0485379	10	3.05811e-05	13	0	9.8913	-1.69739e-05	7204.76