File: ACS_Catal_2026/Figures_Na_K/main_figures/data/EC/20251112_2-148_alpha_reproducibility/20251112_2-148_004_Na_first_2_Na2_03_CVA_C02.mpt
EC-Lab ASCII FILE
Nb header lines : 66

Cyclic Voltammetry Advanced

Run on channel : 2 (SN 69290)
User :
CE vs. WE compliance from -10 V to 10 V
Electrode connection : standard
Potential control : Ewe
Ewe ctrl range : min = -1.00 V, max = 1.00 V
Safety Limits :
	Do not start on E overload
Acquisition started on : 11/12/2025 17:10:29.402
Loaded Setting File :  C:\Users\User\Documents\EC-Lab\Data\Yatsuzuka\20251112_2-148_alpha_reproducibility\20251112_2-148_002_alpha_reproducibility_2_K1.mps
Saved on :
	File : 20251112_2-148_004_Na_first_2_Na2_03_CVA_C02.mpr
	Directory : C:\Users\User\Documents\EC-Lab\Data\Yatsuzuka\20251112_2-148_alpha_reproducibility\
	Host : 192.109.209.127
Device : SP-150e (SN .003883)
Address : 192.109.209.128
EC-Lab for windows v11.52 (software)
Internet server v11.52 (firmware)
Command interpretor v11.50 (firmware)
Electrode material :
Initial state :
Electrolyte :
Comments :
Electrode surface area : 0.001 cm2
Characteristic mass : 0.001 g
Equivalent Weight : 0.000 g/eq.
Density : 0.000 g/cm3
Volume (V) : 0.001 cm3
Cycle Definition : Charge/Discharge alternance
Ei (V)              0.450
vs.                 Ref
ti (h:m:s)          0:00:10.0000
dti (s)             0.0000
dE/dt               5.000
dE/dt unit          mV/s
E1 (V)              0.700
vs.                 Ref
t1 (h:m:s)          0:00:0.0000
dt1 (s)             0.1000
Step percent        50
N                   10
E range min (V)     -1.000
E range max (V)     1.000
I Range             10 mA
I Range min         Unset
I Range max         Unset
I Range init        Unset
Bandwidth           5
E2 (V)              0.450
vs.                 Ref
t2 (h:m:s)          0:00:0.0000
dt2 (s)             0.1000
nc cycles           14
nr                  1
Reverse Scan        0
Ef (V)              0.000
vs.                 Eoc
tf (h:m:s)          0:00:0.0000
dtf (s)             0.1000

mode	ox/red	error	control changes	Ns changes	counter inc.	time/s	control/V	Ewe/V	<I>/mA	cycle number	(Q-Qo)/C	I Range	Ns	step time/s	P/W
2	1	0	1	0	0	232.187	0.450021	0.449535	0.0156122	1	0.0000000E+000	11	0	0.000000000000000E+000	7.01821e-06
2	1	0	1	0	0	234.739	0.462781	0.462301	0.0147477	1	3.46593e-05	11	0	2.4971	6.81786e-06
2	1	0	1	0	0	237.336	0.475765	0.47531	0.0140268	1	6.99945e-05	11	0	5.094	6.66709e-06
2	1	0	1	0	0	239.933	0.488749	0.488312	0.0144219	1	0.000105426	11	0	7.6909	7.04237e-06
2	1	0	0	0	0	242.53	0.501734	0.501293	0.0142812	1	0.000140641	11	0	10.2878	7.15906e-06
2	1	0	1	0	0	245.127	0.514718	0.514291	0.0140404	1	0.000175788	11	0	12.8847	7.22088e-06
2	1	0	1	0	0	247.724	0.527704	0.527258	0.0147539	1	0.000211393	11	0	15.4817	7.77909e-06
2	1	0	0	0	0	250.321	0.540688	0.540269	0.0149432	1	0.000247232	11	0	18.0786	8.07332e-06
2	1	0	1	0	0	252.918	0.553672	0.553213	0.0154652	1	0.000283827	11	0	20.6755	8.55552e-06
2	1	0	1	0	0	255.515	0.566657	0.566239	0.0162205	1	0.00032209	11	0	23.2724	9.18468e-06
2	1	0	0	0	0	258.112	0.579642	0.57922	0.0173024	1	0.000363112	11	0	25.8694	1.00219e-05
2	1	0	1	0	0	260.709	0.592626	0.592172	0.0195681	1	0.000409083	11	0	28.4663	1.15877e-05
2	1	0	1	0	0	263.306	0.605611	0.60514	0.0238806	1	0.000463529	11	0	31.0632	1.44511e-05
2	1	0	1	0	0	265.902	0.618595	0.618162	0.0314078	1	0.000532213	11	0	33.6601	1.94151e-05
2	1	0	1	0	0	268.499	0.631581	0.631117	0.0438629	1	0.000625844	11	0	36.2571	2.76826e-05
2	1	0	1	0	0	271.096	0.644565	0.644128	0.0657916	1	0.000762767	11	0	38.854	4.23782e-05
2	1	0	1	0	0	273.693	0.657549	0.657115	0.10556	1	0.000978053	11	0	41.4509	6.93652e-05
2	1	0	0	0	0	276.29	0.670534	0.670071	0.176603	1	0.00133456	11	0	44.0478	0.000118336
2	1	0	1	0	0	278.887	0.683518	0.683122	0.29976	1	0.00194049	11	0	46.6447	0.000204772
2	1	0	1	0	0	281.484	0.696504	0.696089	0.495313	1	0.00295661	11	0	49.2417	0.000344782
2	1	0	1	0	0	283.832	0.691759	0.691285	0.393602	1	0.004096	11	0	51.5892	0.000272091
2	1	0	1	0	0	286.428	0.678774	0.678318	0.229649	1	0.0048865	11	0	54.1861	0.000155775
2	1	0	1	0	0	289.025	0.665789	0.665378	0.123848	1	0.0053329	11	0	56.7831	8.24059e-05
2	1	0	1	0	0	291.622	0.652805	0.652374	0.0669321	1	0.00557388	11	0	59.38	4.36648e-05
2	1	0	1	0	0	294.219	0.63982	0.639365	0.0334203	1	0.00569722	11	0	61.9769	2.13677e-05
2	1	0	0	0	0	296.816	0.626836	0.626387	0.0146425	1	0.00575632	11	0	64.5738	9.17187e-06
2	1	0	1	0	0	299.413	0.613852	0.613415	0.00446615	1	0.00577999	11	0	67.1707	2.7396e-06
2	1	0	1	0	0	302.01	0.600866	0.600398	-0.000397719	1	0.0057838	11	0	0.1998	-2.3879e-07
2	1	0	0	0	0	304.607	0.587882	0.587414	-0.00316074	1	0.00577622	11	0	1.9976	-1.85667e-06
2	1	0	1	0	0	307.204	0.574897	0.574459	-0.00571353	1	0.0057619	11	0	4.5945	-3.28219e-06
2	1	0	1	0	0	309.801	0.561913	0.561432	-0.007033	1	0.00574343	11	0	7.1914	-3.94855e-06
2	0	0	1	0	0	312.398	0.548929	0.54847	-0.00803583	1	0.0057223	11	0	9.7883	-4.40741e-06
2	0	0	1	0	0	314.995	0.535943	0.535498	-0.00850102	1	0.00569934	11	0	12.3853	-4.55228e-06
2	0	0	1	0	0	317.592	0.522959	0.522479	-0.00967693	1	0.00567519	11	0	14.9822	-5.05599e-06
2	0	0	1	0	0	320.188	0.509974	0.509527	-0.0106345	1	0.00565006	11	0	17.5791	-5.41858e-06
2	0	0	0	0	0	322.785	0.49699	0.496529	-0.00995706	1	0.00562417	11	0	20.176	-4.94397e-06
2	1	0	1	0	0	325.382	0.484005	0.483559	-0.00974992	1	0.00559686	11	0	22.773	-4.71466e-06
2	0	0	1	0	0	327.979	0.47102	0.4706	-0.0117869	1	0.00556904	11	0	25.3699	-5.54692e-06
2	1	0	0	0	0	330.576	0.458036	0.457619	-0.0105596	1	0.00554027	11	0	27.9668	-4.83225e-06
2	0	0	1	0	1	332.943	0.453841	0.453353	0.0108005	2	0.00553028	11	0	0.7542	4.89646e-06
2	1	0	1	0	1	335.539	0.466825	0.466396	0.0125692	2	0.00556261	11	0	3.3511	5.86222e-06
2	1	0	0	0	1	338.136	0.47981	0.479396	0.0129069	2	0.00559523	11	0	5.948	6.1875e-06
2	1	0	1	0	1	340.733	0.492794	0.492325	0.011764	2	0.00562823	11	0	8.5449	5.79171e-06
2	1	0	1	0	1	343.33	0.50578	0.505328	0.0117844	2	0.00566151	11	0	11.1419	5.95501e-06
2	1	0	0	0	1	345.927	0.518764	0.518322	0.0133543	2	0.00569434	11	0	13.7388	6.92185e-06
2	1	0	1	0	1	348.524	0.531748	0.531288	0.0136998	2	0.00572699	11	0	16.3357	7.27854e-06
2	1	0	1	0	1	351.121	0.544733	0.544291	0.0128727	2	0.00575989	11	0	18.9326	7.00648e-06
2	1	0	1	0	1	353.718	0.557717	0.557288	0.0124585	2	0.00579413	11	0	21.5295	6.94297e-06
2	0	0	1	0	1	356.315	0.570703	0.570236	0.0131295	2	0.0058294	11	0	24.1265	7.4869e-06
2	1	0	1	0	1	358.912	0.583687	0.583225	0.015705	2	0.00586764	11	0	26.7234	9.15953e-06
2	1	0	1	0	1	361.509	0.596671	0.596186	0.0171821	2	0.00591122	11	0	29.3203	1.02437e-05
2	1	0	0	0	1	364.106	0.609656	0.609218	0.0222459	2	0.0059634	11	0	31.9172	1.35526e-05
2	1	0	1	0	1	366.703	0.622641	0.622169	0.0312306	2	0.00603165	11	0	34.5142	1.94307e-05
2	1	0	1	0	1	369.299	0.635626	0.635177	0.0444734	2	0.00612768	11	0	37.1111	2.82485e-05
2	1	0	0	0	1	371.896	0.64861	0.64812	0.0711103	2	0.00627448	11	0	39.708	4.6088e-05
2	1	0	1	0	1	374.493	0.661594	0.661174	0.119452	2	0.00651447	11	0	42.3049	7.89786e-05
2	1	0	1	0	1	377.09	0.67458	0.674148	0.205112	2	0.00692385	11	0	44.9019	0.000138276
2	1	0	0	0	1	379.687	0.687564	0.687143	0.348502	2	0.0076252	11	0	47.4988	0.00023947
2	1	0	1	0	1	382.169	0.699974	0.699461	0.569058	2	0.00873555	11	0	49.9808	0.000398034
2	1	0	1	0	1	384.622	0.687763	0.687288	0.326593	2	0.00978698	11	0	52.4333	0.000224463
2	1	0	1	0	1	387.219	0.674779	0.674334	0.186546	2	0.0104396	11	0	55.0302	0.000125795
2	1	0	1	0	1	389.815	0.661794	0.661361	0.0998459	2	0.0108039	11	0	57.6271	6.60342e-05
2	1	0	0	0	1	392.412	0.64881	0.648354	0.051127	2	0.0109954	11	0	60.224	3.31484e-05
2	1	0	1	0	1	395.009	0.635826	0.635334	0.0237338	2	0.0110909	11	0	62.8209	1.50789e-05
2	1	0	1	0	1	397.606	0.62284	0.622377	0.00915154	2	0.0111338	11	0	65.4179	5.69571e-06
2	0	0	0	0	1	400.203	0.609856	0.60937	0.000990987	2	0.0111481	11	0	68.0148	6.03877e-07
2	0	0	1	0	1	402.8	0.596871	0.596405	-0.0034807	2	0.0111464	11	0	0.4994	-2.07591e-06
2	0	0	1	0	1	405.397	0.583887	0.583427	-0.00561293	2	0.0111356	11	0	3.0963	-3.27474e-06
2	0	0	0	0	1	407.994	0.570902	0.570401	-0.00654632	2	0.0111192	11	0	5.6933	-3.73403e-06
2	1	0	1	0	1	410.591	0.557917	0.557484	-0.00680088	2	0.0110991	11	0	8.2902	-3.79138e-06
2	1	0	1	0	1	413.188	0.544933	0.544482	-0.00744153	2	0.011077	11	0	10.8871	-4.05178e-06
2	1	0	1	0	1	415.785	0.531948	0.531497	-0.00792853	2	0.0110535	11	0	13.484	-4.21399e-06
2	1	0	0	0	1	418.382	0.518964	0.518527	-0.00852293	2	0.0110288	11	0	16.0809	-4.41937e-06
2	1	0	1	0	1	420.979	0.505979	0.505562	-0.00876184	2	0.0110031	11	0	18.6779	-4.42965e-06
2	1	0	1	0	1	423.575	0.492994	0.492546	-0.00914769	2	0.0109766	11	0	21.2748	-4.50566e-06
2	0	0	0	0	1	426.172	0.48001	0.479557	-0.0112863	2	0.0109493	11	0	23.8717	-5.41245e-06
2	0	0	1	0	1	428.769	0.467025	0.46657	-0.0103841	2	0.0109207	11	0	26.4686	-4.84489e-06
2	0	0	1	0	1	431.366	0.45404	0.453569	-0.0112408	2	0.0108916	11	0	29.0656	-5.09846e-06
2	1	0	0	0	0	433.733	0.457836	0.457358	0.0132937	3	0.0109	11	0	1.4982	6.07999e-06
2	1	0	1	0	0	436.33	0.470821	0.470378	0.0124865	3	0.0109321	11	0	4.0952	5.87337e-06
2	1	0	1	0	0	438.926	0.483806	0.483379	0.0123053	3	0.0109651	11	0	6.6921	5.94813e-06
2	1	0	0	0	0	441.523	0.49679	0.496283	0.0118535	3	0.0109976	11	0	9.289	5.88271e-06
2	1	0	1	0	0	444.12	0.509774	0.50932	0.0129666	3	0.0110301	11	0	11.8859	6.60417e-06
2	1	0	1	0	0	446.717	0.522759	0.522302	0.0120276	3	0.0110623	11	0	14.4828	6.28204e-06
2	0	0	0	0	0	449.314	0.535744	0.535282	0.0118504	3	0.0110951	11	0	17.0798	6.34332e-06
2	1	0	1	0	0	451.911	0.548729	0.548284	0.0136267	3	0.0111283	11	0	19.6767	7.47127e-06
2	1	0	1	0	0	454.508	0.561713	0.561248	0.0129652	3	0.011162	11	0	22.2736	7.27667e-06
2	1	0	1	0	0	457.105	0.574697	0.574235	0.0136384	3	0.0111976	11	0	24.8705	7.83168e-06
2	1	0	1	0	0	459.702	0.587683	0.587208	0.0161156	3	0.0112367	11	0	27.4675	9.46324e-06
2	1	0	1	0	0	462.299	0.600667	0.600214	0.0193106	3	0.0112817	11	0	30.0644	1.15905e-05
2	1	0	1	0	0	464.896	0.613651	0.613191	0.0249196	3	0.011337	11	0	32.6613	1.52805e-05
2	1	0	0	0	0	467.493	0.626636	0.626191	0.0336146	3	0.0114104	11	0	35.2582	2.10492e-05
2	1	0	1	0	0	470.089	0.63962	0.639177	0.0507094	3	0.0115167	11	0	37.8551	3.24123e-05
2	1	0	1	0	0	472.686	0.652606	0.652142	0.0817928	3	0.0116829	11	0	40.4521	5.33405e-05
2	1	0	0	0	0	475.283	0.66559	0.665161	0.139219	3	0.0119605	11	0	43.049	9.26028e-05
2	1	0	1	0	0	477.88	0.678574	0.67813	0.240012	3	0.0124391	11	0	45.6459	0.000162759
2	1	0	1	0	0	480.477	0.691559	0.691114	0.405071	3	0.0132591	11	0	48.2428	0.00027995
2	1	0	1	0	0	482.815	0.696753	0.696287	0.472205	3	0.0143909	11	0	50.5804	0.00032879
2	1	0	1	0	0	485.412	0.683768	0.683324	0.274005	3	0.0153386	11	0	53.1773	0.000187234
2	1	0	0	0	0	488.009	0.670784	0.670384	0.154141	3	0.0158812	11	0	55.7742	0.000103334
2	1	0	1	0	0	490.605	0.6578	0.657367	0.0815561	3	0.0161782	11	0	58.3711	5.36122e-05
2	1	0	1	0	0	493.202	0.644814	0.644356	0.0395712	3	0.0163308	11	0	60.9681	2.54979e-05
2	1	0	0	0	0	495.799	0.63183	0.631407	0.0178145	3	0.0164044	11	0	63.565	1.12482e-05
2	1	0	1	0	0	498.396	0.618846	0.618423	0.00605526	3	0.0164357	11	0	66.1619	3.74471e-06
2	1	0	1	0	0	500.993	0.605861	0.605395	0.000486623	3	0.0164436	11	0	0.0998	2.946e-07
2	1	0	0	0	0	503.59	0.592876	0.592381	-0.00338157	3	0.0164383	11	0	1.4983	-2.00317e-06
2	1	0	1	0	0	506.187	0.579891	0.579443	-0.00543259	3	0.0164253	11	0	4.0952	-3.14787e-06
2	1	0	1	0	0	508.784	0.566907	0.566437	-0.00660953	3	0.0164077	11	0	6.6921	-3.74388e-06
2	1	0	1	0	0	511.381	0.553923	0.553463	-0.00752879	3	0.0163871	11	0	9.289	-4.16691e-06
2	1	0	1	0	0	513.978	0.540937	0.540462	-0.00777311	3	0.0163648	11	0	11.886	-4.20107e-06
2	1	0	1	0	0	516.575	0.527953	0.527505	-0.00797538	3	0.0163412	11	0	14.4829	-4.20705e-06
2	0	0	1	0	0	519.172	0.514968	0.514527	-0.0094345	3	0.0163164	11	0	17.0798	-4.8543e-06
2	1	0	0	0	0	521.769	0.501984	0.501561	-0.00938245	3	0.0162906	11	0	19.6767	-4.70587e-06
2	1	0	1	0	0	524.365	0.489	0.488511	-0.00961436	3	0.0162637	11	0	22.2736	-4.69672e-06
2	0	0	1	0	0	526.962	0.476014	0.475511	-0.0108216	3	0.016236	11	0	24.8706	-5.1458e-06
2	0	0	0	0	0	529.559	0.46303	0.462567	-0.0120563	3	0.0162075	11	0	27.4675	-5.57682e-06
2	0	0	1	0	0	532.131	0.45017	0.449713	-0.0197241	3	0.0161784	11	0	30.0395	-8.87018e-06
2	1	0	1	0	1	534.523	0.461832	0.461358	0.0118794	4	0.016206	11	0	2.3523	5.48065e-06
2	1	0	0	0	1	537.12	0.474816	0.474357	0.0135966	4	0.0162384	11	0	4.9492	6.44966e-06
2	1	0	1	0	1	539.716	0.4878	0.487379	0.0125718	4	0.016271	11	0	7.5461	6.12725e-06
2	0	0	1	0	1	542.313	0.500786	0.50034	0.0115891	4	0.016304	11	0	10.1431	5.79851e-06
2	1	0	0	0	1	544.91	0.51377	0.513249	0.0130117	4	0.0163366	11	0	12.74	6.67826e-06
2	1	0	1	0	1	547.507	0.526755	0.52627	0.0134396	4	0.0163691	11	0	15.3369	7.07288e-06
2	1	0	1	0	1	550.104	0.539739	0.539259	0.0127447	4	0.0164017	11	0	17.9338	6.8727e-06
2	1	0	1	0	1	552.701	0.552723	0.552275	0.0116061	4	0.0164347	11	0	20.5307	6.40976e-06
2	0	0	1	0	1	555.298	0.565709	0.56522	0.0122347	4	0.016469	11	0	23.1277	6.91532e-06
2	0	0	1	0	1	557.895	0.578693	0.578235	0.0135811	4	0.0165054	11	0	25.7246	7.85308e-06
2	1	0	1	0	1	560.492	0.591677	0.5912	0.0155993	4	0.0165457	11	0	28.3215	9.2223e-06
2	1	0	0	0	1	563.089	0.604662	0.604182	0.018593	4	0.0165926	11	0	30.9184	1.12335e-05
2	1	0	1	0	1	565.686	0.617647	0.617175	0.0257049	4	0.0166517	11	0	33.5154	1.58644e-05
2	1	0	1	0	1	568.283	0.630632	0.630215	0.0376092	4	0.0167319	11	0	36.1123	2.37019e-05
2	1	0	0	0	1	570.88	0.643616	0.643167	0.0557321	4	0.0168514	11	0	38.7092	3.5845e-05
2	1	0	1	0	1	573.476	0.6566	0.656133	0.0930279	4	0.0170432	11	0	41.3061	6.10387e-05
2	1	0	1	0	1	576.073	0.669585	0.669152	0.161313	4	0.0173681	11	0	43.903	0.000107943
2	1	0	0	0	1	578.67	0.68257	0.682158	0.282063	4	0.0179323	11	0	46.5	0.000192412
2	1	0	1	0	1	581.267	0.695555	0.695158	0.468284	4	0.0188892	11	0	49.0969	0.000325531
2	1	0	0	0	1	583.605	0.692758	0.692297	0.399995	4	0.0200145	11	0	51.4344	0.000276915
2	1	0	1	0	1	586.202	0.679773	0.679344	0.23349	4	0.0208213	11	0	54.0314	0.00015862
2	1	0	1	0	1	588.799	0.666788	0.666335	0.125735	4	0.0212716	11	0	56.6283	8.37815e-05
2	1	0	0	0	1	591.396	0.653804	0.653344	0.0659007	4	0.0215107	11	0	59.2252	4.30558e-05
2	1	0	1	0	1	593.992	0.64082	0.640383	0.0313047	4	0.0216324	11	0	61.8221	2.0047e-05
2	1	0	1	0	1	596.589	0.627834	0.627394	0.0138074	4	0.0216891	11	0	64.4191	8.66266e-06
2	1	0	0	0	1	599.186	0.61485	0.614411	0.005455	4	0.0217113	11	0	67.016	3.35162e-06
2	0	0	1	0	1	601.783	0.601865	0.601427	-0.00215579	4	0.021714	11	0	0.000000000000000E+000	-1.29655e-06
2	0	0	1	0	1	604.38	0.588881	0.588401	-0.00528517	4	0.0217056	11	0	2.1974	-3.1098e-06
2	0	0	1	0	1	606.977	0.575897	0.575468	-0.00565326	4	0.021691	11	0	4.7943	-3.25327e-06
2	1	0	1	0	1	609.574	0.562911	0.562441	-0.00628026	4	0.0216725	11	0	7.3913	-3.53228e-06
2	0	0	1	0	1	612.171	0.549927	0.549505	-0.00932763	4	0.0216515	11	0	9.9882	-5.12557e-06
2	0	0	1	0	1	614.768	0.536942	0.536522	-0.00911865	4	0.0216284	11	0	12.5851	-4.89235e-06
2	1	0	0	0	1	617.365	0.523958	0.523494	-0.00833712	4	0.0216046	11	0	15.182	-4.36443e-06
2	1	0	1	0	1	619.962	0.510974	0.51053	-0.00846595	4	0.0215797	11	0	17.7789	-4.32212e-06
2	1	0	1	0	1	622.559	0.497988	0.497515	-0.00893318	4	0.021554	11	0	20.3759	-4.44439e-06
2	0	0	0	0	1	625.156	0.485004	0.484534	-0.0099745	4	0.0215274	11	0	22.9728	-4.83298e-06
2	0	0	1	0	1	627.752	0.472019	0.471504	-0.0111734	4	0.0214996	11	0	25.5697	-5.26832e-06
2	0	0	1	0	1	630.349	0.459035	0.458582	-0.0124165	4	0.0214707	11	0	28.1666	-5.69399e-06
2	1	0	0	0	0	632.716	0.452842	0.452387	0.0123465	5	0.0214561	11	0	0.4994	5.58542e-06
2	1	0	1	0	0	635.313	0.465826	0.465383	0.0133551	5	0.0214879	11	0	3.0963	6.21525e-06
2	1	0	1	0	0	637.91	0.478812	0.478409	0.01354	5	0.0215206	11	0	5.6933	6.47766e-06
2	1	0	0	0	0	640.507	0.491796	0.491313	0.0134985	5	0.0215533	11	0	8.2902	6.63198e-06
2	1	0	1	0	0	643.103	0.504781	0.504328	0.0131301	5	0.0215858	11	0	10.8871	6.62188e-06
2	1	0	1	0	0	645.7	0.517765	0.517299	0.0129747	5	0.0216183	11	0	13.484	6.7118e-06
2	1	0	1	0	0	648.297	0.530749	0.530293	0.0132787	5	0.0216509	11	0	16.0809	7.04158e-06
2	1	0	1	0	0	650.894	0.543735	0.543305	0.0136359	5	0.0216839	11	0	18.6779	7.40842e-06
2	1	0	1	0	0	653.491	0.556719	0.556266	0.013764	5	0.0217172	11	0	21.2748	7.65644e-06
2	1	0	1	0	0	656.088	0.569703	0.569259	0.014774	5	0.0217519	11	0	23.8717	8.41021e-06
2	1	0	0	0	0	658.685	0.582688	0.582274	0.0147163	5	0.0217889	11	0	26.4686	8.56892e-06
2	1	0	1	0	0	661.282	0.595673	0.595215	0.0163927	5	0.0218306	11	0	29.0656	9.75716e-06
2	1	0	1	0	0	663.879	0.608658	0.60819	0.0207133	5	0.0218802	11	0	31.6625	1.25976e-05
2	1	0	0	0	0	666.476	0.621642	0.621221	0.0272561	5	0.0219441	11	0	34.2594	1.69321e-05
2	1	0	1	0	0	669.073	0.634626	0.634189	0.0402998	5	0.0220335	11	0	36.8563	2.55577e-05
2	1	0	1	0	0	671.67	0.647611	0.647193	0.0648023	5	0.0221695	11	0	39.4532	4.19396e-05
2	1	0	0	0	0	674.267	0.660596	0.660181	0.110885	5	0.022392	11	0	42.0502	7.32043e-05
2	1	0	1	0	0	676.863	0.673581	0.673157	0.190566	5	0.0227745	11	0	44.6471	0.000128281
2	1	0	1	0	0	679.46	0.686565	0.686101	0.32593	5	0.0234333	11	0	47.244	0.000223621
2	1	0	1	0	0	682.057	0.699549	0.699133	0.537712	5	0.0245399	11	0	49.8409	0.000375932
2	1	0	1	0	0	684.395	0.688762	0.688333	0.339327	5	0.0255499	11	0	52.1785	0.00023357
2	1	0	0	0	0	686.992	0.675778	0.675322	0.19197	5	0.026219	11	0	54.7754	0.000129642
2	1	0	1	0	0	689.589	0.662794	0.662369	0.102637	5	0.0265919	11	0	57.3723	6.79839e-05
2	1	0	1	0	0	692.186	0.649808	0.649396	0.0529377	5	0.0267876	11	0	59.9693	3.43775e-05
2	1	0	0	0	0	694.783	0.636824	0.636404	0.0244623	5	0.0268835	11	0	62.5662	1.55679e-05
2	1	0	1	0	0	697.379	0.623839	0.623406	0.00963262	5	0.0269258	11	0	65.1631	6.00504e-06
2	0	0	1	0	0	699.976	0.610855	0.610405	0.00155523	5	0.0269404	11	0	67.76	9.49318e-07
2	1	0	0	0	0	702.573	0.59787	0.597447	-0.00212535	5	0.0269391	11	0	0.9989	-1.26978e-06
2	1	0	1	0	0	705.17	0.584885	0.584425	-0.00453367	5	0.0269282	11	0	3.5958	-2.64959e-06
2	0	0	1	0	0	707.767	0.571901	0.571442	-0.00719672	5	0.0269117	11	0	6.1927	-4.11251e-06
2	1	0	1	0	0	710.364	0.558916	0.55849	-0.00699256	5	0.0268926	11	0	8.7896	-3.90527e-06
2	0	0	0	0	0	712.961	0.545932	0.545488	-0.00900379	5	0.026871	11	0	11.3865	-4.91146e-06
2	0	0	1	0	0	715.558	0.532947	0.532498	-0.0101745	5	0.0268477	11	0	13.9835	-5.4179e-06
2	0	0	1	0	0	718.155	0.519962	0.519498	-0.00981432	5	0.0268234	11	0	16.5804	-5.09852e-06
2	1	0	0	0	0	720.752	0.506978	0.506484	-0.00859186	5	0.0267983	11	0	19.1773	-4.35164e-06
2	0	0	1	0	0	723.349	0.493994	0.493497	-0.0104993	5	0.026772	11	0	21.7742	-5.18136e-06
2	0	0	1	0	0	725.946	0.481009	0.480551	-0.0114202	5	0.0267451	11	0	24.3711	-5.48801e-06
2	0	0	0	0	0	728.543	0.468024	0.467608	-0.0107053	5	0.0267171	11	0	26.9681	-5.00589e-06
2	0	0	1	0	0	731.139	0.455039	0.454559	-0.0121141	5	0.0266881	11	0	29.565	-5.50657e-06
2	0	0	1	0	1	733.506	0.456838	0.456325	0.0115951	6	0.0266922	11	0	1.2985	5.29115e-06
2	1	0	0	0	1	736.103	0.469822	0.469369	0.0128869	6	0.0267244	11	0	3.8954	6.04873e-06
2	1	0	1	0	1	738.7	0.482806	0.482348	0.0134366	6	0.0267569	11	0	6.4923	6.48113e-06
2	1	0	1	0	1	741.297	0.495791	0.495375	0.0135264	6	0.0267894	11	0	9.0892	6.70064e-06
2	1	0	0	0	1	743.894	0.508776	0.508317	0.0126551	6	0.0268218	11	0	11.6862	6.43282e-06
2	0	0	1	0	1	746.49	0.521761	0.521316	0.011514	6	0.0268544	11	0	14.2831	6.00241e-06
2	1	0	1	0	1	749.087	0.534745	0.53429	0.0113264	6	0.0268868	11	0	16.88	6.05156e-06
2	1	0	1	0	1	751.684	0.547729	0.547258	0.0115799	6	0.0269196	11	0	19.4769	6.33722e-06
2	1	0	1	0	1	754.281	0.560715	0.560263	0.0127438	6	0.0269535	11	0	22.0739	7.13991e-06
2	1	0	1	0	1	756.878	0.573699	0.573257	0.0147607	6	0.0269888	11	0	24.6708	8.46166e-06
2	1	0	1	0	1	759.475	0.586684	0.586241	0.0161317	6	0.0270267	11	0	27.2677	9.45707e-06
2	1	0	0	0	1	762.072	0.599668	0.599232	0.0183837	6	0.0270698	11	0	29.8646	1.10161e-05
2	1	0	1	0	1	764.669	0.612652	0.612212	0.0222299	6	0.0271224	11	0	32.4615	1.36094e-05
2	1	0	1	0	1	767.266	0.625638	0.625232	0.030274	6	0.027192	11	0	35.0585	1.89283e-05
2	1	0	0	0	1	769.863	0.638622	0.638164	0.0468918	6	0.0272918	11	0	37.6554	2.99247e-05
2	1	0	1	0	1	772.46	0.651606	0.651142	0.0764381	6	0.0274473	11	0	40.2523	4.9772e-05
2	1	0	1	0	1	775.057	0.664591	0.664107	0.13066	6	0.0277076	11	0	42.8492	8.67723e-05
2	1	0	1	0	1	777.653	0.677575	0.677193	0.226724	6	0.0281587	11	0	45.4461	0.000153536
2	1	0	1	0	1	780.25	0.690561	0.690128	0.383139	6	0.0289335	11	0	48.0431	0.000264415
2	1	0	0	0	1	782.588	0.697752	0.697273	0.483863	6	0.0300297	11	0	50.3806	0.000337384
2	1	0	1	0	1	785.185	0.684768	0.684309	0.285846	6	0.0310052	11	0	52.9775	0.000195607
2	1	0	1	0	1	787.782	0.671782	0.671384	0.159655	6	0.03157	11	0	55.5745	0.00010719
2	1	0	0	0	1	790.379	0.658798	0.658352	0.0836998	6	0.0318739	11	0	58.1714	5.51039e-05
2	1	0	1	0	1	792.976	0.645813	0.645359	0.0422626	6	0.0320295	11	0	60.7683	2.72746e-05
2	1	0	1	0	1	795.573	0.632829	0.63243	0.0195604	6	0.0321039	11	0	63.3652	1.23706e-05
2	1	0	0	0	1	798.17	0.619844	0.619421	0.00665979	6	0.0321356	11	0	65.9622	4.12521e-06
2	1	0	1	0	1	800.766	0.606859	0.606427	0.00014087	6	0.0321436	11	0	0.0999	8.54275e-08
2	1	0	1	0	1	803.363	0.593875	0.593418	-0.00330622	6	0.0321384	11	0	1.4982	-1.96197e-06
2	0	0	1	0	1	805.96	0.58089	0.580418	-0.00554764	6	0.0321255	11	0	4.0951	-3.21995e-06
2	0	0	0	0	1	808.557	0.567906	0.567439	-0.00689612	6	0.0321082	11	0	6.692	-3.91312e-06
2	0	0	1	0	1	811.154	0.554921	0.554463	-0.00816	6	0.0320879	11	0	9.289	-4.52442e-06
2	0	0	1	0	1	813.751	0.541936	0.541433	-0.00935296	6	0.0320657	11	0	11.8859	-5.064e-06
2	0	0	0	0	1	816.348	0.528952	0.528469	-0.0100604	6	0.0320421	11	0	14.4828	-5.31659e-06
2	0	0	1	0	1	818.945	0.515968	0.515482	-0.00966264	6	0.0320176	11	0	17.0797	-4.98092e-06
2	0	0	1	0	1	821.542	0.502982	0.502517	-0.00953593	6	0.0319922	11	0	19.6767	-4.79197e-06
2	1	0	0	0	1	824.139	0.489998	0.489531	-0.00946118	6	0.0319658	11	0	22.2736	-4.63154e-06
2	1	0	1	0	1	826.736	0.477013	0.476533	-0.00963124	6	0.0319385	11	0	24.8705	-4.5896e-06
2	1	0	1	0	1	829.333	0.464029	0.463583	-0.0096185	6	0.0319104	11	0	27.4674	-4.45898e-06
2	1	0	1	0	1	831.929	0.451045	0.450613	-0.0104067	6	0.0318812	11	0	30.0643	-4.68942e-06
2	0	0	1	0	0	834.296	0.460832	0.46041	0.0114888	7	0.031904	11	0	2.0975	5.28954e-06
2	0	0	1	0	0	836.893	0.473818	0.473335	0.0116897	7	0.0319363	11	0	4.6945	5.53315e-06
2	1	0	0	0	0	839.49	0.486802	0.486391	0.0121355	7	0.031969	11	0	7.2914	5.9026e-06
2	1	0	1	0	0	842.087	0.499787	0.499355	0.0126636	7	0.0320017	11	0	9.8883	6.32361e-06
2	1	0	1	0	0	844.684	0.512771	0.51231	0.0132165	7	0.032034	11	0	12.4852	6.77095e-06
2	0	0	1	0	0	847.28	0.525755	0.52529	0.0117067	7	0.0320662	11	0	15.0821	6.14944e-06
2	1	0	1	0	0	849.877	0.538741	0.538285	0.0119806	7	0.0320984	11	0	17.6791	6.44898e-06
2	1	0	1	0	0	852.474	0.551725	0.551261	0.0130054	7	0.0321315	11	0	20.276	7.16937e-06
2	1	0	1	0	0	855.071	0.564709	0.564245	0.0139402	7	0.0321656	11	0	22.8729	7.86571e-06
2	1	0	0	0	0	857.668	0.577694	0.577289	0.013437	7	0.032201	11	0	25.4698	7.75706e-06
2	1	0	1	0	0	860.265	0.590678	0.590196	0.01493	7	0.0322403	11	0	28.0667	8.81165e-06
2	1	0	1	0	0	862.862	0.603664	0.603211	0.0189218	7	0.0322861	11	0	30.6637	1.14138e-05
2	1	0	0	0	0	865.459	0.616648	0.616215	0.02515	7	0.0323425	11	0	33.2606	1.54978e-05
2	1	0	1	0	0	868.056	0.629632	0.629178	0.0356154	7	0.032419	11	0	35.8575	2.24084e-05
2	1	0	1	0	0	870.653	0.642617	0.642166	0.0541417	7	0.0325316	11	0	38.4544	3.4768e-05
2	1	0	1	0	0	873.25	0.655601	0.655165	0.0890247	7	0.0327119	11	0	41.0513	5.83258e-05
2	1	0	1	0	0	875.847	0.668587	0.668155	0.153091	7	0.0330185	11	0	43.6483	0.000102289
2	1	0	1	0	0	878.444	0.681571	0.681139	0.266793	7	0.0335531	11	0	46.2452	0.000181723
2	1	0	1	0	0	881.04	0.694555	0.694121	0.44733	7	0.0344644	11	0	48.8421	0.000310501
2	1	0	1	0	0	883.378	0.693756	0.693306	0.411658	7	0.0355921	11	0	51.1797	0.000285405
2	1	0	0	0	0	885.975	0.680772	0.680329	0.240932	7	0.0364214	11	0	53.7766	0.000163913
2	1	0	1	0	0	888.572	0.667787	0.667348	0.130887	7	0.0368932	11	0	56.3735	8.7347e-05
2	1	0	1	0	0	891.169	0.654802	0.654381	0.0674453	7	0.0371443	11	0	58.9705	4.41349e-05
2	1	0	0	0	0	893.766	0.641818	0.641379	0.0326388	7	0.0372703	11	0	61.5674	2.09338e-05
2	1	0	1	0	0	896.363	0.628833	0.628425	0.0140668	7	0.0373291	11	0	64.1643	8.83993e-06
2	0	0	1	0	0	898.96	0.615849	0.615426	0.00417767	7	0.0373517	11	0	66.7612	2.57104e-06
2	1	0	1	0	0	901.556	0.602865	0.602449	-0.000205107	7	0.0373549	11	0	0.000000000000000E+000	-1.23567e-07
2	0	0	1	0	0	904.153	0.589879	0.58937	-0.00540069	7	0.0373466	11	0	2.4971	-3.183e-06
2	1	0	1	0	0	906.75	0.576895	0.576427	-0.00536265	7	0.0373324	11	0	5.094	-3.09118e-06
2	1	0	1	0	0	909.347	0.56391	0.563489	-0.0068511	7	0.037314	11	0	7.6909	-3.86052e-06
2	0	0	0	0	0	911.944	0.550926	0.550468	-0.00909731	7	0.0372928	11	0	10.2878	-5.00778e-06
2	1	0	1	0	0	914.541	0.537942	0.537488	-0.00798078	7	0.0372704	11	0	12.8847	-4.28957e-06
2	0	0	1	0	0	917.138	0.524956	0.524512	-0.00999387	7	0.0372469	11	0	15.4817	-5.24191e-06
2	0	0	0	0	0	919.735	0.511972	0.511517	-0.00916699	7	0.037222	11	0	18.0786	-4.68908e-06
2	0	0	1	0	0	922.332	0.498988	0.49851	-0.00985982	7	0.0371967	11	0	20.6755	-4.91522e-06
2	0	0	1	0	0	924.929	0.486003	0.48559	-0.0105607	7	0.0371698	11	0	23.2724	-5.12815e-06
2	0	0	1	0	0	927.526	0.473019	0.47257	-0.0115367	7	0.0371427	11	0	25.8693	-5.4519e-06
2	0	0	1	0	0	930.123	0.460033	0.459592	-0.0118971	7	0.0371144	11	0	28.4663	-5.46779e-06
2	0	0	1	0	1	932.489	0.451844	0.451378	0.00997169	8	0.0370951	11	0	0.2997	4.501e-06
2	0	0	0	0	1	935.086	0.464828	0.464388	0.0111755	8	0.0371267	11	0	2.8966	5.18975e-06
2	1	0	1	0	1	937.683	0.477812	0.477382	0.0135508	8	0.0371594	11	0	5.4935	6.46891e-06
2	1	0	1	0	1	940.28	0.490797	0.490348	0.0135973	8	0.0371922	11	0	8.0904	6.66742e-06
2	0	0	1	0	1	942.877	0.503781	0.503328	0.01135	8	0.0372247	11	0	10.6873	5.71278e-06
2	0	0	1	0	1	945.474	0.516767	0.516273	0.0114932	8	0.0372571	11	0	13.2843	5.93364e-06
2	1	0	1	0	1	948.071	0.529751	0.529289	0.0119864	8	0.0372895	11	0	15.8812	6.34429e-06
2	1	0	1	0	1	950.667	0.542735	0.542311	0.0120318	8	0.0373222	11	0	18.4781	6.52501e-06
2	1	0	0	0	1	953.264	0.55572	0.555271	0.0121201	8	0.0373554	11	0	21.075	6.72995e-06
2	1	0	1	0	1	955.861	0.568704	0.568237	0.0124561	8	0.0373897	11	0	23.6719	7.07802e-06
2	1	0	1	0	1	958.458	0.58169	0.581225	0.0137732	8	0.0374265	11	0	26.2689	8.00532e-06
2	1	0	0	0	1	961.055	0.594674	0.594212	0.0163091	8	0.0374675	11	0	28.8658	9.69105e-06
2	1	0	1	0	1	963.652	0.607658	0.607218	0.0206872	8	0.0375156	11	0	31.4627	1.25617e-05
2	1	0	1	0	1	966.249	0.620643	0.620227	0.0277726	8	0.0375766	11	0	34.0596	1.72253e-05
2	1	0	0	0	1	968.846	0.633628	0.63317	0.038834	8	0.0376615	11	0	36.6566	2.45885e-05
2	1	0	1	0	1	971.443	0.646612	0.646147	0.0626784	8	0.0377901	11	0	39.2535	4.04994e-05
2	1	0	1	0	1	974.04	0.659597	0.659173	0.105043	8	0.0380003	11	0	41.8504	6.92412e-05
2	1	0	1	0	1	976.637	0.672581	0.672134	0.182101	8	0.038362	11	0	44.4473	0.000122396
2	1	0	1	0	1	979.234	0.685567	0.685114	0.313167	8	0.0389897	11	0	47.0443	0.000214555
2	1	0	1	0	1	981.831	0.698551	0.698132	0.518219	8	0.0400523	11	0	49.6412	0.000361785
2	1	0	1	0	1	984.168	0.689761	0.689324	0.352266	8	0.0411043	11	0	51.9787	0.000242826
2	1	0	1	0	1	986.765	0.676776	0.676357	0.196474	8	0.0418027	11	0	54.5757	0.000132886
2	1	0	0	0	1	989.362	0.663792	0.66331	0.104482	8	0.0421833	11	0	57.1726	6.93037e-05
2	1	0	1	0	1	991.959	0.650807	0.650383	0.0534386	8	0.0423816	11	0	59.7695	3.47556e-05
2	1	0	1	0	1	994.556	0.637823	0.63739	0.0261503	8	0.0424798	11	0	62.3664	1.66679e-05
2	1	0	1	0	1	997.153	0.624839	0.62439	0.0103024	8	0.0425242	11	0	64.9633	6.4327e-06
2	0	0	1	0	1	999.75	0.611853	0.611386	0.00134509	8	0.0425388	11	0	67.5603	8.22371e-07
2	1	0	1	0	1	1002.35	0.598869	0.598403	-0.00174588	8	0.0425376	11	0	0.7991	-1.04474e-06
2	0	0	1	0	1	1004.94	0.585884	0.585442	-0.0051935	8	0.0425275	11	0	3.396	-3.04049e-06
2	1	0	0	0	1	1007.54	0.5729	0.57249	-0.00621953	8	0.0425113	11	0	5.9929	-3.56062e-06
2	0	0	1	0	1	1010.14	0.559916	0.559503	-0.0085313	8	0.0424921	11	0	8.5898	-4.77329e-06
2	0	0	1	0	1	1012.73	0.54693	0.546502	-0.00819162	8	0.0424708	11	0	11.1868	-4.47673e-06
2	0	0	0	0	1	1015.33	0.533946	0.533472	-0.00950253	8	0.0424477	11	0	13.7837	-5.06934e-06
2	0	0	1	0	1	1017.93	0.520961	0.520454	-0.0105103	8	0.0424237	11	0	16.3806	-5.47014e-06
2	1	0	1	0	1	1020.52	0.507977	0.507474	-0.00869332	8	0.0423988	11	0	18.9775	-4.41163e-06
2	0	0	0	0	1	1023.12	0.494992	0.494536	-0.0105132	8	0.0423728	11	0	21.5745	-5.19915e-06
2	0	0	1	0	1	1025.72	0.482007	0.481541	-0.0111677	8	0.0423464	11	0	24.1714	-5.37769e-06
2	0	0	1	0	1	1028.32	0.469023	0.468569	-0.0118425	8	0.0423186	11	0	26.7683	-5.54902e-06
2	0	0	1	0	1	1030.91	0.456039	0.455579	-0.0107815	8	0.0422899	11	0	29.3652	-4.9118e-06
2	1	0	1	0	0	1033.28	0.455838	0.455384	0.0113866	9	0.0422892	11	0	1.0987	5.18529e-06
2	0	0	1	0	0	1035.88	0.468823	0.468376	0.0110715	9	0.0423212	11	0	3.6956	5.18562e-06
2	0	0	1	0	0	1038.47	0.481807	0.481361	0.0114974	9	0.0423538	11	0	6.2925	5.5344e-06
2	1	0	1	0	0	1041.07	0.494793	0.494351	0.0113773	9	0.0423864	11	0	8.8895	5.62439e-06
2	0	0	1	0	0	1043.67	0.507777	0.507308	0.0112376	9	0.042419	11	0	11.4864	5.70094e-06
2	0	0	1	0	0	1046.26	0.520761	0.520307	0.0110967	9	0.0424513	11	0	14.0833	5.77369e-06
2	1	0	0	0	0	1048.86	0.533746	0.53332	0.0111726	9	0.0424838	11	0	16.6802	5.95855e-06
2	0	0	1	0	0	1051.46	0.546731	0.54628	0.0120095	9	0.0425163	11	0	19.2772	6.56057e-06
2	1	0	1	0	0	1054.05	0.559716	0.559298	0.0122462	9	0.0425498	11	0	21.8741	6.84928e-06
2	1	0	0	0	0	1056.65	0.5727	0.572235	0.0125175	9	0.0425845	11	0	24.471	7.16293e-06
2	0	0	1	0	0	1059.25	0.585684	0.585218	0.014072	9	0.042622	11	0	27.0679	8.23518e-06
2	0	0	1	0	0	1061.85	0.59867	0.598234	0.0164288	9	0.0426643	11	0	29.6649	9.82827e-06
2	1	0	0	0	0	1064.44	0.611654	0.61118	0.0218579	9	0.0427155	11	0	32.2618	1.33591e-05
2	1	0	1	0	0	1067.04	0.624638	0.624215	0.0309785	9	0.0427822	11	0	34.8587	1.93372e-05
2	1	0	1	0	0	1069.64	0.637623	0.637204	0.0454901	9	0.0428775	11	0	37.4556	2.89865e-05
2	1	0	1	0	0	1072.23	0.650607	0.650173	0.0726803	9	0.043025	11	0	40.0525	4.72547e-05
2	1	0	1	0	0	1074.83	0.663593	0.663149	0.123893	9	0.0432719	11	0	42.6495	8.21592e-05
2	1	0	1	0	0	1077.43	0.676577	0.676175	0.214595	9	0.0437011	11	0	45.2464	0.000145104
2	1	0	1	0	0	1080.02	0.689561	0.689147	0.367283	9	0.0444461	11	0	47.8433	0.000253112
2	1	0	1	0	0	1082.36	0.69875	0.698321	0.510041	9	0.0455227	11	0	50.1809	0.000356172
2	1	0	0	0	0	1084.96	0.685766	0.685315	0.298929	9	0.0465497	11	0	52.7778	0.000204861
2	1	0	1	0	0	1087.56	0.672781	0.672346	0.164001	9	0.0471345	11	0	55.3747	0.000110266
2	1	0	1	0	0	1090.15	0.659797	0.659351	0.0865766	9	0.0474498	11	0	57.9716	5.70844e-05
2	1	0	1	0	0	1092.75	0.646813	0.646428	0.0440139	9	0.0476131	11	0	60.5685	2.84518e-05
2	1	0	1	0	0	1095.35	0.633827	0.633404	0.0205224	9	0.0476915	11	0	63.1655	1.2999e-05
2	1	0	1	0	0	1097.94	0.620843	0.620398	0.00819878	9	0.0477245	11	0	65.7624	5.08651e-06
2	0	0	1	0	0	1100.54	0.607859	0.607382	-6.52035e-05	9	0.0477334	11	0	0.0999	-3.96034e-08
2	1	0	0	0	0	1103.14	0.594874	0.594404	-0.00308828	9	0.0477291	11	0	1.3983	-1.83569e-06
2	1	0	1	0	0	1105.73	0.581889	0.581457	-0.00525081	9	0.0477164	11	0	3.9953	-3.05312e-06
2	0	0	1	0	0	1108.33	0.568904	0.568435	-0.0082858	9	0.0476992	11	0	6.5922	-4.70994e-06
2	0	0	0	0	0	1110.93	0.55592	0.555485	-0.00767067	9	0.0476796	11	0	9.1891	-4.26095e-06
2	0	0	1	0	0	1113.52	0.542935	0.542479	-0.00851152	9	0.0476576	11	0	11.786	-4.61732e-06
2	0	0	1	0	0	1116.12	0.52995	0.529478	-0.00978383	9	0.0476346	11	0	14.383	-5.18032e-06
2	1	0	0	0	0	1118.72	0.516966	0.516499	-0.00842976	9	0.0476103	11	0	16.9799	-4.35397e-06
2	0	0	1	0	0	1121.32	0.503981	0.503534	-0.0105852	9	0.0475852	11	0	19.5768	-5.33002e-06
2	1	0	1	0	0	1123.91	0.490997	0.490589	-0.00893624	9	0.0475594	11	0	22.1737	-4.38402e-06
2	0	0	1	0	0	1126.51	0.478013	0.477574	-0.0114122	9	0.0475324	11	0	24.7706	-5.45017e-06
2	0	0	1	0	0	1129.11	0.465027	0.464525	-0.011915	9	0.0475046	11	0	27.3676	-5.53481e-06
2	1	0	1	0	0	1131.7	0.452043	0.451543	-0.0104329	9	0.0474758	11	0	29.9645	-4.71091e-06
2	1	0	0	0	1	1134.07	0.459834	0.459353	0.0132375	10	0.0474939	11	0	1.8978	6.08067e-06
2	1	0	1	0	1	1136.67	0.472818	0.472391	0.0132505	10	0.0475261	11	0	4.4947	6.2594e-06
2	1	0	1	0	1	1139.26	0.485803	0.485313	0.0126099	10	0.0475586	11	0	7.0916	6.11975e-06
2	1	0	1	0	1	1141.86	0.498787	0.498373	0.0132225	10	0.0475913	11	0	9.6885	6.58974e-06
2	1	0	0	0	1	1144.46	0.511772	0.51127	0.0130969	10	0.0476239	11	0	12.2854	6.69608e-06
2	1	0	1	0	1	1147.05	0.524757	0.524318	0.012928	10	0.0476561	11	0	14.8824	6.77838e-06
2	0	0	1	0	1	1149.65	0.537742	0.537314	0.0117427	10	0.0476883	11	0	17.4793	6.30949e-06
2	1	0	0	0	1	1152.25	0.550726	0.550271	0.0122362	10	0.047721	11	0	20.0762	6.73324e-06
2	1	0	1	0	1	1154.84	0.56371	0.56324	0.0132649	10	0.0477549	11	0	22.6731	7.47133e-06
2	1	0	1	0	1	1157.44	0.576696	0.576239	0.0149317	10	0.0477907	11	0	25.2701	8.60422e-06
2	1	0	0	0	1	1160.04	0.58968	0.589228	0.0145757	10	0.0478293	11	0	27.867	8.58844e-06
2	1	0	1	0	1	1162.64	0.602664	0.602234	0.0178463	10	0.0478735	11	0	30.4639	1.07477e-05
2	1	0	1	0	1	1165.23	0.615649	0.615219	0.0244002	10	0.0479284	11	0	33.0608	1.50115e-05
2	1	0	1	0	1	1167.83	0.628633	0.628197	0.0329064	10	0.0480015	11	0	35.6577	2.06717e-05
2	1	0	1	0	1	1170.43	0.641619	0.641189	0.0510579	10	0.048109	11	0	38.2547	3.27378e-05
2	1	0	1	0	1	1173.02	0.654603	0.654117	0.0838368	10	0.0482804	11	0	40.8516	5.4839e-05
2	1	0	1	0	1	1175.62	0.667587	0.667106	0.145742	10	0.0485717	11	0	43.4485	9.72253e-05
2	1	0	0	0	1	1178.22	0.680572	0.680142	0.256444	10	0.0490828	11	0	46.0454	0.000174419
2	1	0	1	0	1	1180.81	0.693557	0.693108	0.431405	10	0.0499618	11	0	48.6424	0.00029901
2	1	0	1	0	1	1183.15	0.694755	0.694261	0.435135	10	0.0510994	11	0	50.9799	0.000302097
2	1	0	1	0	1	1185.75	0.681771	0.681339	0.251303	10	0.051972	11	0	53.5768	0.000171222
2	1	0	0	0	1	1188.35	0.668786	0.668333	0.137392	10	0.0524625	11	0	56.1738	9.18237e-05
2	1	0	1	0	1	1190.94	0.655801	0.65539	0.0712945	10	0.0527247	11	0	58.7707	4.67257e-05
2	1	0	1	0	1	1193.54	0.642817	0.64238	0.0352686	10	0.0528556	11	0	61.3676	2.26559e-05
2	1	0	1	0	1	1196.14	0.629833	0.629348	0.0142655	10	0.0529164	11	0	63.9645	8.97797e-06
2	0	0	0	0	1	1198.73	0.616848	0.616403	0.00380999	10	0.0529406	11	0	66.5614	2.34849e-06
2	1	0	1	0	1	1201.33	0.603863	0.603426	-0.00122027	10	0.0529445	11	0	0.000000000000000E+000	-7.36344e-07
2	1	0	1	0	1	1203.93	0.590878	0.590399	-0.00331472	10	0.0529368	11	0	2.5969	-1.95701e-06
2	0	0	0	0	1	1206.52	0.577894	0.577428	-0.00675088	10	0.0529225	11	0	5.1938	-3.89815e-06
2	0	0	1	0	1	1209.12	0.56491	0.564472	-0.00832207	10	0.0529047	11	0	7.7907	-4.69757e-06
2	0	0	1	0	1	1211.72	0.551924	0.551419	-0.00848876	10	0.0528845	11	0	10.3877	-4.68086e-06
2	0	0	0	0	1	1214.31	0.53894	0.538485	-0.00825301	10	0.0528623	11	0	12.9846	-4.44413e-06
2	1	0	1	0	1	1216.91	0.525955	0.525511	-0.00800024	10	0.0528388	11	0	15.5815	-4.20421e-06
2	1	0	1	0	1	1219.51	0.512971	0.512525	-0.00816803	10	0.0528144	11	0	18.1784	-4.18632e-06
2	1	0	1	0	1	1222.11	0.499987	0.499526	-0.00960439	10	0.0527893	11	0	20.7753	-4.79764e-06
2	0	0	1	0	1	1224.7	0.487001	0.48658	-0.0109706	10	0.052763	11	0	23.3723	-5.3381e-06
2	0	0	1	0	1	1227.3	0.474017	0.473546	-0.0116738	10	0.0527358	11	0	25.9692	-5.52806e-06
2	0	0	1	0	1	1229.9	0.461032	0.460572	-0.012149	10	0.0527078	11	0	28.5661	-5.59548e-06
2	1	0	1	0	0	1232.26	0.450844	0.45037	0.00984038	11	0.0526846	11	0	0.1549	4.43181e-06
2	0	0	1	0	0	1234.86	0.463829	0.463374	0.0110056	11	0.0527159	11	0	2.7518	5.09972e-06
2	0	0	1	0	0	1237.46	0.476813	0.476346	0.0111804	11	0.0527484	11	0	5.3487	5.32574e-06
2	0	0	1	0	0	1240.05	0.489799	0.489327	0.0114613	11	0.052781	11	0	7.9457	5.60834e-06
2	0	0	1	0	0	1242.65	0.502783	0.50229	0.0116459	11	0.0528136	11	0	10.5426	5.84965e-06
2	0	0	1	0	0	1245.25	0.515768	0.515332	0.0114037	11	0.0528459	11	0	13.1395	5.87671e-06
2	0	0	0	0	0	1247.84	0.528752	0.528283	0.0110016	11	0.052878	11	0	15.7364	5.81194e-06
2	0	0	1	0	0	1250.44	0.541736	0.541285	0.0114605	11	0.0529104	11	0	18.3333	6.20339e-06
2	0	0	1	0	0	1253.04	0.554722	0.554307	0.0119565	11	0.0529436	11	0	20.9303	6.62758e-06
2	1	0	0	0	0	1255.63	0.567706	0.567245	0.0138014	11	0.0529777	11	0	23.5272	7.82875e-06
2	1	0	1	0	0	1258.23	0.58069	0.580281	0.015376	11	0.0530136	11	0	26.1241	8.9224e-06
2	1	0	1	0	0	1260.83	0.593675	0.593196	0.0168516	11	0.0530534	11	0	28.721	9.99631e-06
2	1	0	0	0	0	1263.43	0.60666	0.606235	0.0204872	11	0.0531004	11	0	31.318	1.242e-05
2	1	0	1	0	0	1266.02	0.619645	0.619213	0.0254241	11	0.0531593	11	0	33.9149	1.57429e-05
2	1	0	1	0	0	1268.62	0.632629	0.632171	0.0361596	11	0.0532405	11	0	36.5118	2.2859e-05
2	1	0	1	0	0	1271.22	0.645613	0.645147	0.0577385	11	0.053363	11	0	39.1087	3.72499e-05
2	1	0	0	0	0	1273.81	0.658598	0.658148	0.0983162	11	0.0535631	11	0	41.7056	6.47067e-05
2	1	0	1	0	0	1276.41	0.671583	0.671154	0.173199	11	0.0539088	11	0	44.3026	0.000116243
2	1	0	1	0	0	1279.01	0.684568	0.68415	0.302256	11	0.0545134	11	0	46.8995	0.000206789
2	1	0	0	0	0	1281.6	0.697552	0.697086	0.502547	11	0.0555423	11	0	49.4964	0.000350319
2	1	0	0	0	0	1283.94	0.69076	0.690332	0.366362	11	0.056626	11	0	51.834	0.000252912
2	1	0	1	0	0	1286.54	0.677775	0.677337	0.204092	11	0.0573503	11	0	54.4309	0.000138239
2	1	0	1	0	0	1289.14	0.664791	0.664365	0.110458	11	0.0577547	11	0	57.0278	7.33841e-05
2	1	0	1	0	0	1291.73	0.651807	0.651375	0.0551872	11	0.0579637	11	0	59.6247	3.59476e-05
2	1	0	1	0	0	1294.33	0.638821	0.638394	0.0260172	11	0.0580673	11	0	62.2217	1.66092e-05
2	1	0	1	0	0	1296.93	0.625837	0.625406	0.010709	11	0.0581137	11	0	64.8186	6.69748e-06
2	1	0	1	0	0	1299.52	0.612852	0.612395	0.00305398	11	0.0581296	11	0	67.4155	1.87024e-06
2	1	0	0	0	0	1302.12	0.599868	0.599395	-0.00158495	11	0.0581288	11	0	0.2996	-9.50011e-07
2	1	0	1	0	0	1304.72	0.586884	0.586432	-0.0042626	11	0.0581187	11	0	2.8965	-2.49973e-06
2	1	0	1	0	0	1307.31	0.573898	0.57346	-0.00559891	11	0.0581034	11	0	5.4935	-3.21075e-06
2	0	0	0	0	0	1309.91	0.560914	0.560437	-0.00698443	11	0.0580846	11	0	8.0904	-3.91433e-06
2	0	0	1	0	0	1312.51	0.547929	0.547474	-0.00888799	11	0.0580633	11	0	10.6873	-4.86594e-06
2	0	0	1	0	0	1315.1	0.534945	0.534477	-0.00990099	11	0.0580406	11	0	13.2842	-5.29185e-06
2	0	0	0	0	0	1317.7	0.52196	0.521463	-0.0100164	11	0.0580168	11	0	15.8812	-5.22316e-06
2	0	0	1	0	0	1320.3	0.508975	0.508499	-0.00934811	11	0.0579922	11	0	18.4781	-4.7535e-06
2	0	0	1	0	0	1322.9	0.495991	0.495554	-0.00925941	11	0.0579665	11	0	21.075	-4.58854e-06
2	0	0	1	0	0	1325.49	0.483006	0.482551	-0.00986675	11	0.05794	11	0	23.6719	-4.76121e-06
2	0	0	0	0	0	1328.09	0.470022	0.469554	-0.0117467	11	0.0579127	11	0	26.2688	-5.51573e-06
2	0	0	1	0	0	1330.69	0.457037	0.456604	-0.012517	11	0.0578843	11	0	28.8658	-5.7153e-06
2	1	0	1	0	1	1333.05	0.454839	0.454338	0.0125378	12	0.057879	11	0	0.8989	5.69639e-06
2	1	0	1	0	1	1335.65	0.467825	0.467366	0.0134876	12	0.0579109	11	0	3.4959	6.30365e-06
2	1	0	1	0	1	1338.25	0.480809	0.480372	0.0134378	12	0.0579436	11	0	6.0928	6.45514e-06
2	1	0	1	0	1	1340.84	0.493793	0.493325	0.0127028	12	0.0579763	11	0	8.6897	6.26661e-06
2	1	0	0	0	1	1343.44	0.506778	0.506341	0.0122673	12	0.0580086	11	0	11.2866	6.21144e-06
2	0	0	1	0	1	1346.04	0.519763	0.519308	0.0109057	12	0.0580406	11	0	13.8836	5.66342e-06
2	0	0	1	0	1	1348.63	0.532748	0.532287	0.0116317	12	0.0580728	11	0	16.4805	6.19138e-06
2	1	0	0	0	1	1351.23	0.545732	0.545224	0.0122217	12	0.0581055	11	0	19.0774	6.66358e-06
2	1	0	1	0	1	1353.83	0.558716	0.558284	0.0136822	12	0.0581387	11	0	21.6743	7.63856e-06
2	1	0	1	0	1	1356.42	0.571702	0.571254	0.0145535	12	0.0581732	11	0	24.2713	8.31373e-06
2	1	0	0	0	1	1359.02	0.584686	0.584235	0.0159152	12	0.0582102	11	0	26.8682	9.29821e-06
2	1	0	1	0	1	1361.62	0.597671	0.597255	0.0182361	12	0.0582519	11	0	29.4651	1.08916e-05
2	1	0	1	0	1	1364.22	0.610655	0.610198	0.0224593	12	0.0583016	11	0	32.062	1.37046e-05
2	1	0	1	0	1	1366.81	0.623639	0.62319	0.0292149	12	0.0583656	11	0	34.6589	1.82064e-05
2	1	0	1	0	1	1369.41	0.636625	0.636162	0.0429774	12	0.0584565	11	0	37.2559	2.73406e-05
2	1	0	1	0	1	1372.01	0.649609	0.649172	0.0691889	12	0.0585974	11	0	39.8528	4.49155e-05
2	1	0	1	0	1	1374.6	0.662594	0.662209	0.118352	12	0.0588325	11	0	42.4497	7.83737e-05
2	1	0	0	0	1	1377.2	0.675578	0.675143	0.207206	12	0.0592435	11	0	45.0466	0.000139894
2	1	0	1	0	1	1379.8	0.688562	0.688109	0.355847	12	0.0599587	11	0	47.6435	0.000244862
2	1	0	1	0	1	1382.13	0.699749	0.699332	0.532902	12	0.0610086	11	0	49.9811	0.000372675
2	1	0	1	0	1	1384.73	0.686765	0.686313	0.311252	12	0.0620773	11	0	52.578	0.000213617
2	1	0	1	0	1	1387.33	0.673781	0.673346	0.172199	12	0.0626872	11	0	55.1749	0.00011595
2	1	0	1	0	1	1389.93	0.660795	0.660341	0.091363	12	0.0630191	11	0	57.7719	6.03307e-05
2	1	0	1	0	1	1392.52	0.647811	0.647349	0.0461084	12	0.0631897	11	0	60.3688	2.98482e-05
2	1	0	1	0	1	1395.12	0.634826	0.634447	0.021564	12	0.0632717	11	0	62.9657	1.36812e-05
2	1	0	0	0	1	1397.72	0.621842	0.62143	0.00848841	12	0.0633064	11	0	65.5626	5.27495e-06
2	1	0	1	0	1	1400.31	0.608857	0.608423	0.00150747	12	0.0633157	11	0	0.000000000000000E+000	9.1718e-07
2	1	0	1	0	1	1402.91	0.595872	0.595403	-0.00231325	12	0.0633117	11	0	1.1986	-1.37731e-06
2	1	0	0	0	1	1405.51	0.582888	0.582468	-0.00455463	12	0.0632995	11	0	3.7955	-2.65293e-06
2	1	0	1	0	1	1408.1	0.569903	0.569441	-0.00622077	12	0.0632825	11	0	6.3924	-3.54236e-06
2	1	0	1	0	1	1410.7	0.556919	0.556513	-0.00676455	12	0.0632628	11	0	8.9893	-3.76456e-06
2	1	0	0	0	1	1413.3	0.543934	0.543453	-0.00779319	12	0.0632413	11	0	11.5863	-4.23523e-06
2	1	0	1	0	1	1415.89	0.530949	0.530542	-0.00810319	12	0.0632182	11	0	14.1832	-4.29908e-06
2	0	0	1	0	1	1418.49	0.517965	0.517496	-0.0102662	12	0.063194	11	0	16.7801	-5.31271e-06
2	0	0	1	0	1	1421.09	0.504981	0.504553	-0.00958777	12	0.0631694	11	0	19.377	-4.83754e-06
2	0	0	1	0	1	1423.69	0.491995	0.491562	-0.00928414	12	0.0631433	11	0	21.974	-4.56373e-06
2	1	0	1	0	1	1426.28	0.479011	0.478578	-0.00961534	12	0.0631167	11	0	24.5709	-4.60169e-06
2	0	0	1	0	1	1428.88	0.466026	0.465607	-0.010957	12	0.063089	11	0	27.1678	-5.10164e-06
2	0	0	0	0	1	1431.48	0.453042	0.452555	-0.0111509	12	0.0630601	11	0	29.7647	-5.04638e-06
2	1	0	1	0	0	1433.84	0.458835	0.458357	0.0131459	13	0.0630738	11	0	1.753	6.02554e-06
2	1	0	1	0	0	1436.44	0.471819	0.471357	0.0131709	13	0.0631062	11	0	4.3499	6.20821e-06
2	1	0	0	0	0	1439.04	0.484804	0.484354	0.0134859	13	0.0631388	11	0	6.9468	6.53194e-06
2	1	0	1	0	0	1441.63	0.497789	0.497326	0.0131056	13	0.0631712	11	0	9.5438	6.51777e-06
2	1	0	1	0	0	1444.23	0.510773	0.51033	0.0126092	13	0.0632035	11	0	12.1407	6.43487e-06
2	1	0	0	0	0	1446.83	0.523758	0.523319	0.0117019	13	0.0632358	11	0	14.7376	6.12386e-06
2	1	0	1	0	0	1449.42	0.536742	0.536299	0.0124697	13	0.0632682	11	0	17.3345	6.68747e-06
2	0	0	1	0	0	1452.02	0.549728	0.549299	0.0116365	13	0.0633005	11	0	19.9315	6.39193e-06
2	1	0	0	0	0	1454.62	0.562712	0.562287	0.0120268	13	0.063334	11	0	22.5284	6.76252e-06
2	1	0	1	0	0	1457.21	0.575696	0.575255	0.0126918	13	0.0633692	11	0	25.1253	7.30101e-06
2	1	0	1	0	0	1459.81	0.588681	0.588237	0.0143727	13	0.0634071	11	0	27.7222	8.45457e-06
2	1	0	1	0	0	1462.41	0.601665	0.601259	0.0187124	13	0.0634504	11	0	30.3191	1.1251e-05
2	1	0	1	0	0	1465.01	0.614651	0.6142	0.0242153	13	0.0635034	11	0	32.9161	1.4873e-05
2	1	0	1	0	0	1467.6	0.627635	0.627189	0.0320055	13	0.0635737	11	0	35.513	2.00735e-05
2	1	0	1	0	0	1470.2	0.640619	0.640203	0.0474573	13	0.0636764	11	0	38.1099	3.03824e-05
2	1	0	0	0	0	1472.8	0.653604	0.65318	0.080372	13	0.0638396	11	0	40.7068	5.24974e-05
2	1	0	1	0	0	1475.39	0.666588	0.666109	0.14047	13	0.0641176	11	0	43.3037	9.35685e-05
2	1	0	1	0	0	1477.99	0.679574	0.679086	0.246032	13	0.0646067	11	0	45.9007	0.000167077
2	1	0	0	0	0	1480.59	0.692558	0.69212	0.419633	13	0.0654554	11	0	48.4976	0.000290436
2	1	0	0	0	0	1482.92	0.695754	0.69535	0.453746	13	0.0665968	11	0	50.8352	0.000315512
2	1	0	1	0	0	1485.52	0.682769	0.682313	0.263192	13	0.0675056	11	0	53.4321	0.000179579
2	1	0	1	0	0	1488.12	0.669785	0.669382	0.140414	13	0.0680155	11	0	56.029	9.39905e-05
2	1	0	1	0	0	1490.72	0.6568	0.656341	0.0732794	13	0.0682837	11	0	58.6259	4.80963e-05
2	1	0	0	0	0	1493.31	0.643816	0.643366	0.0359549	13	0.0684181	11	0	61.2228	2.31322e-05
2	1	0	1	0	0	1495.91	0.630831	0.630359	0.0150051	13	0.0684811	11	0	63.8198	9.4586e-06
2	1	0	1	0	0	1498.51	0.617846	0.617425	0.00485859	13	0.0685065	11	0	66.4167	2.99982e-06
2	1	0	0	0	0	1501.1	0.604862	0.604381	-0.000298122	13	0.0685108	11	0	0.1998	-1.8018e-07
2	0	0	1	0	0	1503.7	0.591877	0.591393	-0.00508148	13	0.0685037	11	0	2.3971	-3.00515e-06
2	1	0	1	0	0	1506.3	0.578892	0.578467	-0.00565107	13	0.0684899	11	0	4.9941	-3.26896e-06
2	1	0	0	0	0	1508.89	0.565908	0.565432	-0.0063405	13	0.068472	11	0	7.591	-3.58512e-06
2	1	0	1	0	0	1511.49	0.552923	0.552436	-0.0077004	13	0.0684517	11	0	10.1879	-4.25398e-06
2	0	0	1	0	0	1514.09	0.539939	0.539513	-0.00799017	13	0.0684297	11	0	12.7848	-4.3108e-06
2	1	0	1	0	0	1516.68	0.526955	0.526472	-0.00771507	13	0.0684066	11	0	15.3817	-4.06177e-06
2	0	0	1	0	0	1519.28	0.513969	0.513519	-0.00931945	13	0.0683824	11	0	17.9787	-4.78571e-06
2	0	0	1	0	0	1521.88	0.500985	0.500585	-0.0107704	13	0.0683572	11	0	20.5756	-5.39149e-06
2	0	0	1	0	0	1524.48	0.488	0.487514	-0.0111351	13	0.0683313	11	0	23.1725	-5.42852e-06
2	0	0	0	0	0	1527.07	0.475016	0.474569	-0.0114801	13	0.0683042	11	0	25.7694	-5.44809e-06
2	0	0	1	0	0	1529.67	0.462032	0.461555	-0.0110644	13	0.0682762	11	0	28.3663	-5.10684e-06
2	1	0	1	0	1	1532.08	0.450071	0.449687	0.00958732	14	0.0682497	11	0	0.000000000000000E+000	4.31129e-06
2	1	0	1	0	1	1534.63	0.462831	0.462357	0.0130529	14	0.06828	11	0	2.5521	6.03508e-06
2	1	0	1	0	1	1537.23	0.475815	0.475373	0.012556	14	0.0683125	11	0	5.149	5.96876e-06
2	0	0	1	0	1	1539.83	0.488799	0.488345	0.011677	14	0.068345	11	0	7.7459	5.70241e-06
2	1	0	0	0	1	1542.42	0.501784	0.501297	0.0127184	14	0.0683776	11	0	10.3428	6.37571e-06
2	1	0	1	0	1	1545.02	0.514768	0.514344	0.013553	14	0.06841	11	0	12.9397	6.97089e-06
2	1	0	1	0	1	1547.62	0.527754	0.527328	0.0127642	14	0.0684421	11	0	15.5367	6.73091e-06
2	1	0	0	0	1	1550.21	0.540738	0.54023	0.0131591	14	0.0684745	11	0	18.1336	7.10895e-06
2	0	0	1	0	1	1552.81	0.553722	0.553262	0.0122295	14	0.0685074	11	0	20.7305	6.76613e-06
2	1	0	1	0	1	1555.41	0.566707	0.566224	0.0138767	14	0.0685413	11	0	23.3274	7.85733e-06
2	1	0	1	0	1	1558	0.579691	0.579236	0.0146935	14	0.0685774	11	0	25.9243	8.51101e-06
2	1	0	1	0	1	1560.6	0.592676	0.592175	0.0167538	14	0.0686165	11	0	28.5213	9.92121e-06
2	1	0	1	0	1	1563.2	0.605661	0.605198	0.0192009	14	0.0686621	11	0	31.1182	1.16204e-05
2	1	0	1	0	1	1565.8	0.618645	0.618213	0.024245	14	0.0687193	11	0	33.7151	1.49886e-05
2	1	0	0	0	1	1568.39	0.63163	0.631213	0.0345714	14	0.0687971	11	0	36.312	2.18219e-05
2	1	0	1	0	1	1570.99	0.644615	0.644139	0.054654	14	0.0689137	11	0	38.909	3.52048e-05
2	1	0	1	0	1	1573.59	0.657599	0.657175	0.0937874	14	0.0691045	11	0	41.5059	6.16348e-05
2	1	0	0	0	1	1576.18	0.670584	0.670147	0.165799	14	0.0694357	11	0	44.1028	0.000111109
2	1	0	1	0	1	1578.78	0.683568	0.683201	0.289634	14	0.0700169	11	0	46.6997	0.000197878
2	1	0	1	0	1	1581.38	0.696554	0.696129	0.487841	14	0.0710094	11	0	49.2967	0.0003396
2	1	0	1	0	1	1583.71	0.691759	0.691329	0.384681	14	0.0721319	11	0	51.6342	0.000265941
2	1	0	1	0	1	1586.31	0.678774	0.678298	0.21921	14	0.0728984	11	0	54.2311	0.00014869
2	1	0	1	0	1	1588.91	0.665789	0.665344	0.118865	14	0.0733252	11	0	56.8281	7.90864e-05
2	1	0	1	0	1	1591.51	0.652805	0.652365	0.0606315	14	0.0735479	11	0	59.425	3.95539e-05
2	1	0	1	0	1	1594.1	0.63982	0.639393	0.0289796	14	0.0736565	11	0	62.0219	1.85293e-05
2	1	0	0	0	1	1596.7	0.626836	0.62644	0.0126538	14	0.0737052	11	0	64.6188	7.92687e-06
2	1	0	1	0	1	1599.3	0.613852	0.613421	0.0030689	14	0.0737222	11	0	67.2157	1.88253e-06
2	1	0	1	0	1	1601.89	0.600866	0.600418	-0.0022604	14	0.0737219	11	0	0.1998	-1.35718e-06
2	1	0	0	0	1	1604.49	0.587882	0.587441	-0.00459017	14	0.0737119	11	0	2.7967	-2.69646e-06
2	0	0	1	0	1	1607.09	0.574897	0.574444	-0.00722264	14	0.0736965	11	0	5.3936	-4.14901e-06
2	0	0	1	0	1	1609.68	0.561913	0.561482	-0.00861784	14	0.0736779	11	0	7.9905	-4.83876e-06
2	1	0	1	0	1	1612.28	0.548929	0.548484	-0.00764298	14	0.073657	11	0	10.5874	-4.19206e-06
2	0	0	1	0	1	1614.88	0.535943	0.53546	-0.00856123	14	0.0736344	11	0	13.1844	-4.5842e-06
2	0	0	1	0	1	1617.47	0.522959	0.522452	-0.00989326	14	0.0736109	11	0	15.7813	-5.16876e-06
2	0	0	1	0	1	1620.07	0.509974	0.509506	-0.00888715	14	0.0735864	11	0	18.3782	-4.52805e-06
2	0	0	0	0	1	1622.67	0.49699	0.496536	-0.0110413	14	0.0735611	11	0	20.9751	-5.4824e-06
2	1	0	1	0	1	1625.27	0.484005	0.483458	-0.0093522	14	0.073535	11	0	23.5721	-4.5214e-06
2	0	0	1	0	1	1627.86	0.47102	0.470541	-0.0111048	14	0.0735077	11	0	26.169	-5.22528e-06
2	0	0	0	0	1	1630.46	0.458036	0.457585	-0.0103706	14	0.0734801	11	0	28.7659	-4.74543e-06
2	1	0	1	0	0	1632.83	0.453841	0.453383	0.0127147	15	0.0734704	11	0	0.6992	5.76465e-06
2	0	0	1	0	0	1635.42	0.466825	0.466401	0.0117802	15	0.0735021	11	0	3.2961	5.4943e-06
2	0	0	0	0	0	1638.02	0.47981	0.479338	0.0112653	15	0.0735348	11	0	5.893	5.39988e-06
2	1	0	1	0	0	1640.62	0.492794	0.492372	0.0118891	15	0.0735678	11	0	8.4899	5.85386e-06
2	1	0	1	0	0	1643.21	0.50578	0.505365	0.0125125	15	0.0736005	11	0	11.0869	6.32338e-06
2	1	0	0	0	0	1645.81	0.518764	0.518295	0.0132944	15	0.0736328	11	0	13.6838	6.89044e-06
2	1	0	1	0	0	1648.41	0.531748	0.531292	0.0128326	15	0.0736649	11	0	16.2807	6.81784e-06
2	1	0	1	0	0	1651	0.544733	0.544312	0.0120514	15	0.0736974	11	0	18.8776	6.55972e-06
2	1	0	1	0	0	1653.6	0.557717	0.557283	0.0116172	15	0.0737307	11	0	21.4745	6.47407e-06
2	1	0	1	0	0	1656.2	0.570703	0.570254	0.0126121	15	0.0737649	11	0	24.0715	7.19208e-06
2	1	0	1	0	0	1658.79	0.583687	0.583196	0.0148922	15	0.0738014	11	0	26.6684	8.68505e-06
2	1	0	1	0	0	1661.39	0.596671	0.596182	0.0176468	15	0.0738422	11	0	29.2653	1.05207e-05
2	1	0	0	0	0	1663.99	0.609656	0.609215	0.0217475	15	0.0738909	11	0	31.8622	1.32489e-05
2	1	0	1	0	0	1666.59	0.622641	0.622203	0.0285704	15	0.0739529	11	0	34.4592	1.77766e-05
2	1	0	1	0	0	1669.18	0.635626	0.635196	0.041307	15	0.0740401	11	0	37.0561	2.6238e-05
2	1	0	0	0	0	1671.78	0.64861	0.648128	0.0656055	15	0.0741746	11	0	39.653	4.25208e-05
2	1	0	1	0	0	1674.38	0.661594	0.661173	0.112736	15	0.0743996	11	0	42.2499	7.45383e-05
2	1	0	1	0	0	1676.97	0.67458	0.674141	0.198376	15	0.0747935	11	0	44.8469	0.000133734
2	1	0	0	0	0	1679.57	0.687564	0.687111	0.344061	15	0.0754859	11	0	47.4438	0.000236408
2	1	0	1	0	0	1682.05	0.699974	0.699403	0.543235	15	0.0765881	11	0	49.9258	0.00037994
2	1	0	1	0	0	1684.5	0.687763	0.687294	0.331931	15	0.0776369	11	0	52.3783	0.000228135
2	1	0	1	0	0	1687.1	0.674779	0.674345	0.185857	15	0.0782915	11	0	54.9752	0.000125332
2	1	0	1	0	0	1689.7	0.661794	0.661369	0.0971628	15	0.0786444	11	0	57.5721	6.42605e-05
2	1	0	0	0	0	1692.3	0.64881	0.648353	0.048527	15	0.0788246	11	0	60.169	3.14627e-05
2	1	0	1	0	0	1694.89	0.635826	0.635403	0.0223621	15	0.0789102	11	0	62.7659	1.42089e-05
2	1	0	1	0	0	1697.49	0.62284	0.622371	0.00909058	15	0.0789464	11	0	65.3629	5.65772e-06
2	1	0	0	0	0	1700.09	0.609856	0.609455	0.00172233	15	0.0789568	11	0	0.000000000000000E+000	1.04968e-06
2	1	0	1	0	0	1702.68	0.596871	0.596404	-0.00226702	15	0.0789532	11	0	1.0987	-1.35206e-06
2	1	0	1	0	0	1705.28	0.583887	0.583423	-0.00425563	15	0.0789416	11	0	3.6956	-2.48284e-06
2	1	0	0	0	0	1707.88	0.570902	0.570491	-0.00592571	15	0.0789253	11	0	6.2926	-3.38057e-06
2	1	0	1	0	0	1710.47	0.557917	0.557491	-0.00769971	15	0.0789059	11	0	8.8895	-4.29252e-06
2	0	0	1	0	0	1713.07	0.544933	0.544442	-0.00932321	15	0.0788843	11	0	11.4864	-5.07595e-06
2	0	0	1	0	0	1715.67	0.531948	0.531482	-0.0099342	15	0.0788615	11	0	14.0833	-5.27985e-06
2	0	0	0	0	0	1718.26	0.518964	0.518545	-0.010219	15	0.0788376	11	0	16.6802	-5.29903e-06
2	0	0	1	0	0	1720.86	0.505979	0.505549	-0.0100519	15	0.0788128	11	0	19.2772	-5.08174e-06
2	1	0	1	0	0	1723.46	0.492994	0.492547	-0.00894908	15	0.0787872	11	0	21.8741	-4.40785e-06
2	1	0	0	0	0	1726.06	0.48001	0.479549	-0.00901181	15	0.0787608	11	0	24.471	-4.3216e-06
2	1	0	1	0	0	1728.65	0.467025	0.46657	-0.00949351	15	0.0787335	11	0	27.0679	-4.42939e-06
2	1	0	1	0	0	1731.25	0.45404	0.45359	-0.0104854	15	0.0787051	11	0	29.6649	-4.75606e-06
2	0	0	0	0	0	1732.05	0.450021	0.449573	-0.0221195	15	0.0786957	11	0	30.468	-9.94433e-06