File: ACS_Catal_2026/Figures_Na_K/main_figures/data/EC/20251112_2-148_alpha_reproducibility/20251112_2-148_005_gamma_reproducibility_Na2_03_CVA_C01.mpt
EC-Lab ASCII FILE
Nb header lines : 66

Cyclic Voltammetry Advanced

Run on channel : 1 (SN 69187)
User :
CE vs. WE compliance from -10 V to 10 V
Electrode connection : standard
Potential control : Ewe
Ewe ctrl range : min = -1.00 V, max = 1.00 V
Safety Limits :
	Do not start on E overload
Acquisition started on : 11/12/2025 20:57:12.203
Loaded Setting File :  C:\Users\User\Documents\EC-Lab\Data\Yatsuzuka\20251030_2-147_gamma_reproducibility\20251030_2-147_001_gamma1_K_1.mps
Saved on :
	File : 20251112_2-148_005_gamma_reproducibility_Na2_03_CVA_C01.mpr
	Directory : C:\Users\User\Documents\EC-Lab\Data\Yatsuzuka\20251112_2-148_alpha_reproducibility\
	Host : 192.109.209.127
Device : SP-150e (SN .003883)
Address : 192.109.209.128
EC-Lab for windows v11.52 (software)
Internet server v11.52 (firmware)
Command interpretor v11.50 (firmware)
Electrode material :
Initial state :
Electrolyte :
Comments :
Electrode surface area : 0.001 cm2
Characteristic mass : 0.001 g
Equivalent Weight : 0.000 g/eq.
Density : 0.000 g/cm3
Volume (V) : 0.001 cm3
Cycle Definition : Charge/Discharge alternance
Ei (V)              0.450
vs.                 Ref
ti (h:m:s)          0:00:10.0000
dti (s)             0.0000
dE/dt               5.000
dE/dt unit          mV/s
E1 (V)              0.700
vs.                 Ref
t1 (h:m:s)          0:00:0.0000
dt1 (s)             0.1000
Step percent        50
N                   10
E range min (V)     -1.000
E range max (V)     1.000
I Range             10 mA
I Range min         Unset
I Range max         Unset
I Range init        Unset
Bandwidth           5
E2 (V)              0.450
vs.                 Ref
t2 (h:m:s)          0:00:0.0000
dt2 (s)             0.1000
nc cycles           14
nr                  1
Reverse Scan        0
Ef (V)              0.000
vs.                 Eoc
tf (h:m:s)          0:00:0.0000
dtf (s)             0.1000

mode	ox/red	error	control changes	Ns changes	counter inc.	time/s	control/V	Ewe/V	<I>/mA	cycle number	(Q-Qo)/C	I Range	Ns	step time/s	P/W
2	0	0	0	0	0	232.127	0.449961	0.449678	-0.00152492	1	0.0000000E+000	11	0	0.000000000000000E+000	-6.85724e-07
2	1	0	1	0	0	234.779	0.463217	0.462997	0.00153955	1	4.39912e-06	11	0	2.5963	7.12806e-07
2	1	0	1	0	0	237.475	0.476699	0.476474	0.00150064	1	8.94154e-06	11	0	5.2926	7.15015e-07
2	1	0	1	0	0	240.171	0.49018	0.489946	0.00161358	1	1.34559e-05	11	0	7.9888	7.90566e-07
2	1	0	1	0	0	242.867	0.503661	0.503379	0.00152212	1	1.79266e-05	11	0	10.6851	7.66203e-07
2	0	0	1	0	0	245.564	0.517143	0.516925	0.00151169	1	2.23886e-05	11	0	13.3814	7.81431e-07
2	1	0	1	0	0	248.26	0.530624	0.530405	0.00150126	1	2.68285e-05	11	0	16.0776	7.96274e-07
2	1	0	1	0	0	250.956	0.544105	0.543826	0.00158757	1	3.12876e-05	11	0	18.7739	8.63364e-07
2	1	0	1	0	0	253.652	0.557587	0.557343	0.00160817	1	3.57705e-05	11	0	21.4702	8.96302e-07
2	1	0	1	0	0	256.349	0.571067	0.570821	0.00162673	1	4.03076e-05	11	0	24.1664	9.28569e-07
2	0	0	1	0	0	259.045	0.584549	0.584317	0.00165185	1	4.50847e-05	11	0	26.8627	9.65204e-07
2	1	0	1	0	0	261.741	0.598031	0.597802	0.00180911	1	5.01498e-05	11	0	29.559	1.08149e-06
2	1	0	1	0	0	264.437	0.611512	0.611311	0.00216751	1	5.57669e-05	11	0	32.2552	1.32502e-06
2	1	0	1	0	0	267.134	0.624993	0.624766	0.00285064	1	6.26126e-05	11	0	34.9515	1.78098e-06
2	1	0	1	0	0	269.83	0.638475	0.638259	0.00459823	1	7.25782e-05	11	0	37.6478	2.93486e-06
2	1	0	1	0	0	272.526	0.651956	0.651727	0.00901292	1	9.04849e-05	11	0	40.344	5.87396e-06
2	1	0	1	0	0	275.223	0.665437	0.665223	0.0190606	1	0.000127167	11	0	43.0403	1.26795e-05
2	1	0	0	0	0	277.919	0.678918	0.678695	0.0383367	1	0.000202267	11	0	45.7365	2.60189e-05
2	1	0	1	0	0	280.615	0.6924	0.692202	0.0705952	1	0.00034616	11	0	48.4328	4.88661e-05
2	1	0	1	0	0	283.094	0.695196	0.69495	0.0813918	1	0.000556112	11	0	50.9116	5.65632e-05
2	1	0	1	0	0	285.79	0.681715	0.681468	0.04967	1	0.000730555	11	0	53.6078	3.38485e-05
2	1	0	0	0	0	288.486	0.668233	0.668009	0.026567	1	0.000830778	11	0	56.3041	1.7747e-05
2	1	0	1	0	0	291.183	0.654751	0.654534	0.012287	1	0.000880826	11	0	59.0004	8.04224e-06
2	1	0	1	0	0	293.879	0.641271	0.641037	0.00507142	1	0.000902575	11	0	61.6966	3.25097e-06
2	1	0	0	0	0	296.575	0.627789	0.627555	0.00220847	1	0.000911374	11	0	64.3929	1.38594e-06
2	1	0	1	0	0	299.271	0.614307	0.614071	0.00112534	1	0.000915195	11	0	67.0892	6.9104e-07
2	1	0	1	0	0	301.968	0.600827	0.60057	0.000628412	1	0.00091726	11	0	69.7854	3.77405e-07
2	0	0	0	0	0	304.664	0.587345	0.58714	0.000510047	1	0.000918668	11	0	72.4817	2.99469e-07
2	1	0	1	0	0	307.36	0.573864	0.573646	0.000384844	1	0.000919643	11	0	75.1779	2.20764e-07
2	1	0	1	0	0	310.056	0.560382	0.560185	0.000353815	1	0.000920343	11	0	77.8742	1.98202e-07
2	1	0	1	0	0	312.753	0.546902	0.546698	0.000311416	1	0.000920857	11	0	80.5704	1.7025e-07
2	1	0	1	0	0	315.449	0.53342	0.533203	0.000320238	1	0.00092127	11	0	83.2667	1.70752e-07
2	1	0	1	0	0	318.145	0.519939	0.519734	0.000248753	1	0.000921581	11	0	0.000000000000000E+000	1.29285e-07
2	0	0	1	0	0	320.841	0.506458	0.506269	0.000140099	1	0.00092178	11	0	0.0998	7.0928e-08
2	1	0	1	0	0	323.538	0.492976	0.492798	0.000146847	1	0.000921958	11	0	0.0999	7.23657e-08
2	0	0	1	0	0	326.234	0.479494	0.479252	0.000116877	1	0.000922126	11	0	0.000000000000000E+000	5.60133e-08
2	0	0	1	0	0	328.93	0.466014	0.465788	7.79444e-05	1	0.000922252	11	0	0.000000000000000E+000	3.63056e-08
2	0	0	1	0	0	331.627	0.452532	0.452274	6.42373e-05	1	0.000922278	11	0	0.000000000000000E+000	2.90528e-08
2	1	0	1	0	1	334.18	0.460272	0.460032	0.00129634	2	0.000925083	11	0	1.9973	5.96359e-07
2	1	0	1	0	1	336.876	0.473753	0.473495	0.00129165	2	0.000928908	11	0	4.6935	6.11588e-07
2	0	0	1	0	1	339.573	0.487234	0.487042	0.001286	2	0.000932637	11	0	7.3898	6.26335e-07
2	1	0	0	0	1	342.269	0.500715	0.500448	0.0012108	2	0.00093639	11	0	10.086	6.05944e-07
2	1	0	1	0	1	344.965	0.514197	0.513976	0.00133068	2	0.000940207	11	0	12.7823	6.83939e-07
2	1	0	1	0	1	347.661	0.527678	0.52751	0.00128859	2	0.000943983	11	0	15.4785	6.79744e-07
2	1	0	0	0	1	350.358	0.541159	0.540962	0.00125368	2	0.000947754	11	0	18.1748	6.78192e-07
2	1	0	1	0	1	353.054	0.554641	0.55443	0.0012526	2	0.000951509	11	0	20.8711	6.94479e-07
2	0	0	1	0	1	355.75	0.568122	0.567921	0.00135925	2	0.000955379	11	0	23.5673	7.71949e-07
2	1	0	0	0	1	358.447	0.581603	0.581323	0.00131	2	0.000959339	11	0	26.2636	7.61535e-07
2	1	0	1	0	1	361.143	0.595085	0.594858	0.00149546	2	0.000963492	11	0	28.9599	8.89584e-07
2	1	0	1	0	1	363.839	0.608565	0.608369	0.00176819	2	0.000968146	11	0	31.6561	1.07571e-06
2	1	0	0	0	1	366.535	0.622047	0.621775	0.00227135	2	0.000973805	11	0	34.3524	1.41227e-06
2	1	0	1	0	1	369.232	0.635529	0.635333	0.00361771	2	0.000981721	11	0	37.0487	2.29845e-06
2	1	0	1	0	1	371.928	0.64901	0.648773	0.00693066	2	0.000995398	11	0	39.7449	4.49642e-06
2	1	0	0	0	1	374.624	0.662491	0.662269	0.0145065	2	0.00102317	11	0	42.4412	9.6072e-06
2	1	0	1	0	1	377.32	0.675973	0.675808	0.030106	2	0.00108131	11	0	45.1375	2.03459e-05
2	1	0	1	0	1	380.017	0.689454	0.68925	0.0573974	2	0.0011968	11	0	47.8337	3.95611e-05
2	1	0	1	0	1	382.485	0.698192	0.697946	0.0834368	2	0.00138112	11	0	50.3025	5.82344e-05
2	1	0	0	0	1	385.182	0.68471	0.684518	0.0512184	2	0.00156036	11	0	52.9988	3.50599e-05
2	1	0	1	0	1	387.878	0.671229	0.670989	0.027748	2	0.00166461	11	0	55.695	1.86186e-05
2	1	0	1	0	1	390.574	0.657748	0.657529	0.0131296	2	0.00171773	11	0	58.3913	8.63308e-06
2	1	0	1	0	1	393.27	0.644267	0.644063	0.00557402	2	0.00174128	11	0	61.0875	3.59002e-06
2	1	0	1	0	1	395.967	0.630785	0.630596	0.00225272	2	0.00175076	11	0	63.7838	1.42055e-06
2	1	0	1	0	1	398.663	0.617303	0.617131	0.00105396	2	0.0017547	11	0	66.4801	6.50433e-07
2	1	0	1	0	1	401.359	0.603823	0.603627	0.000630365	2	0.00175665	11	0	69.1763	3.80505e-07
2	0	0	1	0	1	404.056	0.590341	0.590061	0.000466534	2	0.00175774	11	0	71.8726	2.75283e-07
2	1	0	1	0	1	406.752	0.576859	0.576621	0.000353605	2	0.00175852	11	0	74.5689	2.03896e-07
2	1	0	1	0	1	409.448	0.563379	0.563124	0.000257569	2	0.00175909	11	0	77.2651	1.45043e-07
2	1	0	1	0	1	412.144	0.549897	0.549643	0.000177475	2	0.00175948	11	0	79.9614	9.7548e-08
2	1	0	1	0	1	414.841	0.536415	0.536189	0.000169959	2	0.00175976	11	0	0.3995	9.11302e-08
2	0	0	1	0	1	417.537	0.522935	0.522694	0.000138964	2	0.00175997	11	0	0.2996	7.26356e-08
2	1	0	1	0	1	420.233	0.509453	0.509263	0.00018447	2	0.00176014	11	0	0.0999	9.39437e-08
2	1	0	0	0	1	422.929	0.495972	0.49577	0.000140557	2	0.00176023	11	0	0.000000000000000E+000	6.9684e-08
2	1	0	1	0	1	425.626	0.482491	0.48225	7.55638e-05	2	0.00176031	11	0	0.0999	3.64406e-08
2	1	0	1	0	1	428.322	0.46901	0.468784	2.46158e-05	2	0.0017603	11	0	0.000000000000000E+000	1.15395e-08
2	0	0	0	0	1	431.018	0.455528	0.455284	2.23437e-05	2	0.00176023	11	0	0.000000000000000E+000	1.01727e-08
2	1	0	1	0	0	433.572	0.457276	0.457064	0.00117974	3	0.00176206	11	0	1.3981	5.39214e-07
2	1	0	1	0	0	436.268	0.470756	0.470523	0.00117633	3	0.00176566	11	0	4.0943	5.53488e-07
2	1	0	0	0	0	438.964	0.484238	0.483979	0.00124852	3	0.00176929	11	0	6.7906	6.04259e-07
2	1	0	1	0	0	441.661	0.49772	0.497443	0.00123346	3	0.00177287	11	0	9.4869	6.13576e-07
2	1	0	1	0	0	444.357	0.511201	0.510961	0.00130977	3	0.00177646	11	0	12.1831	6.69244e-07
2	1	0	0	0	0	447.053	0.524682	0.524442	0.0012603	3	0.00178006	11	0	14.8794	6.60956e-07
2	1	0	1	0	0	449.749	0.538164	0.537915	0.00121029	3	0.00178372	11	0	17.5757	6.51033e-07
2	1	0	1	0	0	452.446	0.551645	0.551424	0.00123366	3	0.0017874	11	0	20.2719	6.80268e-07
2	0	0	0	0	0	455.142	0.565126	0.564975	0.00125471	3	0.00179114	11	0	22.9682	7.08879e-07
2	1	0	1	0	0	457.838	0.578607	0.578346	0.00132946	3	0.00179496	11	0	25.6644	7.6889e-07
2	0	0	1	0	0	460.534	0.592089	0.591899	0.00144616	3	0.00179901	11	0	28.3607	8.55981e-07
2	1	0	1	0	0	463.231	0.60557	0.605356	0.00168148	3	0.00180347	11	0	31.0569	1.01789e-06
2	1	0	1	0	0	465.927	0.619051	0.618833	0.00207186	3	0.00180869	11	0	33.7532	1.28214e-06
2	1	0	1	0	0	468.623	0.632533	0.632331	0.00308843	3	0.00181569	11	0	36.4495	1.95291e-06
2	1	0	1	0	0	471.319	0.646014	0.645821	0.00562794	3	0.00182707	11	0	39.1457	3.63465e-06
2	1	0	1	0	0	474.016	0.659495	0.659267	0.0117151	3	0.00184951	11	0	41.842	7.72337e-06
2	1	0	1	0	0	476.712	0.672977	0.672748	0.0246064	3	0.00189665	11	0	44.5383	1.65539e-05
2	1	0	1	0	0	479.408	0.686457	0.686253	0.0482642	3	0.00199234	11	0	47.2345	3.31215e-05
2	1	0	1	0	0	482.085	0.699839	0.699551	0.0861398	3	0.00216853	11	0	49.9108	6.02591e-05
2	1	0	1	0	0	484.573	0.687706	0.687473	0.0555028	3	0.0023426	11	0	52.3996	3.81567e-05
2	1	0	1	0	0	487.27	0.674224	0.673986	0.0308595	3	0.00245656	11	0	55.0959	2.07989e-05
2	1	0	1	0	0	489.966	0.660744	0.660484	0.0150369	3	0.00251615	11	0	57.7921	9.93162e-06
2	1	0	1	0	0	492.662	0.647262	0.647051	0.00648618	3	0.00254341	11	0	60.4884	4.19689e-06
2	1	0	1	0	0	495.358	0.63378	0.633576	0.00263707	3	0.00255457	11	0	63.1847	1.67078e-06
2	1	0	1	0	0	498.055	0.6203	0.620063	0.00123412	3	0.00255911	11	0	65.8809	7.65233e-07
2	0	0	1	0	0	500.751	0.606818	0.606617	0.00068631	3	0.00256125	11	0	68.5772	4.16327e-07
2	1	0	0	0	0	503.447	0.593337	0.593112	0.000383099	3	0.00256244	11	0	71.2734	2.27221e-07
2	1	0	1	0	0	506.143	0.579856	0.579584	0.000275647	3	0.00256321	11	0	73.9697	1.59761e-07
2	1	0	1	0	0	508.84	0.566375	0.566134	0.000301774	3	0.00256375	11	0	76.6659	1.70845e-07
2	1	0	0	0	0	511.536	0.552893	0.55266	0.00026568	3	0.00256418	11	0	79.3622	1.46831e-07
2	0	0	1	0	0	514.232	0.539411	0.539165	0.000134798	3	0.00256457	11	0	0.000000000000000E+000	7.26781e-08
2	0	0	1	0	0	516.928	0.525931	0.525767	0.00012676	3	0.00256484	11	0	0.2996	6.66465e-08
2	0	0	0	0	0	519.625	0.512449	0.512224	0.000166505	3	0.00256498	11	0	0.1997	8.52878e-08
2	1	0	1	0	0	522.321	0.498968	0.49873	0.000173354	3	0.00256505	11	0	0.0999	8.64569e-08
2	1	0	1	0	0	525.017	0.485487	0.485259	0.000126658	3	0.00256511	11	0	0.0998	6.14622e-08
2	0	0	0	0	0	527.714	0.472005	0.471779	0.000130428	3	0.00256505	11	0	0.1997	6.1533e-08
2	0	0	1	0	0	530.41	0.458523	0.458286	4.84787e-05	3	0.00256496	11	0	0.0999	2.22171e-08
2	1	0	1	0	1	532.963	0.45428	0.454079	0.00120461	4	0.00256588	11	0	0.7989	5.46987e-07
2	1	0	0	0	1	535.66	0.467761	0.467519	0.00120126	4	0.00256947	11	0	3.4952	5.61609e-07
2	1	0	1	0	1	538.356	0.481243	0.481048	0.00131814	4	0.00257315	11	0	6.1915	6.34088e-07
2	1	0	1	0	1	541.052	0.494724	0.494514	0.00126123	4	0.00257677	11	0	8.8877	6.23695e-07
2	1	0	0	0	1	543.749	0.508205	0.507933	0.00126914	4	0.0025804	11	0	11.584	6.44638e-07
2	1	0	1	0	1	546.445	0.521686	0.52147	0.00117416	4	0.00258402	11	0	14.2802	6.12289e-07
2	1	0	1	0	1	549.141	0.535168	0.534948	0.0012195	4	0.00258762	11	0	16.9765	6.52367e-07
2	1	0	1	0	1	551.837	0.548649	0.548421	0.00123812	4	0.00259117	11	0	19.6727	6.79011e-07
2	1	0	1	0	1	554.534	0.56213	0.561905	0.00128917	4	0.00259477	11	0	22.369	7.24389e-07
2	0	0	1	0	1	557.23	0.575612	0.575325	0.00127361	4	0.00259852	11	0	25.0653	7.32739e-07
2	1	0	1	0	1	559.926	0.589093	0.588868	0.00139573	4	0.00260248	11	0	27.7615	8.219e-07
2	1	0	1	0	1	562.622	0.602574	0.602307	0.00156247	4	0.00260666	11	0	30.4578	9.41085e-07
2	1	0	1	0	1	565.319	0.616056	0.615817	0.00182155	4	0.00261147	11	0	33.1541	1.12174e-06
2	1	0	1	0	1	568.015	0.629537	0.629271	0.00259981	4	0.00261772	11	0	35.8503	1.63598e-06
2	1	0	1	0	1	570.711	0.643018	0.642784	0.00466075	4	0.00262739	11	0	38.5466	2.99586e-06
2	1	0	0	0	1	573.407	0.656499	0.656289	0.00953063	4	0.0026458	11	0	41.2428	6.25485e-06
2	1	0	1	0	1	576.104	0.669981	0.669766	0.0203234	4	0.00268462	11	0	43.9391	1.36119e-05
2	1	0	1	0	1	578.8	0.683461	0.683266	0.0407681	4	0.0027647	11	0	46.6353	2.78554e-05
2	1	0	0	0	1	581.496	0.696943	0.696702	0.0749483	4	0.00291758	11	0	49.3316	5.22166e-05
2	1	0	0	0	1	583.965	0.690702	0.6905	0.0610801	4	0.00310006	11	0	51.8004	4.21758e-05
2	1	0	1	0	1	586.661	0.677221	0.677043	0.0347955	4	0.00322678	11	0	54.4967	2.35581e-05
2	1	0	1	0	1	589.357	0.66374	0.663501	0.0172051	4	0.00329445	11	0	57.1929	1.14156e-05
2	1	0	0	0	1	592.054	0.650258	0.650048	0.0074649	4	0.00332597	11	0	59.8892	4.85254e-06
2	1	0	1	0	1	594.75	0.636777	0.636554	0.00309585	4	0.00333902	11	0	62.5855	1.97067e-06
2	1	0	1	0	1	597.446	0.623296	0.623082	0.00132435	4	0.00334423	11	0	65.2817	8.25178e-07
2	0	0	0	0	1	600.143	0.609814	0.609596	0.00064206	4	0.00334655	11	0	67.978	3.91397e-07
2	1	0	1	0	1	602.839	0.596332	0.596105	0.000429894	4	0.00334782	11	0	70.6743	2.56262e-07
2	1	0	1	0	1	605.535	0.582852	0.582584	0.00034828	4	0.00334863	11	0	73.3705	2.02902e-07
2	1	0	0	0	1	608.231	0.56937	0.569127	0.000308384	4	0.0033492	11	0	76.0668	1.75509e-07
2	1	0	1	0	1	610.928	0.555888	0.555637	0.000247342	4	0.00334967	11	0	78.7631	1.37432e-07
2	0	0	1	0	1	613.624	0.542408	0.542141	0.00014838	4	0.00334999	11	0	0.000000000000000E+000	8.04428e-08
2	0	0	0	0	1	616.32	0.528926	0.528667	0.000154062	4	0.00335022	11	0	0.1997	8.14474e-08
2	1	0	1	0	1	619.016	0.515445	0.515173	0.000214693	4	0.00335034	11	0	0.0998	1.10604e-07
2	1	0	1	0	1	621.713	0.501964	0.501739	6.92174e-05	4	0.00335044	11	0	0.0999	3.47291e-08
2	0	0	1	0	1	624.409	0.488483	0.488279	9.73638e-05	4	0.0033505	11	0	0.000000000000000E+000	4.75407e-08
2	1	0	1	0	1	627.105	0.475001	0.474757	0.000152442	4	0.0033505	11	0	0.0999	7.2373e-08
2	1	0	1	0	1	629.801	0.461519	0.461294	4.97635e-05	4	0.00335044	11	0	0.1998	2.29556e-08
2	1	0	1	0	0	632.355	0.451284	0.451079	0.00113349	5	0.00335062	11	0	0.2818	5.11295e-07
2	1	0	1	0	0	635.051	0.464765	0.464463	0.00117144	5	0.00335414	11	0	2.9781	5.44089e-07
2	1	0	1	0	0	637.748	0.478247	0.478056	0.00115697	5	0.00335771	11	0	5.6744	5.53098e-07
2	1	0	1	0	0	640.444	0.491728	0.491535	0.00128336	5	0.00336133	11	0	8.3706	6.30816e-07
2	1	0	1	0	0	643.14	0.505209	0.50496	0.00118631	5	0.00336488	11	0	11.0669	5.99039e-07
2	0	0	1	0	0	645.836	0.518691	0.518496	0.0012474	5	0.00336848	11	0	13.7632	6.46771e-07
2	0	0	1	0	0	648.533	0.532172	0.53195	0.00123167	5	0.00337211	11	0	16.4594	6.55188e-07
2	1	0	1	0	0	651.229	0.545653	0.545425	0.0012363	5	0.00337572	11	0	19.1557	6.7431e-07
2	1	0	1	0	0	653.925	0.559135	0.558918	0.00127903	5	0.00337933	11	0	21.852	7.14871e-07
2	1	0	1	0	0	656.621	0.572616	0.5724	0.00116792	5	0.00338297	11	0	24.5482	6.68514e-07
2	1	0	1	0	0	659.318	0.586097	0.585869	0.00136024	5	0.00338674	11	0	27.2444	7.96925e-07
2	1	0	0	0	0	662.014	0.599578	0.599339	0.00147463	5	0.00339076	11	0	29.9407	8.83804e-07
2	1	0	1	0	0	664.71	0.61306	0.612813	0.00179239	5	0.00339532	11	0	32.637	1.0984e-06
2	1	0	1	0	0	667.406	0.626541	0.626362	0.00239222	5	0.00340103	11	0	35.3332	1.4984e-06
2	1	0	0	0	0	670.103	0.640022	0.639773	0.00396535	5	0.00340949	11	0	38.0295	2.53692e-06
2	1	0	1	0	0	672.799	0.653504	0.653246	0.00795241	5	0.00342504	11	0	40.7258	5.19488e-06
2	1	0	1	0	0	675.495	0.666985	0.666788	0.0169565	5	0.00345751	11	0	43.422	1.13064e-05
2	1	0	0	0	0	678.192	0.680466	0.680276	0.0349026	5	0.0035254	11	0	46.1183	2.37434e-05
2	1	0	1	0	0	680.888	0.693948	0.693673	0.0654699	5	0.00365789	11	0	48.8146	4.54147e-05
2	1	0	1	0	0	683.357	0.693698	0.693471	0.0675095	5	0.00384278	11	0	51.2834	4.68159e-05
2	1	0	1	0	0	686.053	0.680217	0.680002	0.0395003	5	0.00398477	11	0	53.9796	2.68603e-05
2	1	0	0	0	0	688.749	0.666735	0.666492	0.0202736	5	0.00406299	11	0	56.6759	1.35122e-05
2	1	0	1	0	0	691.445	0.653253	0.653051	0.00896141	5	0.0041002	11	0	59.3722	5.85226e-06
2	1	0	1	0	0	694.142	0.639773	0.639545	0.00358508	5	0.00411581	11	0	62.0684	2.29282e-06
2	1	0	0	0	0	696.838	0.626291	0.626072	0.00159089	5	0.004122	11	0	64.7647	9.9601e-07
2	1	0	1	0	0	699.534	0.61281	0.612632	0.000768112	5	0.0041247	11	0	67.4609	4.7057e-07
2	1	0	1	0	0	702.23	0.599329	0.599089	0.000449896	5	0.00412607	11	0	70.1572	2.69528e-07
2	1	0	1	0	0	704.927	0.585848	0.585616	0.000360754	5	0.0041269	11	0	72.8534	2.11263e-07
2	1	0	1	0	0	707.623	0.572366	0.572142	0.000311623	5	0.00412753	11	0	75.5497	1.78293e-07
2	1	0	1	0	0	710.319	0.558885	0.558665	0.000310221	5	0.00412796	11	0	78.246	1.73309e-07
2	0	0	1	0	0	713.015	0.545404	0.545193	0.000226313	5	0.00412835	11	0	80.9422	1.23384e-07
2	1	0	1	0	0	715.712	0.531922	0.531692	0.000193379	5	0.00412869	11	0	0.2996	1.02818e-07
2	1	0	1	0	0	718.408	0.51844	0.518188	0.000199674	5	0.00412895	11	0	0.6991	1.03469e-07
2	0	0	1	0	0	721.104	0.50496	0.504674	0.000211537	5	0.00412913	11	0	0.000000000000000E+000	1.06757e-07
2	0	0	1	0	0	723.801	0.491478	0.491271	0.000134993	5	0.00412929	11	0	0.000000000000000E+000	6.6318e-08
2	1	0	1	0	0	726.497	0.477996	0.477742	0.000105082	5	0.00412936	11	0	0.1998	5.02023e-08
2	1	0	1	0	0	729.193	0.464516	0.464232	0.000120413	5	0.00412937	11	0	0.0998	5.58995e-08
2	0	0	1	0	0	731.889	0.451034	0.450851	1.04161e-05	5	0.00412934	11	0	0.1997	4.69613e-09
2	1	0	1	0	1	734.443	0.46177	0.461502	0.00122603	6	0.00413253	11	0	2.2969	5.65816e-07
2	1	0	1	0	1	737.139	0.475251	0.475041	0.00131223	6	0.00413623	11	0	4.9931	6.23363e-07
2	1	0	1	0	1	739.835	0.488732	0.488487	0.00122473	6	0.00413988	11	0	7.6893	5.98266e-07
2	1	0	0	0	1	742.532	0.502213	0.501907	0.00125994	6	0.00414349	11	0	10.3856	6.32372e-07
2	1	0	1	0	1	745.228	0.515695	0.515454	0.00123927	6	0.0041472	11	0	13.0819	6.38789e-07
2	1	0	1	0	1	747.924	0.529175	0.529003	0.00127601	6	0.00415087	11	0	15.7781	6.75011e-07
2	1	0	0	0	1	750.621	0.542657	0.542451	0.00128114	6	0.00415453	11	0	18.4744	6.94956e-07
2	0	0	1	0	1	753.317	0.556139	0.555901	0.00127553	6	0.00415819	11	0	21.1707	7.0907e-07
2	1	0	1	0	1	756.013	0.56962	0.569434	0.00128443	6	0.00416195	11	0	23.8669	7.31396e-07
2	1	0	0	0	1	758.709	0.583101	0.582862	0.00140579	6	0.0041658	11	0	26.5632	8.19382e-07
2	1	0	1	0	1	761.406	0.596583	0.596391	0.00143126	6	0.00416986	11	0	29.2595	8.53591e-07
2	1	0	1	0	1	764.102	0.610064	0.609874	0.00162022	6	0.00417438	11	0	31.9557	9.88128e-07
2	1	0	0	0	1	766.798	0.623545	0.623376	0.00227414	6	0.00417981	11	0	34.652	1.41765e-06
2	1	0	1	0	1	769.494	0.637026	0.636783	0.00350334	6	0.00418747	11	0	37.3482	2.23087e-06
2	1	0	1	0	1	772.191	0.650508	0.650319	0.0066982	6	0.00420083	11	0	40.0445	4.35597e-06
2	1	0	1	0	1	774.887	0.663989	0.663816	0.0142226	6	0.00422802	11	0	42.7407	9.44121e-06
2	1	0	1	0	1	777.583	0.67747	0.677243	0.0297668	6	0.00428532	11	0	45.437	2.01594e-05
2	1	0	1	0	1	780.279	0.690952	0.690722	0.0571723	6	0.00439982	11	0	48.1333	3.94902e-05
2	1	0	1	0	1	782.748	0.696693	0.696452	0.0749058	6	0.0045789	11	0	50.6021	5.21683e-05
2	1	0	1	0	1	785.444	0.683213	0.682992	0.0449393	6	0.00473816	11	0	53.2983	3.06932e-05
2	1	0	1	0	1	788.141	0.669731	0.669526	0.0236624	6	0.00482845	11	0	55.9946	1.58426e-05
2	1	0	1	0	1	790.837	0.65625	0.656026	0.0109027	6	0.00487299	11	0	58.6909	7.15243e-06
2	1	0	1	0	1	793.533	0.642769	0.642551	0.00447547	6	0.00489215	11	0	61.3871	2.87572e-06
2	1	0	1	0	1	796.23	0.629287	0.628979	0.00177164	6	0.00489976	11	0	64.0834	1.11433e-06
2	0	0	1	0	1	798.926	0.615806	0.615582	0.000992781	6	0.00490302	11	0	66.7797	6.11139e-07
2	1	0	1	0	1	801.622	0.602325	0.60211	0.000591391	6	0.00490467	11	0	69.4759	3.56082e-07
2	0	0	1	0	1	804.318	0.588843	0.588611	0.000322962	6	0.00490561	11	0	72.1722	1.90099e-07
2	1	0	1	0	1	807.015	0.575361	0.575095	0.000313063	6	0.00490631	11	0	74.8685	1.80041e-07
2	1	0	1	0	1	809.711	0.561881	0.561684	0.000242871	6	0.00490679	11	0	77.5647	1.36417e-07
2	1	0	1	0	1	812.407	0.548399	0.548146	0.000280185	6	0.00490713	11	0	80.261	1.53582e-07
2	0	0	0	0	1	815.103	0.534918	0.53468	0.000145661	6	0.00490746	11	0	0.000000000000000E+000	7.78818e-08
2	1	0	1	0	1	817.8	0.521437	0.521208	0.000176613	6	0.00490772	11	0	0.1997	9.20521e-08
2	1	0	1	0	1	820.496	0.507956	0.507723	0.00018801	6	0.00490794	11	0	0.0998	9.54568e-08
2	1	0	0	0	1	823.192	0.494474	0.494307	0.000131459	6	0.00490813	11	0	0.000000000000000E+000	6.49808e-08
2	1	0	1	0	1	825.888	0.480993	0.480794	0.000108473	6	0.00490824	11	0	0.1998	5.21532e-08
2	1	0	1	0	1	828.585	0.467512	0.467259	0.000117587	6	0.00490826	11	0	0.000000000000000E+000	5.49437e-08
2	0	0	0	0	1	831.281	0.45403	0.453827	8.89023e-05	6	0.00490822	11	0	0.1997	4.03463e-08
2	1	0	1	0	0	833.835	0.458774	0.458538	0.00129773	7	0.00491051	11	0	1.6977	5.9506e-07
2	1	0	1	0	0	836.531	0.472255	0.471993	0.00121195	7	0.00491419	11	0	4.3939	5.72032e-07
2	1	0	0	0	0	839.227	0.485736	0.485524	0.00117232	7	0.00491787	11	0	7.0902	5.69189e-07
2	0	0	1	0	0	841.923	0.499218	0.498988	0.00128535	7	0.00492149	11	0	9.7865	6.41373e-07
2	1	0	1	0	0	844.62	0.512699	0.512454	0.00128244	7	0.00492509	11	0	12.4827	6.5719e-07
2	0	0	0	0	0	847.316	0.52618	0.525966	0.00114905	7	0.00492864	11	0	15.179	6.04363e-07
2	0	0	1	0	0	850.012	0.539662	0.539406	0.00125612	7	0.00493218	11	0	17.8753	6.7756e-07
2	1	0	1	0	0	852.708	0.553143	0.552932	0.00122443	7	0.00493575	11	0	20.5715	6.77026e-07
2	1	0	0	0	0	855.405	0.566624	0.566408	0.0012768	7	0.00493932	11	0	23.2678	7.23187e-07
2	1	0	1	0	0	858.101	0.580105	0.579858	0.00134612	7	0.004943	11	0	25.964	7.80559e-07
2	1	0	1	0	0	860.797	0.593587	0.59331	0.00135837	7	0.00494685	11	0	28.6603	8.05936e-07
2	0	0	1	0	0	863.493	0.607068	0.606849	0.00151653	7	0.00495113	11	0	31.3565	9.20307e-07
2	1	0	1	0	0	866.19	0.620549	0.620262	0.00202293	7	0.00495616	11	0	34.0528	1.25475e-06
2	1	0	1	0	0	868.886	0.634031	0.633838	0.00303813	7	0.00496298	11	0	36.7491	1.92568e-06
2	1	0	1	0	0	871.582	0.647512	0.647304	0.00560051	7	0.00497441	11	0	39.4453	3.62524e-06
2	1	0	1	0	0	874.279	0.660993	0.660775	0.0119087	7	0.00499728	11	0	42.1416	7.86899e-06
2	1	0	1	0	0	876.975	0.674475	0.674279	0.0253332	7	0.00504573	11	0	44.8379	1.70817e-05
2	1	0	1	0	0	879.671	0.687956	0.687689	0.0498789	7	0.00514439	11	0	47.5341	3.43012e-05
2	1	0	1	0	0	882.14	0.69969	0.699423	0.0824466	7	0.00530856	11	0	50.0029	5.76651e-05
2	1	0	1	0	0	884.836	0.686208	0.68602	0.0507544	7	0.00548595	11	0	52.6992	3.48185e-05
2	1	0	1	0	0	887.532	0.672726	0.672475	0.0275199	7	0.005589	11	0	55.3955	1.85064e-05
2	1	0	1	0	0	890.229	0.659246	0.658998	0.0129843	7	0.0056414	11	0	58.0917	8.55663e-06
2	1	0	1	0	0	892.925	0.645764	0.645571	0.00546123	7	0.00566465	11	0	60.788	3.52561e-06
2	1	0	0	0	0	895.621	0.632283	0.632042	0.00224243	7	0.00567398	11	0	63.4842	1.41731e-06
2	1	0	1	0	0	898.317	0.618802	0.618509	0.00106071	7	0.00567774	11	0	66.1805	6.5606e-07
2	0	0	1	0	0	901.014	0.605321	0.605108	0.000563157	7	0.00567958	11	0	68.8767	3.40771e-07
2	0	0	0	0	0	903.71	0.591839	0.591617	0.000403068	7	0.00568068	11	0	71.573	2.38462e-07
2	1	0	1	0	0	906.406	0.578358	0.578118	0.000351645	7	0.00568139	11	0	74.2693	2.03292e-07
2	1	0	1	0	0	909.102	0.564877	0.564689	0.000243641	7	0.00568192	11	0	76.9655	1.37581e-07
2	0	0	0	0	0	911.799	0.551395	0.551123	0.000220473	7	0.00568234	11	0	79.6618	1.21508e-07
2	1	0	1	0	0	914.495	0.537913	0.537689	0.000220617	7	0.00568267	11	0	82.3581	1.18624e-07
2	0	0	1	0	0	917.191	0.524433	0.524236	0.000192828	7	0.00568294	11	0	0.699	1.01088e-07
2	0	0	0	0	0	919.888	0.510951	0.510741	0.000206779	7	0.00568315	11	0	0.0999	1.0561e-07
2	0	0	1	0	0	922.584	0.497469	0.497195	0.000185546	7	0.00568334	11	0	0.2996	9.22527e-08
2	1	0	1	0	0	925.28	0.483989	0.483742	9.81344e-05	7	0.00568339	11	0	0.0998	4.74717e-08
2	0	0	0	0	0	927.976	0.470507	0.470254	0.000106425	7	0.00568334	11	0	0.2996	5.0047e-08
2	0	0	1	0	0	930.673	0.457026	0.456771	-1.23563e-06	7	0.00568323	11	0	0.0998	-5.64399e-10
2	1	0	1	0	1	933.226	0.455778	0.455558	0.00118658	8	0.00568452	11	0	1.0985	5.40556e-07
2	1	0	1	0	1	935.922	0.469259	0.469053	0.00120537	8	0.00568807	11	0	3.7947	5.65381e-07
2	0	0	1	0	1	938.619	0.48274	0.482439	0.00129916	8	0.00569158	11	0	6.491	6.26768e-07
2	1	0	1	0	1	941.315	0.496222	0.495959	0.00120308	8	0.00569513	11	0	9.1873	5.96681e-07
2	1	0	1	0	1	944.011	0.509702	0.509504	0.00126823	8	0.00569871	11	0	11.8835	6.46169e-07
2	1	0	1	0	1	946.708	0.523184	0.52293	0.00125147	8	0.00570234	11	0	14.5798	6.54431e-07
2	1	0	1	0	1	949.404	0.536666	0.536459	0.00124551	8	0.0057059	11	0	17.2761	6.68164e-07
2	1	0	1	0	1	952.1	0.550147	0.549964	0.00117551	8	0.00570948	11	0	19.9723	6.46487e-07
2	1	0	1	0	1	954.796	0.563628	0.563374	0.00128637	8	0.00571312	11	0	22.6686	7.24707e-07
2	1	0	1	0	1	957.493	0.57711	0.576839	0.00128637	8	0.00571678	11	0	25.3649	7.42027e-07
2	0	0	1	0	1	960.189	0.590591	0.590383	0.0013324	8	0.00572061	11	0	28.0611	7.86626e-07
2	0	0	1	0	1	962.885	0.604072	0.603871	0.00153412	8	0.00572482	11	0	30.7574	9.26412e-07
2	1	0	1	0	1	965.581	0.617554	0.617366	0.00190078	8	0.00572964	11	0	33.4537	1.17347e-06
2	1	0	1	0	1	968.278	0.631035	0.630767	0.00271409	8	0.00573594	11	0	36.1499	1.71196e-06
2	1	0	1	0	1	970.974	0.644516	0.644372	0.00490578	8	0.00574601	11	0	38.8462	3.16115e-06
2	1	0	0	0	1	973.67	0.657997	0.65772	0.0101545	8	0.00576551	11	0	41.5424	6.67881e-06
2	1	0	1	0	1	976.366	0.671479	0.671246	0.0216068	8	0.0058068	11	0	44.2387	1.45035e-05
2	1	0	1	0	1	979.063	0.68496	0.684775	0.0435124	8	0.00589213	11	0	46.9349	2.97962e-05
2	1	0	0	0	1	981.759	0.698441	0.698237	0.0797281	8	0.00605513	11	0	49.6312	5.56691e-05
2	1	0	0	0	1	984.228	0.689204	0.689014	0.0577436	8	0.0062327	11	0	52.1	3.97862e-05
2	1	0	1	0	1	986.924	0.675722	0.67549	0.0321616	8	0.00635158	11	0	54.7963	2.17248e-05
2	1	0	1	0	1	989.62	0.662242	0.662038	0.0156526	8	0.00641375	11	0	57.4925	1.03626e-05
2	1	0	0	0	1	992.317	0.64876	0.648492	0.00667216	8	0.00644197	11	0	60.1888	4.32684e-06
2	1	0	1	0	1	995.013	0.635278	0.635052	0.00268584	8	0.00645356	11	0	62.8851	1.70565e-06
2	1	0	1	0	1	997.709	0.621798	0.621561	0.0011979	8	0.00645818	11	0	65.5813	7.4457e-07
2	1	0	0	0	1	1000.41	0.608316	0.608076	0.000632562	8	0.00646025	11	0	68.2776	3.84646e-07
2	0	0	1	0	1	1003.1	0.594834	0.594555	0.00040945	8	0.0064614	11	0	70.9739	2.43441e-07
2	0	0	1	0	1	1005.8	0.581354	0.581143	0.000432076	8	0.00646221	11	0	73.6701	2.51098e-07
2	1	0	0	0	1	1008.49	0.567872	0.567675	0.000302567	8	0.0064628	11	0	76.3664	1.7176e-07
2	1	0	1	0	1	1011.19	0.554391	0.554176	0.000176377	8	0.00646322	11	0	79.0626	9.7744e-08
2	1	0	1	0	1	1013.89	0.54091	0.540662	0.000178957	8	0.00646358	11	0	81.7589	9.67553e-08
2	1	0	1	0	1	1016.58	0.527429	0.527222	0.000211143	8	0.00646384	11	0	0.1997	1.11319e-07
2	1	0	1	0	1	1019.28	0.513947	0.513692	0.000207883	8	0.00646401	11	0	0.0999	1.06788e-07
2	1	0	1	0	1	1021.98	0.500466	0.500218	0.000233266	8	0.00646418	11	0	0.000000000000000E+000	1.16684e-07
2	0	0	1	0	1	1024.67	0.486985	0.486742	0.000110282	8	0.0064643	11	0	0.000000000000000E+000	5.36787e-08
2	1	0	1	0	1	1027.37	0.473503	0.473232	9.28781e-05	8	0.0064643	11	0	0.0999	4.39529e-08
2	0	0	1	0	1	1030.06	0.460021	0.459755	6.10471e-05	8	0.00646419	11	0	0.1998	2.80667e-08
2	0	0	1	0	0	1032.62	0.452782	0.452582	0.00119418	9	0.00646478	11	0	0.4993	5.40462e-07
2	1	0	1	0	0	1035.31	0.466263	0.466006	0.00122739	9	0.00646837	11	0	3.1956	5.71973e-07
2	1	0	1	0	0	1038.01	0.479745	0.479474	0.00126506	9	0.00647195	11	0	5.8919	6.06564e-07
2	0	0	1	0	0	1040.71	0.493226	0.492986	0.00123963	9	0.00647555	11	0	8.5881	6.11121e-07
2	1	0	1	0	0	1043.4	0.506707	0.506478	0.00120722	9	0.00647904	11	0	11.2844	6.1143e-07
2	1	0	1	0	0	1046.1	0.520189	0.519992	0.00114281	9	0.00648246	11	0	13.9807	5.94254e-07
2	1	0	1	0	0	1048.8	0.53367	0.533498	0.00121425	9	0.00648591	11	0	16.6769	6.47798e-07
2	0	0	1	0	0	1051.49	0.547151	0.546936	0.00119146	9	0.0064894	11	0	19.3732	6.51654e-07
2	1	0	0	0	0	1054.19	0.560632	0.56038	0.00123517	9	0.00649297	11	0	22.0694	6.92164e-07
2	1	0	1	0	0	1056.88	0.574114	0.573894	0.00129137	9	0.00649659	11	0	24.7657	7.41112e-07
2	1	0	1	0	0	1059.58	0.587594	0.587352	0.00129115	9	0.00650034	11	0	27.4619	7.58361e-07
2	1	0	0	0	0	1062.28	0.601076	0.600841	0.00148553	9	0.00650433	11	0	30.1582	8.92566e-07
2	0	0	1	0	0	1064.97	0.614558	0.614333	0.00167779	9	0.00650887	11	0	32.8545	1.03073e-06
2	1	0	1	0	0	1067.67	0.628039	0.627759	0.00244705	9	0.00651474	11	0	35.5507	1.53616e-06
2	1	0	0	0	0	1070.37	0.64152	0.641296	0.00422341	9	0.00652362	11	0	38.247	2.70846e-06
2	1	0	1	0	0	1073.06	0.655002	0.654733	0.00850543	9	0.00654025	11	0	40.9433	5.56879e-06
2	1	0	1	0	0	1075.76	0.668483	0.668277	0.0184323	9	0.00657535	11	0	43.6395	1.23179e-05
2	1	0	0	0	0	1078.45	0.681964	0.681765	0.0378504	9	0.00664886	11	0	46.3358	2.58051e-05
2	1	0	1	0	0	1081.15	0.695445	0.695216	0.0708324	9	0.00679231	11	0	49.032	4.92438e-05
2	1	0	1	0	0	1083.62	0.692199	0.691929	0.0652261	9	0.00698004	11	0	51.5009	4.51318e-05
2	1	0	1	0	0	1086.32	0.678719	0.678518	0.0373364	9	0.00711579	11	0	54.1971	2.53334e-05
2	1	0	0	0	0	1089.01	0.665237	0.664997	0.0187306	9	0.00718885	11	0	56.8934	1.24558e-05
2	1	0	1	0	0	1091.71	0.651756	0.651537	0.00810974	9	0.00722299	11	0	59.5896	5.2838e-06
2	1	0	1	0	0	1094.4	0.638274	0.638045	0.00325938	9	0.00723704	11	0	62.2859	2.07963e-06
2	1	0	1	0	0	1097.1	0.624794	0.624558	0.00135459	9	0.00724264	11	0	64.9821	8.46022e-07
2	1	0	1	0	0	1099.8	0.611312	0.611095	0.000706631	9	0.00724505	11	0	67.6784	4.31818e-07
2	1	0	1	0	0	1102.49	0.59783	0.597631	0.000448379	9	0.00724637	11	0	70.3747	2.67965e-07
2	1	0	1	0	0	1105.19	0.58435	0.584116	0.00041464	9	0.00724719	11	0	73.0709	2.42198e-07
2	1	0	1	0	0	1107.89	0.570868	0.570613	0.000322741	9	0.00724777	11	0	75.7672	1.8416e-07
2	1	0	1	0	0	1110.58	0.557387	0.557128	0.00027209	9	0.00724826	11	0	78.4635	1.51589e-07
2	0	0	1	0	0	1113.28	0.543906	0.543689	0.000210982	9	0.00724861	11	0	81.1597	1.14709e-07
2	1	0	1	0	0	1115.97	0.530424	0.530223	0.000241678	9	0.00724896	11	0	83.856	1.28143e-07
2	1	0	1	0	0	1118.67	0.516942	0.516674	0.000178533	9	0.00724924	11	0	86.5523	9.22432e-08
2	1	0	1	0	0	1121.37	0.503462	0.503169	8.14799e-05	9	0.00724945	11	0	0.0998	4.09981e-08
2	0	0	1	0	0	1124.06	0.48998	0.489778	0.000137643	9	0.00724947	11	0	0.0999	6.74147e-08
2	1	0	0	0	0	1126.76	0.476499	0.476235	9.13508e-05	9	0.00724939	11	0	0.000000000000000E+000	4.35044e-08
2	1	0	1	0	0	1129.46	0.463018	0.462786	2.31684e-05	9	0.00724928	11	0	0.0999	1.0722e-08
2	1	0	0	0	1	1132.05	0.450011	0.449907	-0.0013977	9	0.00724911	11	0	0.5018	-6.28833e-07
2	0	0	0	0	1	1134.71	0.463267	0.463018	0.00124506	10	0.00725257	11	0	2.5964	5.76487e-07
2	1	0	1	0	1	1137.4	0.476749	0.476521	0.00125168	10	0.00725613	11	0	5.2927	5.96451e-07
2	1	0	1	0	1	1140.1	0.49023	0.489976	0.00122384	10	0.00725969	11	0	7.9889	5.99651e-07
2	1	0	0	0	1	1142.79	0.503711	0.50344	0.00126612	10	0.00726331	11	0	10.6852	6.37416e-07
2	1	0	1	0	1	1145.49	0.517193	0.51699	0.00119364	10	0.00726692	11	0	13.3815	6.17099e-07
2	1	0	1	0	1	1148.19	0.530674	0.530478	0.00123753	10	0.00727052	11	0	16.0777	6.56481e-07
2	1	0	0	0	1	1150.88	0.544155	0.543951	0.00130816	10	0.00727412	11	0	18.774	7.11575e-07
2	1	0	1	0	1	1153.58	0.557637	0.557443	0.00123424	10	0.00727778	11	0	21.4703	6.88019e-07
2	0	0	1	0	1	1156.28	0.571118	0.570913	0.00124431	10	0.00728152	11	0	24.1665	7.10395e-07
2	1	0	0	0	1	1158.97	0.584599	0.584364	0.0013181	10	0.00728535	11	0	26.8628	7.70251e-07
2	1	0	1	0	1	1161.67	0.598081	0.597814	0.00150395	10	0.00728938	11	0	29.5591	8.99083e-07
2	1	0	1	0	1	1164.36	0.611562	0.611333	0.00166142	10	0.00729392	11	0	32.2553	1.01568e-06
2	1	0	0	0	1	1167.06	0.625043	0.624769	0.00227886	10	0.00729954	11	0	34.9516	1.42376e-06
2	1	0	1	0	1	1169.76	0.638524	0.638332	0.00373278	10	0.0073075	11	0	37.6478	2.38276e-06
2	1	0	1	0	1	1172.45	0.652006	0.651752	0.00729531	10	0.00732181	11	0	40.3441	4.75474e-06
2	1	0	1	0	1	1175.15	0.665486	0.665248	0.0157181	10	0.00735166	11	0	43.0403	1.04564e-05
2	1	0	1	0	1	1177.85	0.678968	0.67876	0.0327737	10	0.00741487	11	0	45.7366	2.22455e-05
2	1	0	1	0	1	1180.54	0.69245	0.692207	0.0628639	10	0.00754083	11	0	48.4329	4.35148e-05
2	1	0	1	0	1	1183.01	0.695196	0.694991	0.0734556	10	0.0077297	11	0	50.9017	5.1051e-05
2	1	0	1	0	1	1185.71	0.681715	0.681513	0.0431378	10	0.0078843	11	0	53.5979	2.93989e-05
2	1	0	1	0	1	1188.4	0.668233	0.667977	0.0221819	10	0.00796996	11	0	56.2942	1.4817e-05
2	1	0	1	0	1	1191.1	0.654751	0.654531	0.00991359	10	0.00801131	11	0	58.9905	6.48875e-06
2	1	0	1	0	1	1193.8	0.641271	0.641016	0.00412241	10	0.00802879	11	0	61.6867	2.64253e-06
2	1	0	1	0	1	1196.49	0.627789	0.627545	0.00170648	10	0.0080357	11	0	64.383	1.07089e-06
2	1	0	1	0	1	1199.19	0.614307	0.614069	0.000831656	10	0.00803862	11	0	67.0793	5.10694e-07
2	1	0	1	0	1	1201.88	0.600827	0.600641	0.000588864	10	0.00804011	11	0	69.7755	3.53696e-07
2	1	0	1	0	1	1204.58	0.587345	0.587152	0.000379654	10	0.00804104	11	0	72.4718	2.22915e-07
2	0	0	0	0	1	1207.28	0.573864	0.573627	0.000302921	10	0.00804174	11	0	75.168	1.73764e-07
2	1	0	1	0	1	1209.97	0.560382	0.560158	0.000294616	10	0.0080423	11	0	77.8643	1.65032e-07
2	1	0	1	0	1	1212.67	0.546902	0.54671	0.000266499	10	0.00804273	11	0	80.5605	1.45698e-07
2	1	0	0	0	1	1215.37	0.53342	0.533236	0.00022386	10	0.00804312	11	0	83.2568	1.1937e-07
2	0	0	1	0	1	1218.06	0.519939	0.519715	0.000184897	10	0.00804343	11	0	85.9531	9.6094e-08
2	1	0	1	0	1	1220.76	0.506458	0.506204	0.000264836	10	0.00804365	11	0	0.0998	1.34061e-07
2	0	0	0	0	1	1223.45	0.492976	0.492768	0.000105247	10	0.00804383	11	0	0.0999	5.18625e-08
2	0	0	1	0	1	1226.15	0.479494	0.479273	7.55321e-05	10	0.00804394	11	0	0.1998	3.62005e-08
2	1	0	1	0	1	1228.85	0.466014	0.465742	0.000119904	10	0.00804385	11	0	0.0998	5.58446e-08
2	1	0	0	0	1	1231.54	0.452532	0.452303	4.32537e-05	10	0.00804363	11	0	0.2996	1.95638e-08
2	1	0	1	0	0	1234.1	0.460272	0.460033	0.00123941	11	0.00804623	11	0	2.0519	5.7017e-07
2	1	0	1	0	0	1236.79	0.473753	0.473505	0.00120749	11	0.00804974	11	0	4.7481	5.71755e-07
2	1	0	0	0	0	1239.49	0.487234	0.487008	0.00119551	11	0.00805329	11	0	7.4444	5.82224e-07
2	1	0	1	0	0	1242.19	0.500715	0.500474	0.00124564	11	0.00805685	11	0	10.1406	6.23413e-07
2	0	0	1	0	0	1244.88	0.514197	0.513963	0.0011458	11	0.0080604	11	0	12.8369	5.88897e-07
2	1	0	1	0	0	1247.58	0.527678	0.527462	0.00128261	11	0.00806396	11	0	15.5331	6.76528e-07
2	1	0	1	0	0	1250.27	0.541159	0.540908	0.00126104	11	0.0080675	11	0	18.2294	6.82106e-07
2	0	0	1	0	0	1252.97	0.554641	0.554411	0.00127811	11	0.00807108	11	0	20.9257	7.08595e-07
2	1	0	1	0	0	1255.67	0.568122	0.567927	0.00127615	11	0.00807471	11	0	23.6219	7.24762e-07
2	1	0	1	0	0	1258.36	0.581603	0.581368	0.00131354	11	0.00807851	11	0	26.3182	7.63648e-07
2	1	0	1	0	0	1261.06	0.595085	0.594828	0.00145237	11	0.00808247	11	0	29.0145	8.63909e-07
2	1	0	1	0	0	1263.76	0.608565	0.608342	0.00157504	11	0.00808682	11	0	31.7107	9.58163e-07
2	1	0	1	0	0	1266.45	0.622047	0.621821	0.00210885	11	0.00809198	11	0	34.407	1.31133e-06
2	1	0	1	0	0	1269.15	0.635529	0.635305	0.00326178	11	0.00809912	11	0	37.1033	2.07223e-06
2	1	0	1	0	0	1271.85	0.64901	0.648762	0.0061222	11	0.00811143	11	0	39.7995	3.97185e-06
2	1	0	1	0	0	1274.54	0.662491	0.66229	0.0133494	11	0.00813665	11	0	42.4958	8.84116e-06
2	1	0	1	0	0	1277.24	0.675973	0.675731	0.0282891	11	0.00819078	11	0	45.1921	1.91158e-05
2	1	0	1	0	0	1279.93	0.689454	0.689242	0.0552298	11	0.00830056	11	0	47.8883	3.80667e-05
2	1	0	1	0	0	1282.4	0.698192	0.697931	0.0818797	11	0.00848004	11	0	50.3571	5.71464e-05
2	1	0	1	0	0	1285.1	0.68471	0.684488	0.0494574	11	0.00865492	11	0	53.0534	3.3853e-05
2	1	0	0	0	0	1287.8	0.671229	0.67102	0.0263483	11	0.00875452	11	0	55.7496	1.76802e-05
2	1	0	1	0	0	1290.49	0.657748	0.657493	0.0121429	11	0.00880415	11	0	58.4459	7.98387e-06
2	1	0	1	0	0	1293.19	0.644267	0.644071	0.00493075	11	0.00882565	11	0	61.1421	3.17576e-06
2	1	0	0	0	0	1295.88	0.630785	0.630505	0.00204789	11	0.00883416	11	0	63.8384	1.2912e-06
2	1	0	1	0	0	1298.58	0.617303	0.617074	0.000957753	11	0.00883762	11	0	66.5347	5.91004e-07
2	0	0	1	0	0	1301.28	0.603823	0.603598	0.000539909	11	0.00883934	11	0	69.2309	3.25888e-07
2	1	0	0	0	0	1303.97	0.590341	0.590092	0.000377814	11	0.00884032	11	0	71.9272	2.22945e-07
2	1	0	1	0	0	1306.67	0.576859	0.576581	0.000258257	11	0.00884095	11	0	74.6235	1.48906e-07
2	1	0	1	0	0	1309.37	0.563379	0.56315	0.000259633	11	0.00884148	11	0	77.3197	1.46212e-07
2	0	0	0	0	0	1312.06	0.549897	0.549664	0.000197354	11	0.00884193	11	0	80.016	1.08479e-07
2	1	0	1	0	0	1314.76	0.536415	0.536141	0.0002086	11	0.00884224	11	0	82.7123	1.11839e-07
2	1	0	1	0	0	1317.45	0.522935	0.522721	0.000121815	11	0.00884247	11	0	0.000000000000000E+000	6.36752e-08
2	1	0	0	0	0	1320.15	0.509453	0.509209	0.000214583	11	0.00884269	11	0	0.1997	1.09268e-07
2	1	0	1	0	0	1322.85	0.495972	0.495699	7.52297e-05	11	0.00884281	11	0	0.000000000000000E+000	3.72913e-08
2	1	0	1	0	0	1325.54	0.482491	0.482208	3.29603e-05	11	0.00884281	11	0	0.000000000000000E+000	1.58937e-08
2	1	0	1	0	0	1328.24	0.46901	0.468755	0.00010561	11	0.00884275	11	0	0.0998	4.95051e-08
2	1	0	1	0	0	1330.94	0.455528	0.455321	1.89569e-05	11	0.00884267	11	0	0.1997	8.63147e-09
2	0	0	1	0	1	1333.49	0.457276	0.457062	0.00123783	12	0.00884449	11	0	1.4527	5.65766e-07
2	1	0	1	0	1	1336.19	0.470756	0.470535	0.00130602	12	0.00884816	11	0	4.1489	6.14529e-07
2	1	0	1	0	1	1338.88	0.484238	0.484008	0.00127083	12	0.00885178	11	0	6.8452	6.15093e-07
2	0	0	1	0	1	1341.58	0.49772	0.497479	0.00125287	12	0.00885541	11	0	9.5415	6.23279e-07
2	1	0	1	0	1	1344.27	0.511201	0.510949	0.00128402	12	0.00885907	11	0	12.2377	6.5607e-07
2	1	0	1	0	1	1346.97	0.524682	0.524421	0.00121296	12	0.00886269	11	0	14.934	6.36102e-07
2	0	0	1	0	1	1349.67	0.538164	0.537915	0.001203	12	0.00886632	11	0	17.6303	6.47109e-07
2	1	0	1	0	1	1352.36	0.551645	0.551386	0.00129388	12	0.00887	11	0	20.3265	7.13428e-07
2	0	0	1	0	1	1355.06	0.565126	0.564936	0.00123203	12	0.00887365	11	0	23.0228	6.96018e-07
2	1	0	0	0	1	1357.76	0.578607	0.578357	0.00127761	12	0.00887734	11	0	25.719	7.38916e-07
2	1	0	1	0	1	1360.45	0.592089	0.59187	0.00140498	12	0.00888112	11	0	28.4153	8.31565e-07
2	1	0	1	0	1	1363.15	0.60557	0.605328	0.00152726	12	0.00888526	11	0	31.1115	9.24493e-07
2	1	0	0	0	1	1365.84	0.619051	0.618842	0.00191388	12	0.00889016	11	0	33.8078	1.18439e-06
2	1	0	1	0	1	1368.54	0.632533	0.632344	0.0029193	12	0.0088967	11	0	36.5041	1.846e-06
2	1	0	1	0	1	1371.24	0.646014	0.645801	0.00526903	12	0.00890744	11	0	39.2003	3.40274e-06
2	1	0	0	0	1	1373.93	0.659495	0.659263	0.0112769	12	0.008929	11	0	41.8966	7.43446e-06
2	1	0	1	0	1	1376.63	0.672977	0.672777	0.0242264	12	0.00897522	11	0	44.5929	1.6299e-05
2	1	0	1	0	1	1379.33	0.686457	0.686253	0.0488268	12	0.00907096	11	0	47.2891	3.35075e-05
2	1	0	0	0	1	1382	0.699839	0.699591	0.0883274	12	0.00925124	11	0	49.9654	6.17931e-05
2	1	0	0	0	1	1384.49	0.687706	0.687519	0.0567518	12	0.00943045	11	0	52.4542	3.90179e-05
2	1	0	1	0	1	1387.19	0.674224	0.673984	0.0310436	12	0.00954632	11	0	55.1505	2.09229e-05
2	1	0	1	0	1	1389.88	0.660744	0.660484	0.0146809	12	0.0096056	11	0	57.8467	9.69652e-06
2	1	0	0	0	1	1392.58	0.647262	0.647058	0.0060495	12	0.00963182	11	0	60.543	3.91438e-06
2	1	0	1	0	1	1395.28	0.63378	0.633534	0.00245816	12	0.00964234	11	0	63.2393	1.55733e-06
2	1	0	1	0	1	1397.97	0.6203	0.620028	0.00109488	12	0.00964654	11	0	65.9355	6.78859e-07
2	1	0	0	0	1	1400.67	0.606818	0.606592	0.000634771	12	0.00964849	11	0	68.6318	3.85047e-07
2	0	0	1	0	1	1403.36	0.593337	0.593115	0.000399201	12	0.00964959	11	0	71.328	2.36772e-07
2	1	0	1	0	1	1406.06	0.579856	0.579575	0.000351384	12	0.00965032	11	0	74.0243	2.03653e-07
2	1	0	1	0	1	1408.76	0.566375	0.56609	0.000274866	12	0.00965086	11	0	76.7205	1.55599e-07
2	1	0	1	0	1	1411.45	0.552893	0.552665	0.000200594	12	0.00965127	11	0	79.4168	1.10861e-07
2	1	0	1	0	1	1414.15	0.539411	0.539165	0.000192943	12	0.00965153	11	0	82.1131	1.04028e-07
2	1	0	1	0	1	1416.85	0.525931	0.525715	0.000163509	12	0.00965169	11	0	0.000000000000000E+000	8.5959e-08
2	0	0	1	0	1	1419.54	0.512449	0.512224	6.95384e-05	12	0.00965178	11	0	0.000000000000000E+000	3.56192e-08
2	1	0	1	0	1	1422.24	0.498968	0.498688	0.000125294	12	0.00965183	11	0	0.1998	6.24824e-08
2	1	0	1	0	1	1424.93	0.485487	0.485235	0.000121795	12	0.00965181	11	0	0.000000000000000E+000	5.9099e-08
2	1	0	1	0	1	1427.63	0.472005	0.471758	2.28591e-05	12	0.0096517	11	0	0.1997	1.0784e-08
2	0	0	1	0	1	1430.33	0.458523	0.458292	-7.36171e-05	12	0.00965151	11	0	0.1998	-3.37381e-08
2	1	0	1	0	0	1432.88	0.45428	0.454001	0.00110885	13	0.00965237	11	0	0.7989	5.03417e-07
2	1	0	1	0	0	1435.58	0.467761	0.467541	0.00116098	13	0.00965589	11	0	3.4952	5.42806e-07
2	1	0	1	0	0	1438.27	0.481243	0.480991	0.00129641	13	0.00965944	11	0	6.1915	6.23562e-07
2	1	0	1	0	0	1440.97	0.494724	0.494486	0.00123036	13	0.00966293	11	0	8.8877	6.08394e-07
2	1	0	1	0	0	1443.67	0.508205	0.507977	0.00120553	13	0.00966644	11	0	11.584	6.12379e-07
2	1	0	0	0	0	1446.36	0.521686	0.521449	0.00122121	13	0.00966996	11	0	14.2802	6.36798e-07
2	1	0	1	0	0	1449.06	0.535168	0.534917	0.00127189	13	0.00967355	11	0	16.9765	6.80354e-07
2	1	0	1	0	0	1451.75	0.548649	0.548414	0.00118211	13	0.00967717	11	0	19.6727	6.48287e-07
2	1	0	0	0	0	1454.45	0.56213	0.561916	0.00125942	13	0.00968073	11	0	22.369	7.07688e-07
2	1	0	1	0	0	1457.15	0.575612	0.57538	0.00119252	13	0.00968429	11	0	25.0653	6.86152e-07
2	1	0	1	0	0	1459.84	0.589093	0.588841	0.00126062	13	0.00968796	11	0	27.7615	7.42306e-07
2	1	0	0	0	0	1462.54	0.602574	0.602303	0.00148052	13	0.00969194	11	0	30.4578	8.91722e-07
2	1	0	1	0	0	1465.24	0.616056	0.615801	0.0018268	13	0.0096966	11	0	33.1541	1.12494e-06
2	1	0	1	0	0	1467.93	0.629537	0.629301	0.00252816	13	0.00970261	11	0	35.8503	1.59097e-06
2	1	0	0	0	0	1470.63	0.643018	0.642778	0.00456357	13	0.00971204	11	0	38.5466	2.93336e-06
2	1	0	1	0	0	1473.32	0.656499	0.656243	0.00952398	13	0.00973023	11	0	41.2428	6.25005e-06
2	1	0	1	0	0	1476.02	0.669981	0.669744	0.0205978	13	0.00976925	11	0	43.9391	1.37953e-05
2	1	0	1	0	0	1478.72	0.683461	0.683254	0.0423977	13	0.00985159	11	0	46.6353	2.89684e-05
2	1	0	1	0	0	1481.41	0.696943	0.6967	0.0794365	13	0.0100124	11	0	49.3316	5.53434e-05
2	1	0	1	0	0	1483.88	0.690702	0.690525	0.0648145	13	0.0102067	11	0	51.8004	4.4756e-05
2	1	0	1	0	0	1486.58	0.677221	0.677042	0.0363468	13	0.0103403	11	0	54.4967	2.46083e-05
2	1	0	1	0	0	1489.27	0.66374	0.66351	0.0176786	13	0.0104106	11	0	57.1929	1.17299e-05
2	1	0	1	0	0	1491.97	0.650258	0.650005	0.00745857	13	0.0104426	11	0	59.8892	4.84811e-06
2	1	0	1	0	0	1494.67	0.636777	0.636525	0.00302162	13	0.0104555	11	0	62.5855	1.92334e-06
2	1	0	1	0	0	1497.36	0.623296	0.623059	0.00122348	13	0.0104606	11	0	65.2817	7.62297e-07
2	0	0	1	0	0	1500.06	0.609814	0.609609	0.000707661	13	0.0104627	11	0	67.978	4.31397e-07
2	1	0	1	0	0	1502.76	0.596332	0.59609	0.000424933	13	0.0104638	11	0	70.6743	2.53298e-07
2	1	0	1	0	0	1505.45	0.582852	0.582632	0.000309472	13	0.0104645	11	0	73.3705	1.80308e-07
2	0	0	1	0	0	1508.15	0.56937	0.569138	0.000220473	13	0.010465	11	0	76.0668	1.2548e-07
2	1	0	1	0	0	1510.84	0.555888	0.555667	0.000204798	13	0.0104652	11	0	0.1998	1.138e-07
2	1	0	1	0	0	1513.54	0.542408	0.542135	0.000152758	13	0.0104654	11	0	0.000000000000000E+000	8.28154e-08
2	0	0	1	0	0	1516.24	0.528926	0.528706	6.73297e-05	13	0.0104655	11	0	0.0999	3.55976e-08
2	0	0	0	0	0	1518.93	0.515445	0.515186	0.000130165	13	0.0104656	11	0	0.000000000000000E+000	6.7059e-08
2	1	0	1	0	0	1521.63	0.501964	0.501726	0.000130881	13	0.0104658	11	0	0.1997	6.56665e-08
2	1	0	1	0	0	1524.33	0.488483	0.488217	0.000157527	13	0.0104658	11	0	0.000000000000000E+000	7.69071e-08
2	1	0	0	0	0	1527.02	0.475001	0.47475	0.000107824	13	0.0104657	11	0	0.000000000000000E+000	5.11896e-08
2	1	0	1	0	0	1529.72	0.461519	0.461251	3.96298e-05	13	0.0104656	11	0	0.1998	1.82793e-08
2	1	0	1	0	1	1532.27	0.451284	0.451	0.00112001	14	0.0104658	11	0	0.2818	5.05127e-07
2	0	0	0	0	1	1534.97	0.464765	0.464511	0.00122504	14	0.0104693	11	0	2.9781	5.69043e-07
2	1	0	1	0	1	1537.66	0.478247	0.478015	0.00114773	14	0.0104728	11	0	5.6744	5.48634e-07
2	1	0	1	0	1	1540.36	0.491728	0.491505	0.00122733	14	0.0104764	11	0	8.3706	6.0324e-07
2	1	0	0	0	1	1543.06	0.505209	0.504972	0.00121708	14	0.0104799	11	0	11.0669	6.14593e-07
2	1	0	1	0	1	1545.75	0.518691	0.518481	0.00119717	14	0.0104835	11	0	13.7632	6.20708e-07
2	1	0	1	0	1	1548.45	0.532172	0.531957	0.0012483	14	0.010487	11	0	16.4594	6.64043e-07
2	1	0	0	0	1	1551.15	0.545653	0.545449	0.00129071	14	0.0104906	11	0	19.1557	7.04017e-07
2	1	0	1	0	1	1553.84	0.559135	0.558921	0.00121015	14	0.0104941	11	0	21.852	6.7638e-07
2	1	0	1	0	1	1556.54	0.572616	0.5724	0.00121929	14	0.0104977	11	0	24.5482	6.97921e-07
2	1	0	1	0	1	1559.23	0.586097	0.585862	0.00132172	14	0.0105014	11	0	27.2444	7.74348e-07
2	1	0	1	0	1	1561.93	0.599578	0.599361	0.00148899	14	0.0105054	11	0	29.9407	8.92442e-07
2	1	0	1	0	1	1564.63	0.61306	0.612797	0.00176065	14	0.01051	11	0	32.637	1.07892e-06
2	1	0	1	0	1	1567.32	0.626541	0.626334	0.00234451	14	0.0105156	11	0	35.3332	1.46845e-06
2	1	0	1	0	1	1570.02	0.640022	0.639772	0.00390763	14	0.010524	11	0	38.0295	2.49999e-06
2	1	0	1	0	1	1572.72	0.653504	0.653243	0.00800367	14	0.0105396	11	0	40.7258	5.22834e-06
2	1	0	1	0	1	1575.41	0.666985	0.666707	0.0176477	14	0.0105729	11	0	43.422	1.17658e-05
2	1	0	1	0	1	1578.11	0.680466	0.680216	0.037131	14	0.0106442	11	0	46.1183	2.52571e-05
2	1	0	1	0	1	1580.81	0.693948	0.693705	0.0707684	14	0.0107863	11	0	48.8146	4.90923e-05
2	1	0	1	0	1	1583.27	0.693698	0.693456	0.0733604	14	0.0109872	11	0	51.2834	5.08722e-05
2	1	0	1	0	1	1585.97	0.680217	0.679984	0.0423478	14	0.0111404	11	0	53.9796	2.87958e-05
2	1	0	1	0	1	1588.67	0.666735	0.666524	0.0211828	14	0.0112235	11	0	56.6759	1.41189e-05
2	1	0	1	0	1	1591.36	0.653253	0.653025	0.00928533	14	0.0112626	11	0	59.3722	6.06355e-06
2	1	0	1	0	1	1594.06	0.639773	0.639586	0.00377008	14	0.0112787	11	0	62.0684	2.41129e-06
2	1	0	1	0	1	1596.76	0.626291	0.626115	0.0015297	14	0.011285	11	0	64.7647	9.57771e-07
2	0	0	0	0	1	1599.45	0.61281	0.612626	0.000766538	14	0.0112876	11	0	67.4609	4.69601e-07
2	1	0	1	0	1	1602.15	0.599329	0.59912	0.000453029	14	0.011289	11	0	70.1572	2.71419e-07
2	1	0	1	0	1	1604.84	0.585848	0.585598	0.000399453	14	0.0112898	11	0	72.8534	2.33919e-07
2	1	0	0	0	1	1607.54	0.572366	0.572145	0.000305439	14	0.0112903	11	0	75.5497	1.74755e-07
2	1	0	1	0	1	1610.24	0.558885	0.558697	0.000244872	14	0.0112907	11	0	78.246	1.36809e-07
2	0	0	1	0	1	1612.93	0.545404	0.545172	0.000242644	14	0.011291	11	0	1.5978	1.32283e-07
2	1	0	0	0	1	1615.63	0.531922	0.531655	0.000158848	14	0.0112912	11	0	0.3995	8.44521e-08
2	0	0	1	0	1	1618.33	0.51844	0.51821	0.000178648	14	0.0112914	11	0	0.1998	9.2577e-08
2	1	0	1	0	1	1621.02	0.50496	0.50467	0.000111419	14	0.0112915	11	0	0.000000000000000E+000	5.62297e-08
2	1	0	0	0	1	1623.72	0.491478	0.491257	0.000114451	14	0.0112915	11	0	0.1997	5.62248e-08
2	1	0	1	0	1	1626.41	0.477996	0.477766	7.96302e-05	14	0.0112915	11	0	0.0999	3.80446e-08
2	0	0	1	0	1	1629.11	0.464516	0.464247	2.51116e-05	14	0.0112915	11	0	0.0998	1.1658e-08
2	0	0	0	0	1	1631.81	0.451034	0.450789	1.54228e-05	14	0.0112914	11	0	0.000000000000000E+000	6.95242e-09
2	1	0	1	0	0	1634.36	0.46177	0.461537	0.00116867	15	0.0112943	11	0	2.379	5.39385e-07
2	0	0	1	0	0	1637.06	0.475251	0.475	0.00116876	15	0.0112979	11	0	5.0752	5.55162e-07
2	0	0	1	0	0	1639.75	0.488732	0.48852	0.00118448	15	0.0113014	11	0	7.7714	5.78642e-07
2	1	0	1	0	0	1642.45	0.502213	0.501983	0.00122773	15	0.011305	11	0	10.4677	6.16298e-07
2	1	0	1	0	0	1645.15	0.515695	0.515503	0.0012466	15	0.0113085	11	0	13.164	6.42627e-07
2	1	0	1	0	0	1647.84	0.529175	0.528974	0.00126002	15	0.0113121	11	0	15.8602	6.66518e-07
2	1	0	1	0	0	1650.54	0.542657	0.5424	0.00125714	15	0.0113156	11	0	18.5565	6.81872e-07
2	1	0	1	0	0	1653.23	0.556139	0.555902	0.00128517	15	0.0113192	11	0	21.2528	7.14431e-07
2	1	0	1	0	0	1655.93	0.56962	0.569455	0.00123816	15	0.0113228	11	0	23.949	7.05074e-07
2	1	0	1	0	0	1658.63	0.583101	0.582881	0.00135153	15	0.0113264	11	0	26.6453	7.8778e-07
2	1	0	1	0	0	1661.32	0.596583	0.596349	0.00143891	15	0.0113304	11	0	29.3416	8.58093e-07
2	1	0	1	0	0	1664.02	0.610064	0.609793	0.00168733	15	0.0113347	11	0	32.0378	1.02892e-06
2	1	0	1	0	0	1666.72	0.623545	0.623317	0.00213219	15	0.0113399	11	0	34.7341	1.32903e-06
2	1	0	0	0	0	1669.41	0.637026	0.636778	0.00342059	15	0.0113473	11	0	37.4303	2.17816e-06
2	1	0	1	0	0	1672.11	0.650508	0.650318	0.00680859	15	0.0113607	11	0	40.1266	4.42775e-06
2	1	0	1	0	0	1674.8	0.663989	0.663749	0.0148963	15	0.0113888	11	0	42.8228	9.88739e-06
2	1	0	0	0	0	1677.5	0.67747	0.677245	0.0318405	15	0.0114498	11	0	45.5191	2.15638e-05
2	1	0	1	0	0	1680.2	0.690952	0.690747	0.0624972	15	0.0115739	11	0	48.2154	4.31698e-05
2	1	0	1	0	0	1682.67	0.696693	0.696475	0.0827653	15	0.0117712	11	0	50.6842	5.76439e-05
2	1	0	1	0	0	1685.36	0.683213	0.683	0.0490541	15	0.0119462	11	0	53.3804	3.3504e-05
2	1	0	0	0	0	1688.06	0.669731	0.669485	0.0254934	15	0.0120438	11	0	56.0767	1.70675e-05
2	1	0	1	0	0	1690.75	0.65625	0.65598	0.011533	15	0.0120913	11	0	58.773	7.56539e-06
2	1	0	1	0	0	1693.45	0.642769	0.642559	0.00464147	15	0.0121114	11	0	61.4692	2.98242e-06
2	1	0	0	0	0	1696.15	0.629287	0.62908	0.00195755	15	0.0121192	11	0	64.1655	1.23145e-06
2	1	0	1	0	0	1698.84	0.615806	0.615557	0.000913403	15	0.0121225	11	0	66.8618	5.62252e-07
2	0	0	1	0	0	1701.54	0.602325	0.602097	0.000626193	15	0.0121242	11	0	69.558	3.77029e-07
2	1	0	0	0	0	1704.24	0.588843	0.588634	0.000411535	15	0.0121252	11	0	72.2543	2.42243e-07
2	1	0	1	0	0	1706.93	0.575361	0.575112	0.0003995	15	0.0121259	11	0	74.9506	2.29757e-07
2	1	0	1	0	0	1709.63	0.561881	0.561614	0.000295749	15	0.0121266	11	0	77.6468	1.66097e-07
2	0	0	0	0	0	1712.32	0.548399	0.548199	0.000279448	15	0.0121271	11	0	80.3431	1.53193e-07
2	0	0	1	0	0	1715.02	0.534918	0.534662	0.00028563	15	0.0121274	11	0	83.0393	1.52715e-07
2	1	0	1	0	0	1717.72	0.521437	0.521229	0.000264523	15	0.0121277	11	0	0.1997	1.37877e-07
2	1	0	1	0	0	1720.41	0.507956	0.507731	0.000207162	15	0.0121279	11	0	0.0998	1.05183e-07
2	1	0	1	0	0	1723.11	0.494474	0.494256	0.000186679	15	0.0121281	11	0	0.0999	9.2267e-08
2	0	0	1	0	0	1725.81	0.480993	0.480766	0.000217119	15	0.0121282	11	0	0.0999	1.04383e-07
2	0	0	1	0	0	1728.5	0.467512	0.467292	9.75678e-05	15	0.0121283	11	0	0.1997	4.55927e-08
2	0	0	1	0	0	1731.2	0.45403	0.453795	-3.42564e-06	15	0.0121283	11	0	0.0999	-1.55454e-09
2	1	0	1	0	0	1732	0.450011	0.450002	-0.00148002	15	0.0121283	11	0	0.000000000000000E+000	-6.66012e-07