File: ACS_Catal_2026/Figures_Na_K/main_figures/data/EC/20251112_2-148_alpha_reproducibility/20251112_2-148_003_alpha_Na_first_1_K2_03_CVA_C01.mpt
EC-Lab ASCII FILE
Nb header lines : 66

Cyclic Voltammetry Advanced

Run on channel : 1 (SN 69187)
User :
CE vs. WE compliance from -10 V to 10 V
Electrode connection : standard
Potential control : Ewe
Ewe ctrl range : min = -1.00 V, max = 1.00 V
Safety Limits :
	Do not start on E overload
Acquisition started on : 11/12/2025 17:41:45.774
Loaded Setting File :  C:\Users\User\Documents\EC-Lab\Data\Yatsuzuka\20251030_2-147_gamma_reproducibility\20251030_2-147_001_gamma1_K_1.mps
Saved on :
	File : 20251112_2-148_003_alpha_Na_first_1_K2_03_CVA_C01.mpr
	Directory : C:\Users\User\Documents\EC-Lab\Data\Yatsuzuka\20251112_2-148_alpha_reproducibility\
	Host : 192.109.209.127
Device : SP-150e (SN .003883)
Address : 192.109.209.128
EC-Lab for windows v11.52 (software)
Internet server v11.52 (firmware)
Command interpretor v11.50 (firmware)
Electrode material :
Initial state :
Electrolyte :
Comments :
Electrode surface area : 0.001 cm2
Characteristic mass : 0.001 g
Equivalent Weight : 0.000 g/eq.
Density : 0.000 g/cm3
Volume (V) : 0.001 cm3
Cycle Definition : Charge/Discharge alternance
Ei (V)              0.450
vs.                 Ref
ti (h:m:s)          0:00:10.0000
dti (s)             0.0000
dE/dt               5.000
dE/dt unit          mV/s
E1 (V)              0.700
vs.                 Ref
t1 (h:m:s)          0:00:0.0000
dt1 (s)             0.1000
Step percent        50
N                   10
E range min (V)     -1.000
E range max (V)     1.000
I Range             10 mA
I Range min         Unset
I Range max         Unset
I Range init        Unset
Bandwidth           5
E2 (V)              0.450
vs.                 Ref
t2 (h:m:s)          0:00:0.0000
dt2 (s)             0.1000
nc cycles           14
nr                  1
Reverse Scan        0
Ef (V)              0.000
vs.                 Eoc
tf (h:m:s)          0:00:0.0000
dtf (s)             0.1000

mode	ox/red	error	control changes	Ns changes	counter inc.	time/s	control/V	Ewe/V	<I>/mA	cycle number	(Q-Qo)/C	I Range	Ns	step time/s	P/W
2	0	0	0	0	0	231.752	0.449961	0.449697	-0.0101764	1	0.0000000E+000	11	0	0.000000000000000E+000	-4.57628e-06
2	1	0	0	0	0	234.304	0.462718	0.462438	0.0134923	1	3.08421e-05	11	0	2.4965	6.23935e-06
2	1	0	0	0	0	236.9	0.4757	0.475479	0.0121091	1	6.28455e-05	11	0	5.0929	5.75764e-06
2	0	0	0	0	0	239.497	0.488682	0.488433	0.0108395	1	9.4838e-05	11	0	7.6893	5.29438e-06
2	1	0	0	0	0	242.093	0.501664	0.501455	0.0109732	1	0.000126652	11	0	10.2857	5.50257e-06
2	1	0	0	0	0	244.689	0.514646	0.514397	0.0126449	1	0.000158393	11	0	12.8821	6.5045e-06
2	1	0	0	0	0	247.286	0.527628	0.527434	0.0135317	1	0.000190236	11	0	15.4785	7.1371e-06
2	1	0	0	0	0	249.882	0.54061	0.540275	0.0132215	1	0.000222774	11	0	18.0749	7.14324e-06
2	1	0	0	0	0	252.479	0.553592	0.553384	0.0133879	1	0.000257349	11	0	20.6713	7.40864e-06
2	1	0	0	0	0	255.075	0.566574	0.566371	0.0145869	1	0.000295804	11	0	23.2677	8.26159e-06
2	1	0	0	0	0	257.671	0.579556	0.579307	0.0190897	1	0.000341463	11	0	25.8641	1.10588e-05
2	1	0	0	0	0	260.268	0.592538	0.592339	0.0273939	1	0.000400596	11	0	28.4605	1.62265e-05
2	1	0	0	0	0	262.864	0.60552	0.605321	0.0410473	1	0.000485425	11	0	31.0569	2.48468e-05
2	1	0	0	0	0	265.461	0.618502	0.618228	0.0665616	1	0.000619423	11	0	33.6533	4.11503e-05
2	1	0	0	0	0	268.057	0.631484	0.63129	0.11387	1	0.000847424	11	0	36.2497	7.18847e-05
2	1	0	0	0	0	270.653	0.644466	0.644234	0.201457	1	0.00124899	11	0	38.8461	0.000129785
2	1	0	0	0	0	273.25	0.657448	0.657201	0.351381	1	0.00195488	11	0	41.4425	0.000230928
2	1	0	0	0	0	275.846	0.67043	0.670178	0.586911	1	0.00315353	11	0	44.0389	0.000393335
2	1	0	0	0	0	278.443	0.683412	0.683229	0.922105	1	0.00509002	11	0	46.6353	0.000630009
2	1	0	0	0	0	281.039	0.696394	0.696151	1.34893	1	0.00802143	11	0	49.2317	0.000939062
2	1	0	1	0	0	283.418	0.691701	0.691452	1.12084	1	0.0111818	11	0	51.6106	0.000775006
2	1	0	1	0	0	286.014	0.678719	0.678478	0.734093	1	0.0135765	11	0	54.207	0.000498065
2	1	0	1	0	0	288.611	0.665737	0.665473	0.453449	1	0.0151039	11	0	56.8034	0.000301758
2	1	0	1	0	0	291.207	0.652754	0.652514	0.258496	1	0.0160135	11	0	59.3998	0.000168672
2	1	0	1	0	0	293.803	0.639773	0.639566	0.141314	1	0.0165212	11	0	61.9962	9.03799e-05
2	1	0	1	0	0	296.4	0.626791	0.626532	0.0727255	1	0.0167875	11	0	64.5926	4.55648e-05
2	1	0	1	0	0	298.996	0.613809	0.613596	0.0342288	1	0.0169182	11	0	67.189	2.10027e-05
2	1	0	1	0	0	301.593	0.600827	0.60058	0.0133313	1	0.0169764	11	0	69.7854	8.0065e-06
2	0	0	1	0	0	304.189	0.587845	0.587634	0.00249057	1	0.0169965	11	0	72.3818	1.46354e-06
2	0	0	1	0	0	306.785	0.574863	0.574582	-0.00358108	1	0.0169965	11	0	0.7989	-2.05763e-06
2	0	0	1	0	0	309.382	0.561881	0.561664	-0.00681685	1	0.0169856	11	0	3.3953	-3.82878e-06
2	0	0	1	0	0	311.978	0.548899	0.548647	-0.00833145	1	0.0169687	11	0	5.9917	-4.57102e-06
2	0	0	1	0	0	314.575	0.535917	0.535662	-0.0094651	1	0.0169481	11	0	8.5881	-5.0701e-06
2	0	0	1	0	0	317.171	0.522935	0.522711	-0.00987773	1	0.0169255	11	0	11.1845	-5.1632e-06
2	0	0	1	0	0	319.767	0.509953	0.509726	-0.00949707	1	0.0169014	11	0	13.7809	-4.84091e-06
2	1	0	1	0	0	322.364	0.496971	0.496732	-0.00968891	1	0.0168759	11	0	16.3773	-4.81279e-06
2	0	0	1	0	0	324.96	0.483989	0.483741	-0.0104142	1	0.0168495	11	0	18.9737	-5.03778e-06
2	0	0	1	0	0	327.557	0.471007	0.470828	-0.0112364	1	0.016822	11	0	21.5701	-5.2904e-06
2	0	0	1	0	0	330.153	0.458025	0.457749	-0.0121582	1	0.0167933	11	0	24.1665	-5.56541e-06
2	0	0	1	0	1	332.607	0.45428	0.454031	0.00947606	2	0.0167834	11	0	0.7989	4.30243e-06
2	0	0	1	0	1	335.203	0.467262	0.46707	0.0103758	2	0.0168128	11	0	3.3953	4.84621e-06
2	1	0	1	0	1	337.8	0.480244	0.479989	0.0114462	2	0.0168427	11	0	5.9917	5.49403e-06
2	1	0	1	0	1	340.396	0.493226	0.492991	0.0106848	2	0.0168725	11	0	8.5881	5.2675e-06
2	1	0	1	0	1	342.992	0.506208	0.505971	0.0100233	2	0.0169022	11	0	11.1845	5.07149e-06
2	1	0	1	0	1	345.589	0.51919	0.518983	0.0101327	2	0.016932	11	0	13.7809	5.25871e-06
2	1	0	1	0	1	348.185	0.532172	0.531914	0.0109896	2	0.0169622	11	0	16.3773	5.84551e-06
2	1	0	1	0	1	350.782	0.545154	0.544924	0.0121657	2	0.0169935	11	0	18.9737	6.6294e-06
2	1	0	1	0	1	353.378	0.558136	0.557909	0.0128448	2	0.0170269	11	0	21.5701	7.16625e-06
2	1	0	1	0	1	355.974	0.571118	0.570863	0.0152672	2	0.0170647	11	0	24.1665	8.71549e-06
2	1	0	1	0	1	358.571	0.5841	0.583792	0.0195168	2	0.0171111	11	0	26.7629	1.13937e-05
2	1	0	1	0	1	361.167	0.597082	0.596849	0.0281331	2	0.0171739	11	0	29.3593	1.67912e-05
2	1	0	1	0	1	363.764	0.610064	0.60986	0.04452	2	0.0172682	11	0	31.9557	2.7151e-05
2	1	0	1	0	1	366.36	0.623046	0.62282	0.0758517	2	0.0174232	11	0	34.5521	4.72419e-05
2	1	0	1	0	1	368.956	0.636028	0.635809	0.13569	2	0.0176937	11	0	37.1485	8.62733e-05
2	1	0	1	0	1	371.553	0.64901	0.648796	0.242528	2	0.0181752	11	0	39.7449	0.000157351
2	1	0	1	0	1	374.149	0.661992	0.661763	0.418317	2	0.019019	11	0	42.3413	0.000276827
2	1	0	1	0	1	376.746	0.674974	0.674771	0.684611	2	0.0204332	11	0	44.9377	0.000461956
2	1	0	1	0	1	379.342	0.687956	0.687747	1.05088	2	0.0226616	11	0	47.5341	0.000722737
2	1	0	1	0	1	381.756	0.699964	0.699803	1.46758	2	0.0256888	11	0	49.948	0.00102701
2	1	0	1	0	1	384.307	0.687207	0.686981	0.94369	2	0.0286915	11	0	52.4995	0.000648297
2	1	0	1	0	1	386.904	0.674224	0.673959	0.598649	2	0.0306687	11	0	55.0959	0.000403465
2	1	0	1	0	1	389.5	0.661242	0.661007	0.365089	2	0.031907	11	0	57.6923	0.000241327
2	1	0	1	0	1	392.097	0.64826	0.648078	0.206106	2	0.0326328	11	0	60.2887	0.000133572
2	1	0	1	0	1	394.693	0.635278	0.635058	0.108092	2	0.0330313	11	0	62.8851	6.86445e-05
2	1	0	1	0	1	397.289	0.622297	0.622028	0.0532055	2	0.0332371	11	0	65.4815	3.30953e-05
2	1	0	1	0	1	399.886	0.609314	0.609117	0.0234937	2	0.0333352	11	0	68.0779	1.43104e-05
2	0	0	1	0	1	402.482	0.596332	0.59608	0.00768985	2	0.033376	11	0	70.6743	4.58377e-06
2	0	0	1	0	1	405.079	0.58335	0.583091	-0.000747476	2	0.0333869	11	0	0.000000000000000E+000	-4.35846e-07
2	0	0	1	0	1	407.675	0.570368	0.570172	-0.0047553	2	0.033382	11	0	1.498	-2.71134e-06
2	0	0	1	0	1	410.271	0.557387	0.557147	-0.00698358	2	0.0333683	11	0	4.0944	-3.89088e-06
2	0	0	1	0	1	412.868	0.544404	0.544181	-0.00874517	2	0.0333497	11	0	6.6908	-4.75895e-06
2	0	0	1	0	1	415.464	0.531423	0.531204	-0.00998021	2	0.0333282	11	0	9.2872	-5.30153e-06
2	0	0	1	0	1	418.061	0.51844	0.51821	-0.0102639	2	0.0333049	11	0	11.8836	-5.31886e-06
2	0	0	1	0	1	420.657	0.505458	0.505222	-0.0105152	2	0.0332802	11	0	14.48	-5.3125e-06
2	0	0	1	0	1	423.253	0.492476	0.492267	-0.0111776	2	0.0332543	11	0	17.0764	-5.50236e-06
2	0	0	1	0	1	425.85	0.479494	0.479287	-0.0118657	2	0.0332273	11	0	19.6728	-5.68706e-06
2	0	0	1	0	1	428.446	0.466513	0.466282	-0.0122112	2	0.0331993	11	0	22.2692	-5.69386e-06
2	0	0	1	0	1	431.043	0.45353	0.453321	-0.0122839	2	0.03317	11	0	24.8656	-5.56854e-06
2	1	0	1	0	0	433.496	0.458774	0.458539	0.0124543	3	0.0331803	11	0	1.6977	5.71081e-06
2	1	0	1	0	0	436.093	0.471756	0.471501	0.0127054	3	0.0332098	11	0	4.2941	5.99061e-06
2	1	0	1	0	0	438.689	0.484738	0.484502	0.0115401	3	0.0332395	11	0	6.8905	5.59122e-06
2	1	0	1	0	0	441.286	0.49772	0.497478	0.0104858	3	0.033269	11	0	9.4869	5.21645e-06
2	1	0	1	0	0	443.882	0.510702	0.510492	0.0101845	3	0.0332984	11	0	12.0833	5.19908e-06
2	0	0	1	0	0	446.478	0.523684	0.523457	0.0105026	3	0.0333279	11	0	14.6797	5.49765e-06
2	1	0	1	0	0	449.075	0.536666	0.53639	0.0117018	3	0.0333582	11	0	17.2761	6.27674e-06
2	1	0	1	0	0	451.671	0.549648	0.5494	0.0134088	3	0.0333898	11	0	19.8725	7.36678e-06
2	1	0	1	0	0	454.268	0.56263	0.562406	0.0151194	3	0.0334244	11	0	22.4689	8.50326e-06
2	1	0	1	0	0	456.864	0.575612	0.575336	0.0174088	3	0.0334642	11	0	25.0653	1.00159e-05
2	1	0	1	0	0	459.46	0.588594	0.588331	0.0222315	3	0.0335146	11	0	27.6617	1.30795e-05
2	1	0	1	0	0	462.057	0.601576	0.601406	0.0321915	3	0.0335852	11	0	30.2581	1.93602e-05
2	1	0	1	0	0	464.653	0.614558	0.614335	0.0524882	3	0.0336949	11	0	32.8545	3.22453e-05
2	1	0	1	0	0	467.25	0.62754	0.62731	0.0920062	3	0.03388	11	0	35.4509	5.77164e-05
2	1	0	1	0	0	469.846	0.640522	0.640275	0.16499	3	0.034207	11	0	38.0473	0.000105639
2	1	0	1	0	0	472.442	0.653504	0.653271	0.292156	3	0.0347893	11	0	40.6437	0.000190857
2	1	0	1	0	0	475.039	0.666486	0.6663	0.498516	3	0.0357973	11	0	43.2401	0.000332161
2	1	0	1	0	0	477.635	0.679468	0.679228	0.79455	3	0.0374579	11	0	45.8365	0.00053968
2	1	0	1	0	0	480.232	0.69245	0.692216	1.19183	3	0.0400269	11	0	48.4329	0.000825003
2	1	0	0	0	0	482.601	0.695695	0.695492	1.26326	3	0.0431759	11	0	50.8018	0.00087859
2	1	0	0	0	0	485.197	0.682713	0.68253	0.828757	3	0.0458569	11	0	53.3982	0.000565651
2	1	0	0	0	0	487.793	0.669731	0.669443	0.508997	3	0.0475647	11	0	55.9946	0.000340744
2	1	0	0	0	0	490.39	0.656749	0.656496	0.300553	3	0.0485984	11	0	58.591	0.000197312
2	1	0	0	0	0	492.986	0.643767	0.643539	0.166843	3	0.0491928	11	0	61.1874	0.00010737
2	1	0	0	0	0	495.583	0.630785	0.630566	0.0861726	3	0.0495088	11	0	63.7838	5.43375e-05
2	1	0	0	0	0	498.179	0.617803	0.617542	0.0422533	3	0.0496663	11	0	66.3802	2.60932e-05
2	1	0	0	0	0	500.775	0.604821	0.60462	0.0188239	3	0.0497394	11	0	68.9766	1.13813e-05
2	1	0	0	0	0	503.372	0.591839	0.59158	0.006181	3	0.0497669	11	0	71.573	3.65656e-06
2	1	0	0	0	0	505.968	0.578857	0.578609	-0.000682191	3	0.0497707	11	0	0.1997	-3.94722e-07
2	0	0	0	0	0	508.565	0.565875	0.565682	-0.00513322	3	0.0497619	11	0	2.3967	-2.90377e-06
2	0	0	0	0	0	511.161	0.552893	0.552663	-0.00689622	3	0.0497461	11	0	4.9931	-3.81128e-06
2	0	0	0	0	0	513.757	0.539911	0.539726	-0.00825964	3	0.0497263	11	0	7.5895	-4.45794e-06
2	0	0	0	0	0	516.354	0.526929	0.526718	-0.00865229	3	0.0497042	11	0	10.1859	-4.55732e-06
2	0	0	0	0	0	518.95	0.513947	0.513711	-0.00911525	3	0.0496803	11	0	12.7823	-4.6826e-06
2	0	0	0	0	0	521.547	0.500965	0.5007	-0.0096648	3	0.0496551	11	0	15.3787	-4.83917e-06
2	0	0	0	0	0	524.143	0.487983	0.487777	-0.0100268	3	0.0496288	11	0	17.9751	-4.89082e-06
2	0	0	0	0	0	526.739	0.475001	0.47476	-0.0104679	3	0.0496015	11	0	20.5715	-4.96975e-06
2	1	0	0	0	0	529.336	0.462019	0.461787	-0.0104387	3	0.049573	11	0	23.1679	-4.82045e-06
2	1	0	0	0	1	531.79	0.450285	0.450076	0.00695775	4	0.049546	11	0	0.000000000000000E+000	3.13152e-06
2	1	0	0	0	1	534.386	0.463267	0.463036	0.0111393	4	0.0495739	11	0	2.5964	5.15791e-06
2	1	0	0	0	1	536.982	0.476249	0.475995	0.0106201	4	0.0496033	11	0	5.1928	5.05514e-06
2	1	0	0	0	1	539.579	0.489231	0.489011	0.0114514	4	0.0496329	11	0	7.7892	5.59987e-06
2	1	0	0	0	1	542.175	0.502213	0.501914	0.0116608	4	0.0496622	11	0	10.3856	5.85271e-06
2	1	0	0	0	1	544.772	0.515195	0.514971	0.0122632	4	0.0496916	11	0	12.982	6.31517e-06
2	1	0	0	0	1	547.368	0.528177	0.527971	0.0125673	4	0.0497211	11	0	15.5784	6.63518e-06
2	1	0	0	0	1	549.964	0.541159	0.540885	0.0130579	4	0.0497515	11	0	18.1748	7.06281e-06
2	1	0	0	0	1	552.561	0.554141	0.553912	0.0134827	4	0.0497837	11	0	20.7712	7.46823e-06
2	1	0	0	0	1	555.157	0.567123	0.566872	0.014833	4	0.0498193	11	0	23.3676	8.4084e-06
2	1	0	0	0	1	557.754	0.580105	0.57986	0.0180878	4	0.0498617	11	0	25.964	1.04884e-05
2	1	0	0	0	1	560.35	0.593087	0.592872	0.0259722	4	0.0499173	11	0	28.5604	1.53982e-05
2	1	0	0	0	1	562.946	0.606069	0.605851	0.0390883	4	0.0499979	11	0	31.1568	2.36817e-05
2	1	0	0	0	1	565.543	0.619051	0.618811	0.0643843	4	0.0501272	11	0	33.7532	3.98418e-05
2	1	0	0	0	1	568.139	0.632033	0.631795	0.112638	4	0.0503497	11	0	36.3496	7.11642e-05
2	1	0	0	0	1	570.736	0.645015	0.644825	0.200223	4	0.0507453	11	0	38.946	0.000129109
2	1	0	0	0	1	573.332	0.657997	0.657777	0.350586	4	0.0514466	11	0	41.5424	0.000230607
2	1	0	0	0	1	575.928	0.670979	0.670777	0.580736	4	0.0526398	11	0	44.1388	0.000389544
2	1	0	0	0	1	578.525	0.683961	0.683747	0.90317	4	0.0545513	11	0	46.7352	0.000617541
2	1	0	0	0	1	581.121	0.696943	0.696682	1.32898	4	0.0574362	11	0	49.3316	0.000925875
2	1	0	1	0	1	583.49	0.691201	0.690959	1.07337	4	0.0604787	11	0	51.7006	0.000741653
2	1	0	1	0	1	586.087	0.678219	0.677979	0.689994	4	0.0627321	11	0	54.297	0.000467802
2	1	0	1	0	1	588.683	0.665237	0.665051	0.426082	4	0.0641602	11	0	56.8934	0.000283366
2	1	0	1	0	1	591.279	0.652255	0.652076	0.244957	4	0.0650099	11	0	59.4898	0.000159731
2	1	0	1	0	1	593.876	0.639273	0.639086	0.132425	4	0.0654839	11	0	62.0862	8.4631e-05
2	1	0	1	0	1	596.472	0.626291	0.626101	0.0671638	4	0.0657336	11	0	64.6826	4.20513e-05
2	1	0	1	0	1	599.069	0.613309	0.613107	0.0306946	4	0.0658554	11	0	67.279	1.88191e-05
2	1	0	1	0	1	601.665	0.600327	0.600089	0.0112383	4	0.0659086	11	0	69.8754	6.74396e-06
2	0	0	1	0	1	604.261	0.587345	0.587111	0.00108036	4	0.065926	11	0	72.4718	6.34291e-07
2	0	0	1	0	1	606.858	0.574363	0.574111	-0.00389394	4	0.0659246	11	0	0.7989	-2.23555e-06
2	0	0	1	0	1	609.454	0.561381	0.561176	-0.00658419	4	0.065913	11	0	3.3953	-3.69489e-06
2	0	0	1	0	1	612.051	0.548399	0.548194	-0.00740107	4	0.0658958	11	0	5.9917	-4.05722e-06
2	1	0	1	0	1	614.647	0.535417	0.535161	-0.00719175	4	0.0658751	11	0	8.5881	-3.84875e-06
2	1	0	1	0	1	617.243	0.522435	0.522203	-0.00800673	4	0.0658524	11	0	11.1845	-4.18114e-06
2	0	0	1	0	1	619.84	0.509453	0.509216	-0.00901004	4	0.0658281	11	0	13.7809	-4.58805e-06
2	0	0	1	0	1	622.436	0.496471	0.496247	-0.0110273	4	0.0658027	11	0	16.3773	-5.47225e-06
2	0	0	1	0	1	625.033	0.483489	0.48326	-0.0105389	4	0.0657765	11	0	18.9737	-5.09303e-06
2	1	0	1	0	1	627.629	0.470507	0.47028	-0.00958772	4	0.0657489	11	0	21.5701	-4.50891e-06
2	1	0	1	0	1	630.225	0.457525	0.457255	-0.0096704	4	0.0657202	11	0	24.1665	-4.42184e-06
2	1	0	1	0	0	632.679	0.454779	0.454578	0.0120851	5	0.0657126	11	0	0.8988	5.4936e-06
2	1	0	1	0	0	635.276	0.467761	0.467542	0.0126515	5	0.0657418	11	0	3.4952	5.91509e-06
2	1	0	1	0	0	637.872	0.480743	0.480515	0.0125867	5	0.0657715	11	0	6.0916	6.04812e-06
2	1	0	1	0	0	640.468	0.493725	0.493491	0.0124196	5	0.0658012	11	0	8.688	6.12897e-06
2	1	0	1	0	0	643.065	0.506707	0.506525	0.0126307	5	0.0658307	11	0	11.2844	6.39776e-06
2	1	0	1	0	0	645.661	0.519689	0.519457	0.0126569	5	0.0658602	11	0	13.8808	6.57472e-06
2	1	0	1	0	0	648.258	0.532671	0.53241	0.0122289	5	0.06589	11	0	16.4772	6.5108e-06
2	1	0	1	0	0	650.854	0.545653	0.54546	0.0130858	5	0.065921	11	0	19.0736	7.13778e-06
2	1	0	1	0	0	653.45	0.558635	0.55843	0.0140862	5	0.065954	11	0	21.67	7.86617e-06
2	1	0	1	0	0	656.047	0.571617	0.571405	0.0163511	5	0.0659915	11	0	24.2664	9.34313e-06
2	1	0	1	0	0	658.643	0.584599	0.584354	0.0204719	5	0.0660374	11	0	26.8628	1.19628e-05
2	1	0	1	0	0	661.24	0.597581	0.597331	0.0288055	5	0.0660995	11	0	29.4592	1.72064e-05
2	1	0	1	0	0	663.836	0.610563	0.61038	0.0454003	5	0.0661927	11	0	32.0556	2.77114e-05
2	1	0	1	0	0	666.432	0.623545	0.623304	0.0771112	5	0.0663462	11	0	34.652	4.80638e-05
2	1	0	1	0	0	669.029	0.636527	0.636291	0.136425	5	0.0666151	11	0	37.2484	8.68059e-05
2	1	0	1	0	0	671.625	0.649509	0.649269	0.241989	5	0.0670944	11	0	39.8448	0.000157116
2	1	0	1	0	0	674.222	0.662491	0.662283	0.417048	5	0.0679345	11	0	42.4412	0.000276203
2	1	0	1	0	0	676.818	0.675473	0.675282	0.67866	5	0.0693425	11	0	45.0376	0.000458287
2	1	0	1	0	0	679.414	0.688455	0.688256	1.03959	5	0.071546	11	0	47.634	0.000715502
2	1	0	1	0	0	681.783	0.69969	0.699459	1.3933	5	0.0744577	11	0	50.0029	0.000974558
2	1	0	1	0	0	684.38	0.686708	0.686507	0.894328	5	0.0773831	11	0	52.5993	0.000613962
2	1	0	1	0	0	686.976	0.673726	0.673532	0.57937	5	0.0792796	11	0	55.1957	0.000390224
2	1	0	1	0	0	689.572	0.660744	0.660465	0.348602	5	0.0804651	11	0	57.7921	0.000230239
2	1	0	1	0	0	692.169	0.647762	0.647547	0.196044	5	0.0811543	11	0	60.3885	0.000126947
2	1	0	1	0	0	694.765	0.63478	0.63454	0.10359	5	0.0815319	11	0	62.9849	6.57318e-05
2	1	0	1	0	0	697.362	0.621798	0.621543	0.0509394	5	0.0817244	11	0	65.5813	3.1661e-05
2	1	0	1	0	0	699.958	0.608816	0.608642	0.0226972	5	0.0818156	11	0	68.1777	1.38145e-05
2	1	0	1	0	0	702.554	0.595834	0.595609	0.00796915	5	0.0818529	11	0	70.7741	4.7465e-06
2	0	0	1	0	0	705.151	0.582852	0.582602	-0.000624036	5	0.0818621	11	0	0.000000000000000E+000	-3.63565e-07
2	0	0	1	0	0	707.747	0.56987	0.569647	-0.00531032	5	0.0818563	11	0	1.8974	-3.02501e-06
2	0	0	1	0	0	710.344	0.556888	0.556707	-0.00766522	5	0.0818423	11	0	4.4938	-4.26728e-06
2	0	0	1	0	0	712.94	0.543906	0.543644	-0.00876215	5	0.0818236	11	0	7.0902	-4.76349e-06
2	0	0	1	0	0	715.536	0.530924	0.530696	-0.00967079	5	0.0818022	11	0	9.6866	-5.13225e-06
2	0	0	1	0	0	718.133	0.517942	0.517725	-0.0102865	5	0.0817791	11	0	12.283	-5.32555e-06
2	0	0	1	0	0	720.729	0.50496	0.50469	-0.0102864	5	0.0817546	11	0	14.8794	-5.19144e-06
2	0	0	1	0	0	723.326	0.491978	0.491751	-0.0105268	5	0.0817289	11	0	17.4758	-5.17656e-06
2	0	0	1	0	0	725.922	0.478996	0.478777	-0.0107599	5	0.0817022	11	0	20.0722	-5.15159e-06
2	0	0	1	0	0	728.518	0.466014	0.465734	-0.0116595	5	0.0816742	11	0	22.6686	-5.43023e-06
2	0	0	1	0	0	731.115	0.453032	0.452799	-0.0121997	5	0.0816451	11	0	25.265	-5.524e-06
2	1	0	1	0	1	733.569	0.459273	0.459018	0.00956072	6	0.0816573	11	0	1.7975	4.38854e-06
2	0	0	1	0	1	736.165	0.472255	0.472043	0.0100341	6	0.0816866	11	0	4.3939	4.73651e-06
2	0	0	1	0	1	738.761	0.485237	0.484997	0.0100875	6	0.0817162	11	0	6.9903	4.89239e-06
2	0	0	1	0	1	741.358	0.498219	0.497978	0.00995804	6	0.0817456	11	0	9.5867	4.95888e-06
2	1	0	1	0	1	743.954	0.511201	0.510975	0.00973555	6	0.081775	11	0	12.1831	4.97462e-06
2	0	0	1	0	1	746.551	0.524183	0.523943	0.010117	6	0.0818045	11	0	14.7795	5.30073e-06
2	0	0	1	0	1	749.147	0.537165	0.536965	0.0107063	6	0.0818345	11	0	17.3759	5.74889e-06
2	1	0	1	0	1	751.743	0.550147	0.549946	0.0116387	6	0.081866	11	0	19.9723	6.40066e-06
2	1	0	1	0	1	754.34	0.563129	0.562927	0.0129315	6	0.0819002	11	0	22.5687	7.27951e-06
2	1	0	1	0	1	756.936	0.576111	0.575919	0.0161867	6	0.0819397	11	0	25.1651	9.3222e-06
2	1	0	1	0	1	759.533	0.589093	0.588875	0.0224968	6	0.0819897	11	0	27.7615	1.32478e-05
2	1	0	1	0	1	762.129	0.602075	0.601804	0.0332156	6	0.0820597	11	0	30.3579	1.99893e-05
2	1	0	1	0	1	764.725	0.615057	0.614817	0.0539211	6	0.0821685	11	0	32.9543	3.31516e-05
2	1	0	1	0	1	767.322	0.628039	0.627799	0.0935021	6	0.0823523	11	0	35.5507	5.87005e-05
2	1	0	1	0	1	769.918	0.641021	0.640857	0.165863	6	0.0826771	11	0	38.1471	0.000106294
2	1	0	1	0	1	772.515	0.654003	0.653796	0.291785	6	0.0832549	11	0	40.7435	0.000190767
2	1	0	1	0	1	775.111	0.666985	0.666791	0.49217	6	0.0842545	11	0	43.3399	0.000328175
2	1	0	1	0	1	777.707	0.679966	0.679697	0.784195	6	0.0858939	11	0	45.9363	0.000533015
2	1	0	1	0	1	780.304	0.692949	0.692674	1.17087	6	0.0884065	11	0	48.5327	0.000811031
2	1	0	1	0	1	782.673	0.695196	0.694958	1.19766	6	0.0914726	11	0	50.9017	0.000832322
2	1	0	1	0	1	785.269	0.682213	0.682012	0.78809	6	0.0940287	11	0	53.4981	0.000537487
2	1	0	1	0	1	787.866	0.669231	0.669009	0.488008	6	0.0956633	11	0	56.0945	0.000326482
2	1	0	1	0	1	790.462	0.65625	0.656049	0.285875	6	0.0966483	11	0	58.6909	0.000187548
2	1	0	1	0	1	793.058	0.643268	0.643076	0.157748	6	0.0972082	11	0	61.2873	0.000101444
2	1	0	1	0	1	795.655	0.630286	0.630061	0.0817069	6	0.097506	11	0	63.8837	5.14804e-05
2	1	0	1	0	1	798.251	0.617303	0.617109	0.0394751	6	0.0976544	11	0	66.4801	2.43604e-05
2	1	0	1	0	1	800.848	0.604321	0.604152	0.0171836	6	0.097722	11	0	69.0765	1.03815e-05
2	1	0	1	0	1	803.444	0.591339	0.591082	0.0053692	6	0.0977468	11	0	71.6729	3.17364e-06
2	1	0	1	0	1	806.04	0.578358	0.578133	-0.000851873	6	0.0977495	11	0	0.000000000000000E+000	-4.92495e-07
2	0	0	1	0	1	808.637	0.565376	0.565146	-0.00457642	6	0.0977402	11	0	2.4966	-2.58635e-06
2	0	0	1	0	1	811.233	0.552393	0.552155	-0.00723494	6	0.0977244	11	0	5.093	-3.99481e-06
2	0	0	1	0	1	813.83	0.539411	0.53917	-0.00911391	6	0.0977047	11	0	7.6894	-4.91395e-06
2	0	0	1	0	1	816.426	0.526429	0.526199	-0.00859758	6	0.0976829	11	0	10.2858	-4.52404e-06
2	1	0	1	0	1	819.022	0.513448	0.513182	-0.00803546	6	0.0976593	11	0	12.8822	-4.12365e-06
2	1	0	1	0	1	821.619	0.500466	0.500223	-0.00831234	6	0.0976343	11	0	15.4786	-4.15802e-06
2	0	0	1	0	1	824.215	0.487484	0.48728	-0.00968948	6	0.0976082	11	0	18.075	-4.72149e-06
2	0	0	1	0	1	826.812	0.474502	0.474245	-0.0111281	6	0.0975813	11	0	20.6714	-5.27745e-06
2	0	0	1	0	1	829.408	0.461519	0.461289	-0.0109388	6	0.0975529	11	0	23.2678	-5.04595e-06
2	0	0	1	0	0	831.862	0.450785	0.450517	0.00830266	7	0.0975279	11	0	0.0999	3.74049e-06
2	1	0	1	0	0	834.458	0.463767	0.463514	0.01178	7	0.0975564	11	0	2.6963	5.46018e-06
2	1	0	1	0	0	837.055	0.476749	0.476502	0.0120394	7	0.0975857	11	0	5.2927	5.7368e-06
2	1	0	1	0	0	839.651	0.489731	0.489504	0.00999642	7	0.0976151	11	0	7.8891	4.89329e-06
2	1	0	1	0	0	842.247	0.502713	0.502499	0.0109499	7	0.0976446	11	0	10.4855	5.5023e-06
2	1	0	1	0	0	844.844	0.515695	0.515495	0.0121862	7	0.0976738	11	0	13.0819	6.28194e-06
2	0	0	1	0	0	847.44	0.528677	0.528463	0.0101634	7	0.0977034	11	0	15.6783	5.37097e-06
2	1	0	1	0	0	850.037	0.541659	0.541427	0.0123208	7	0.0977338	11	0	18.2747	6.6708e-06
2	1	0	1	0	0	852.633	0.554641	0.5544	0.0131578	7	0.0977656	11	0	20.8711	7.29466e-06
2	1	0	1	0	0	855.229	0.567623	0.567407	0.0137556	7	0.0978011	11	0	23.4675	7.80505e-06
2	1	0	1	0	0	857.826	0.580605	0.580389	0.018285	7	0.0978432	11	0	26.0639	1.06124e-05
2	1	0	1	0	0	860.422	0.593587	0.593358	0.0240587	7	0.0978985	11	0	28.6603	1.42754e-05
2	1	0	1	0	0	863.019	0.606569	0.606383	0.0391672	7	0.0979785	11	0	31.2567	2.37503e-05
2	1	0	1	0	0	865.615	0.619551	0.619309	0.0631818	7	0.0981066	11	0	33.8531	3.9129e-05
2	1	0	1	0	0	868.211	0.632533	0.632315	0.110226	7	0.0983276	11	0	36.4495	6.96975e-05
2	1	0	1	0	0	870.808	0.645515	0.645334	0.199077	7	0.0987205	11	0	39.0459	0.000128471
2	1	0	1	0	0	873.404	0.658497	0.658224	0.34723	7	0.0994142	11	0	41.6423	0.000228555
2	1	0	1	0	0	876.001	0.671479	0.671266	0.575543	7	0.100594	11	0	44.2387	0.000386342
2	1	0	1	0	0	878.597	0.684461	0.684252	0.894832	7	0.102481	11	0	46.8351	0.000612291
2	1	0	1	0	0	881.193	0.697443	0.697211	1.2905	7	0.10531	11	0	49.4315	0.000899749
2	1	0	1	0	0	883.562	0.690702	0.69049	1.03447	7	0.108204	11	0	51.8004	0.000714289
2	1	0	1	0	0	886.159	0.67772	0.6775	0.651961	7	0.11036	11	0	54.3968	0.000441704
2	1	0	1	0	0	888.755	0.664738	0.664482	0.402983	7	0.111707	11	0	56.9932	0.000267775
2	1	0	1	0	0	891.352	0.651756	0.651542	0.228533	7	0.11251	11	0	59.5896	0.000148899
2	1	0	1	0	0	893.948	0.638774	0.638553	0.121617	7	0.112953	11	0	62.186	7.76588e-05
2	1	0	1	0	0	896.544	0.625792	0.625538	0.0602549	7	0.113184	11	0	64.7824	3.76917e-05
2	1	0	1	0	0	899.141	0.61281	0.612606	0.0274858	7	0.113296	11	0	67.3788	1.6838e-05
2	1	0	1	0	0	901.737	0.599828	0.599586	0.0104348	7	0.113344	11	0	69.9752	6.25657e-06
2	0	0	1	0	0	904.334	0.586846	0.586635	0.00131621	7	0.113359	11	0	72.5716	7.72135e-07
2	0	0	1	0	0	906.93	0.573864	0.573632	-0.00372468	7	0.113356	11	0	1.0985	-2.1366e-06
2	0	0	1	0	0	909.526	0.560882	0.560636	-0.00672067	7	0.113344	11	0	3.6949	-3.76784e-06
2	0	0	1	0	0	912.123	0.5479	0.547668	-0.00785195	7	0.113326	11	0	6.2913	-4.30026e-06
2	0	0	1	0	0	914.719	0.534918	0.534675	-0.00890959	7	0.113306	11	0	8.8877	-4.76374e-06
2	0	0	1	0	0	917.316	0.521936	0.521682	-0.00992661	7	0.113283	11	0	11.4841	-5.17853e-06
2	0	0	1	0	0	919.912	0.508954	0.508702	-0.0102424	7	0.113259	11	0	14.0805	-5.21031e-06
2	0	0	1	0	0	922.508	0.495972	0.495759	-0.0102589	7	0.113233	11	0	16.6769	-5.08593e-06
2	0	0	1	0	0	925.105	0.48299	0.482785	-0.00955797	7	0.113207	11	0	19.2733	-4.61444e-06
2	0	0	1	0	0	927.701	0.470008	0.46978	-0.0115352	7	0.113179	11	0	21.8697	-5.41902e-06
2	0	0	1	0	0	930.298	0.457026	0.456787	-0.0101419	7	0.11315	11	0	24.4661	-4.63269e-06
2	1	0	1	0	1	932.751	0.455279	0.455017	0.011107	8	0.113144	11	0	0.9987	5.05387e-06
2	0	0	1	0	1	935.348	0.46826	0.468029	0.0101336	8	0.113173	11	0	3.595	4.74281e-06
2	1	0	1	0	1	937.944	0.481243	0.481008	0.0123443	8	0.113203	11	0	6.1915	5.93771e-06
2	1	0	1	0	1	940.541	0.494225	0.49401	0.0101135	8	0.113232	11	0	8.7879	4.9962e-06
2	1	0	1	0	1	943.137	0.507206	0.506968	0.0101462	8	0.113261	11	0	11.3842	5.14377e-06
2	1	0	1	0	1	945.733	0.520189	0.519967	0.0116156	8	0.11329	11	0	13.9807	6.03975e-06
2	1	0	1	0	1	948.33	0.533171	0.532931	0.0126882	8	0.11332	11	0	16.5771	6.76191e-06
2	1	0	1	0	1	950.926	0.546153	0.545891	0.0130649	8	0.11335	11	0	19.1735	7.132e-06
2	1	0	1	0	1	953.523	0.559135	0.558889	0.0138055	8	0.113383	11	0	21.7699	7.71576e-06
2	1	0	1	0	1	956.119	0.572116	0.571879	0.0157022	8	0.11342	11	0	24.3662	8.97975e-06
2	1	0	1	0	1	958.715	0.585098	0.584852	0.0187858	8	0.113465	11	0	26.9626	1.09869e-05
2	1	0	1	0	1	961.312	0.598081	0.597878	0.0274466	8	0.113527	11	0	29.5591	1.64097e-05
2	1	0	1	0	1	963.908	0.611063	0.610873	0.0450588	8	0.113619	11	0	32.1555	2.75252e-05
2	1	0	1	0	1	966.505	0.624045	0.62382	0.0758428	8	0.11377	11	0	34.7519	4.73122e-05
2	1	0	1	0	1	969.101	0.637026	0.636854	0.133059	8	0.114033	11	0	37.3482	8.4739e-05
2	1	0	1	0	1	971.697	0.650008	0.6498	0.237018	8	0.114504	11	0	39.9446	0.000154014
2	1	0	1	0	1	974.294	0.662991	0.662793	0.408457	8	0.115327	11	0	42.5411	0.000270723
2	1	0	1	0	1	976.89	0.675973	0.675729	0.663989	8	0.116698	11	0	45.1375	0.000448677
2	1	0	1	0	1	979.487	0.688955	0.688804	1.01099	8	0.11885	11	0	47.7339	0.000696374
2	1	0	0	0	1	981.856	0.69919	0.698948	1.30031	8	0.121665	11	0	50.1028	0.000908853
2	1	0	0	0	1	984.452	0.686208	0.685991	0.83699	8	0.124406	11	0	52.6992	0.000574168
2	1	0	0	0	1	987.048	0.673226	0.673058	0.55258	8	0.126181	11	0	55.2956	0.000371918
2	1	0	0	0	1	989.645	0.660244	0.660004	0.329338	8	0.127304	11	0	57.892	0.000217364
2	1	0	0	0	1	992.241	0.647262	0.647003	0.183867	8	0.127952	11	0	60.4884	0.000118962
2	1	0	0	0	1	994.838	0.63428	0.634071	0.0966165	8	0.128303	11	0	63.0848	6.12618e-05
2	1	0	0	0	1	997.434	0.621298	0.621047	0.0474615	8	0.128481	11	0	65.6812	2.94758e-05
2	1	0	0	0	1	1000.03	0.608316	0.60812	0.020583	8	0.128565	11	0	68.2776	1.25169e-05
2	0	0	0	0	1	1002.63	0.595334	0.595118	0.00581817	8	0.128598	11	0	70.874	3.4625e-06
2	1	0	0	0	1	1005.22	0.582352	0.582169	0.000308898	8	0.128606	11	0	0.0999	1.79831e-07
2	0	0	0	0	1	1007.82	0.56937	0.569166	-0.00411128	8	0.128599	11	0	2.0971	-2.34e-06
2	0	0	0	0	1	1010.42	0.556388	0.556134	-0.00723755	8	0.128584	11	0	4.6935	-4.02505e-06
2	1	0	0	0	1	1013.01	0.543406	0.543163	-0.00706445	8	0.128566	11	0	7.2899	-3.83715e-06
2	0	0	0	0	1	1015.61	0.530424	0.530221	-0.00888421	8	0.128544	11	0	9.8863	-4.71059e-06
2	1	0	0	0	1	1018.21	0.517442	0.51721	-0.00861061	8	0.128521	11	0	12.4827	-4.45349e-06
2	0	0	0	0	1	1020.8	0.50446	0.504197	-0.00976236	8	0.128496	11	0	15.0791	-4.92215e-06
2	0	0	0	0	1	1023.4	0.491478	0.491247	-0.00992691	8	0.128471	11	0	17.6755	-4.87656e-06
2	0	0	0	0	1	1025.99	0.478496	0.47828	-0.0100508	8	0.128443	11	0	20.2719	-4.80708e-06
2	0	0	0	0	1	1028.59	0.465514	0.465258	-0.0120669	8	0.128415	11	0	22.8683	-5.61421e-06
2	1	0	0	0	1	1031.19	0.452532	0.452274	-0.0102072	8	0.128386	11	0	25.4647	-4.61645e-06
2	1	0	0	0	0	1033.64	0.459772	0.459516	0.0106816	9	0.1284	11	0	1.8974	4.90836e-06
2	1	0	0	0	0	1036.24	0.472754	0.472488	0.0112648	9	0.12843	11	0	4.4938	5.32247e-06
2	1	0	0	0	0	1038.83	0.485736	0.485543	0.0108492	9	0.128459	11	0	7.0902	5.26777e-06
2	1	0	0	0	0	1041.43	0.498718	0.498475	0.0118028	9	0.128488	11	0	9.6866	5.88339e-06
2	1	0	0	0	0	1044.03	0.5117	0.511426	0.0107816	9	0.128517	11	0	12.283	5.51401e-06
2	1	0	0	0	0	1046.62	0.524682	0.524435	0.0105976	9	0.128547	11	0	14.8794	5.55774e-06
2	1	0	0	0	0	1049.22	0.537664	0.537456	0.0125189	9	0.128576	11	0	17.4758	6.72833e-06
2	0	0	0	0	0	1051.82	0.550646	0.550431	0.0114793	9	0.128607	11	0	20.0722	6.31858e-06
2	1	0	0	0	0	1054.41	0.563628	0.56341	0.0139818	9	0.128641	11	0	22.6686	7.87751e-06
2	1	0	0	0	0	1057.01	0.57661	0.576375	0.0174488	9	0.128681	11	0	25.265	1.00571e-05
2	1	0	0	0	0	1059.6	0.589592	0.589357	0.0212108	9	0.12873	11	0	27.8614	1.25007e-05
2	1	0	0	0	0	1062.2	0.602574	0.602332	0.0315072	9	0.128799	11	0	30.4578	1.89778e-05
2	1	0	0	0	0	1064.8	0.615556	0.615355	0.0517928	9	0.128906	11	0	33.0542	3.18709e-05
2	1	0	0	0	0	1067.39	0.628538	0.628317	0.0917008	9	0.129088	11	0	35.6506	5.76171e-05
2	1	0	0	0	0	1069.99	0.64152	0.641297	0.160922	9	0.129407	11	0	38.247	0.000103199
2	1	0	0	0	0	1072.59	0.654502	0.654269	0.28746	9	0.129976	11	0	40.8434	0.000188076
2	1	0	0	0	0	1075.18	0.667484	0.667265	0.484678	9	0.130961	11	0	43.4398	0.000323409
2	1	0	0	0	0	1077.78	0.680466	0.680259	0.768393	9	0.132572	11	0	46.0362	0.000522706
2	1	0	0	0	0	1080.38	0.693448	0.69321	1.13473	9	0.135033	11	0	48.6326	0.000786605
2	1	0	1	0	0	1082.75	0.694697	0.694478	1.12138	9	0.13795	11	0	51.0015	0.000778773
2	1	0	1	0	0	1085.34	0.681715	0.681482	0.723241	9	0.140313	11	0	53.5979	0.000492876
2	1	0	1	0	0	1087.94	0.668733	0.668476	0.444816	9	0.141803	11	0	56.1943	0.000297349
2	1	0	1	0	0	1090.53	0.655751	0.655507	0.264646	9	0.142705	11	0	58.7907	0.000173477
2	1	0	1	0	0	1093.13	0.642769	0.642572	0.144682	9	0.143226	11	0	61.3871	9.29685e-05
2	1	0	1	0	0	1095.73	0.629787	0.629563	0.0747943	9	0.1435	11	0	63.9835	4.70877e-05
2	1	0	1	0	0	1098.32	0.616805	0.616553	0.0364039	9	0.143637	11	0	66.5799	2.24449e-05
2	1	0	1	0	0	1100.92	0.603823	0.603645	0.0148519	9	0.143699	11	0	69.1763	8.96526e-06
2	0	0	1	0	0	1103.52	0.590841	0.590576	0.00299161	9	0.14372	11	0	71.7727	1.76677e-06
2	0	0	1	0	0	1106.11	0.577859	0.57761	-0.00314294	9	0.143722	11	0	0.3994	-1.81539e-06
2	0	0	1	0	0	1108.71	0.564877	0.56464	-0.00553558	9	0.143712	11	0	2.9958	-3.12561e-06
2	1	0	1	0	0	1111.31	0.551895	0.551653	-0.0061099	9	0.143695	11	0	5.5922	-3.37054e-06
2	1	0	1	0	0	1113.9	0.538913	0.5387	-0.00681387	9	0.143675	11	0	8.1886	-3.67063e-06
2	1	0	1	0	0	1116.5	0.525931	0.5257	-0.00845717	9	0.143653	11	0	10.785	-4.44593e-06
2	0	0	1	0	0	1119.09	0.512949	0.512674	-0.0104642	9	0.14363	11	0	13.3814	-5.36473e-06
2	0	0	1	0	0	1121.69	0.499967	0.499714	-0.00884836	9	0.143605	11	0	15.9778	-4.42165e-06
2	1	0	1	0	0	1124.29	0.486985	0.486788	-0.00919402	9	0.143579	11	0	18.5742	-4.47554e-06
2	0	0	1	0	0	1126.88	0.474003	0.473768	-0.0114151	9	0.143551	11	0	21.1706	-5.40814e-06
2	0	0	1	0	0	1129.48	0.461021	0.460782	-0.012424	9	0.143523	11	0	23.767	-5.72473e-06
2	0	0	1	0	1	1131.93	0.451284	0.451097	0.00870409	10	0.1435	11	0	0.1997	3.92639e-06
2	0	0	1	0	1	1134.53	0.464266	0.463998	0.0100214	10	0.143528	11	0	2.7961	4.64989e-06
2	0	0	1	0	1	1137.13	0.477248	0.477017	0.0100983	10	0.143557	11	0	5.3925	4.81706e-06
2	0	0	1	0	1	1139.72	0.49023	0.490036	0.0101538	10	0.143587	11	0	7.9889	4.97573e-06
2	1	0	1	0	1	1142.32	0.503212	0.502954	0.0107542	10	0.143616	11	0	10.5853	5.40887e-06
2	1	0	1	0	1	1144.92	0.516193	0.515991	0.0112464	10	0.143645	11	0	13.1817	5.80305e-06
2	1	0	1	0	1	1147.51	0.529175	0.529013	0.0115454	10	0.143674	11	0	15.7781	6.10767e-06
2	1	0	1	0	1	1150.11	0.542158	0.541896	0.012268	10	0.143704	11	0	18.3745	6.648e-06
2	0	0	1	0	1	1152.71	0.55514	0.554901	0.0115551	10	0.143736	11	0	20.9709	6.41195e-06
2	0	0	1	0	1	1155.3	0.568122	0.567927	0.013283	10	0.143771	11	0	23.5673	7.54379e-06
2	1	0	1	0	1	1157.9	0.581103	0.580891	0.017015	10	0.143813	11	0	26.1637	9.88388e-06
2	1	0	1	0	1	1160.49	0.594085	0.593873	0.023437	10	0.143867	11	0	28.7601	1.39186e-05
2	1	0	1	0	1	1163.09	0.607068	0.60682	0.0365983	10	0.143946	11	0	31.3565	2.22086e-05
2	1	0	1	0	1	1165.69	0.62005	0.619803	0.0616748	10	0.144073	11	0	33.9529	3.82262e-05
2	1	0	1	0	1	1168.28	0.633031	0.632783	0.109408	10	0.14429	11	0	36.5493	6.92314e-05
2	1	0	1	0	1	1170.88	0.646014	0.645799	0.195756	10	0.144677	11	0	39.1457	0.000126419
2	1	0	1	0	1	1173.48	0.658995	0.658698	0.341161	10	0.14536	11	0	41.7421	0.000224722
2	1	0	1	0	1	1176.07	0.671978	0.67179	0.564815	10	0.146519	11	0	44.3385	0.000379437
2	1	0	1	0	1	1178.67	0.68496	0.684769	0.873971	10	0.148367	11	0	46.9349	0.000598468
2	1	0	1	0	1	1181.27	0.697941	0.69768	1.2751	10	0.151143	11	0	49.5313	0.000889615
2	1	0	1	0	1	1183.63	0.690202	0.689991	0.984486	10	0.15394	11	0	51.9003	0.000679287
2	1	0	1	0	1	1186.23	0.677221	0.676982	0.619657	10	0.155988	11	0	54.4967	0.000419497
2	1	0	1	0	1	1188.83	0.664239	0.664015	0.38163	10	0.157278	11	0	57.0931	0.000253408
2	1	0	1	0	1	1191.42	0.651257	0.650995	0.213866	10	0.158029	11	0	59.6895	0.000139226
2	1	0	1	0	1	1194.02	0.638274	0.63804	0.11593	10	0.158443	11	0	62.2859	7.3968e-05
2	1	0	1	0	1	1196.62	0.625292	0.625123	0.0580781	10	0.158659	11	0	64.8823	3.6306e-05
2	1	0	1	0	1	1199.21	0.612311	0.612099	0.0265992	10	0.158762	11	0	67.4787	1.62813e-05
2	1	0	1	0	1	1201.81	0.599329	0.599089	0.00958544	10	0.158806	11	0	70.0751	5.74253e-06
2	1	0	1	0	1	1204.41	0.586347	0.586149	0.00097669	10	0.158819	11	0	72.6715	5.72486e-07
2	0	0	1	0	1	1207	0.573365	0.573165	-0.00372668	10	0.158815	11	0	1.0985	-2.136e-06
2	0	0	1	0	1	1209.6	0.560382	0.560178	-0.00675814	10	0.158803	11	0	3.6949	-3.78576e-06
2	0	0	1	0	1	1212.2	0.5474	0.547206	-0.00852247	10	0.158785	11	0	6.2913	-4.66354e-06
2	0	0	1	0	1	1214.79	0.534419	0.53415	-0.00949363	10	0.158764	11	0	8.8877	-5.07102e-06
2	0	0	1	0	1	1217.39	0.521437	0.521216	-0.0100389	10	0.158741	11	0	11.4841	-5.23242e-06
2	0	0	1	0	1	1219.98	0.508455	0.508189	-0.0106504	10	0.158717	11	0	14.0805	-5.4124e-06
2	0	0	1	0	1	1222.58	0.495473	0.495269	-0.0110873	10	0.158692	11	0	16.6769	-5.49118e-06
2	0	0	1	0	1	1225.18	0.482491	0.482253	-0.0110021	10	0.158665	11	0	19.2733	-5.30579e-06
2	0	0	1	0	1	1227.77	0.469509	0.46928	-0.0108102	10	0.158637	11	0	21.8697	-5.07301e-06
2	0	0	1	0	1	1230.37	0.456527	0.456299	-0.0107303	10	0.158609	11	0	24.4661	-4.89622e-06
2	1	0	1	0	0	1232.82	0.455778	0.455529	0.0118926	11	0.158605	11	0	1.0985	5.4174e-06
2	1	0	1	0	0	1235.42	0.46876	0.468528	0.0116224	11	0.158634	11	0	3.6949	5.44543e-06
2	1	0	1	0	0	1238.02	0.481742	0.481493	0.0110644	11	0.158663	11	0	6.2913	5.32745e-06
2	1	0	1	0	0	1240.61	0.494724	0.494525	0.0107067	11	0.158692	11	0	8.8877	5.29471e-06
2	0	0	1	0	0	1243.21	0.507706	0.507477	0.0100959	11	0.158721	11	0	11.4841	5.12343e-06
2	0	0	1	0	0	1245.81	0.520688	0.520424	0.00988785	11	0.15875	11	0	14.0805	5.14587e-06
2	0	0	1	0	0	1248.4	0.53367	0.533482	0.0103679	11	0.15878	11	0	16.6769	5.53106e-06
2	1	0	1	0	0	1251	0.546652	0.546446	0.0118294	11	0.15881	11	0	19.2733	6.46415e-06
2	1	0	1	0	0	1253.59	0.559634	0.559417	0.0136663	11	0.158843	11	0	21.8697	7.64514e-06
2	1	0	1	0	0	1256.19	0.572616	0.572411	0.0162729	11	0.15888	11	0	24.4661	9.31481e-06
2	1	0	1	0	0	1258.79	0.585598	0.58538	0.0206084	11	0.158925	11	0	27.0625	1.20637e-05
2	1	0	1	0	0	1261.38	0.59858	0.598331	0.0283715	11	0.158986	11	0	29.6589	1.69756e-05
2	1	0	1	0	0	1263.98	0.611562	0.611419	0.0432873	11	0.159077	11	0	32.2553	2.64667e-05
2	1	0	1	0	0	1266.58	0.624544	0.624343	0.0734118	11	0.159227	11	0	34.8517	4.58341e-05
2	1	0	1	0	0	1269.17	0.637526	0.637302	0.13206	11	0.159489	11	0	37.4481	8.41623e-05
2	1	0	1	0	0	1271.77	0.650508	0.650316	0.236627	11	0.159957	11	0	40.0445	0.000153882
2	1	0	1	0	0	1274.37	0.66349	0.66327	0.404987	11	0.160773	11	0	42.6409	0.000268616
2	1	0	1	0	0	1276.96	0.676472	0.676259	0.657077	11	0.162131	11	0	45.2373	0.000444354
2	1	0	1	0	0	1279.56	0.689454	0.689234	0.995515	11	0.164257	11	0	47.8337	0.000686143
2	1	0	1	0	0	1281.93	0.69869	0.698478	1.26284	11	0.167044	11	0	50.2027	0.000882065
2	1	0	1	0	0	1284.52	0.685708	0.68553	0.825923	11	0.169703	11	0	52.7991	0.000566195
2	1	0	1	0	0	1287.12	0.672726	0.672497	0.520042	11	0.171428	11	0	55.3955	0.000349726
2	1	0	1	0	0	1289.72	0.659744	0.659503	0.303617	11	0.172477	11	0	57.9919	0.000200236
2	1	0	1	0	0	1292.31	0.646762	0.646541	0.171613	11	0.173081	11	0	60.5883	0.000110955
2	1	0	1	0	0	1294.91	0.63378	0.63356	0.0902864	11	0.17341	11	0	63.1847	5.72019e-05
2	1	0	1	0	0	1297.51	0.620798	0.620542	0.044038	11	0.173575	11	0	65.7811	2.73274e-05
2	1	0	1	0	0	1300.1	0.607816	0.6076	0.0187909	11	0.173652	11	0	68.3775	1.14173e-05
2	1	0	1	0	0	1302.7	0.594834	0.59457	0.00526789	11	0.173682	11	0	70.9739	3.13213e-06
2	0	0	1	0	0	1305.3	0.581852	0.581579	-0.00199315	11	0.173688	11	0	0.000000000000000E+000	-1.15917e-06
2	0	0	1	0	0	1307.89	0.56887	0.568648	-0.0055292	11	0.17368	11	0	2.2969	-3.14417e-06
2	0	0	1	0	0	1310.49	0.555888	0.555708	-0.00619094	11	0.173665	11	0	4.8933	-3.44036e-06
2	1	0	1	0	0	1313.08	0.542906	0.54263	-0.00653457	11	0.173646	11	0	7.4897	-3.54585e-06
2	1	0	1	0	0	1315.68	0.529924	0.529697	-0.00763891	11	0.173625	11	0	10.0861	-4.04631e-06
2	0	0	1	0	0	1318.28	0.516942	0.516722	-0.00940445	11	0.173602	11	0	12.6825	-4.85948e-06
2	0	0	1	0	0	1320.87	0.50396	0.503704	-0.0108116	11	0.173577	11	0	15.2789	-5.44586e-06
2	0	0	1	0	0	1323.47	0.490978	0.490749	-0.0106765	11	0.173551	11	0	17.8753	-5.23948e-06
2	0	0	1	0	0	1326.07	0.477996	0.477802	-0.0102223	11	0.173524	11	0	20.4717	-4.88423e-06
2	1	0	1	0	0	1328.66	0.465014	0.464756	-0.00990131	11	0.173496	11	0	23.0681	-4.6017e-06
2	1	0	1	0	0	1331.26	0.452032	0.451775	-0.0103969	11	0.173467	11	0	25.6645	-4.69708e-06
2	0	0	1	0	1	1333.71	0.460272	0.460007	0.00971493	12	0.173483	11	0	1.9973	4.46894e-06
2	0	0	1	0	1	1336.31	0.473254	0.47302	0.0102817	12	0.173512	11	0	4.5937	4.86346e-06
2	1	0	1	0	1	1338.91	0.486236	0.48597	0.010847	12	0.173541	11	0	7.1901	5.27134e-06
2	1	0	1	0	1	1341.5	0.499218	0.498955	0.0116376	12	0.17357	11	0	9.7865	5.80661e-06
2	1	0	1	0	1	1344.1	0.5122	0.511953	0.0122513	12	0.173599	11	0	12.3829	6.27209e-06
2	1	0	1	0	1	1346.7	0.525182	0.524994	0.011949	12	0.173628	11	0	14.9793	6.27316e-06
2	1	0	1	0	1	1349.29	0.538164	0.537915	0.0107897	12	0.173658	11	0	17.5757	5.80394e-06
2	1	0	1	0	1	1351.89	0.551146	0.5509	0.0108133	12	0.173689	11	0	20.1721	5.95705e-06
2	1	0	1	0	1	1354.48	0.564128	0.563912	0.0131459	12	0.173722	11	0	22.7685	7.41312e-06
2	1	0	1	0	1	1357.08	0.57711	0.576886	0.0172382	12	0.173761	11	0	25.3649	9.94446e-06
2	1	0	1	0	1	1359.68	0.590092	0.589899	0.0227713	12	0.17381	11	0	27.9613	1.34328e-05
2	1	0	1	0	1	1362.27	0.603074	0.602829	0.0323681	12	0.173879	11	0	30.5577	1.95124e-05
2	1	0	1	0	1	1364.87	0.616056	0.615807	0.0513479	12	0.173985	11	0	33.1541	3.16204e-05
2	1	0	1	0	1	1367.47	0.629038	0.628822	0.0890438	12	0.174165	11	0	35.7505	5.59927e-05
2	1	0	1	0	1	1370.06	0.64202	0.641789	0.159813	12	0.174482	11	0	38.3469	0.000102566
2	1	0	1	0	1	1372.66	0.655002	0.654729	0.283627	12	0.175044	11	0	40.9433	0.000185699
2	1	0	1	0	1	1375.26	0.667984	0.667737	0.47913	12	0.176016	11	0	43.5397	0.000319933
2	1	0	1	0	1	1377.85	0.680966	0.680728	0.75637	12	0.177604	11	0	46.1361	0.000514882
2	1	0	1	0	1	1380.45	0.693948	0.693691	1.11209	12	0.180026	11	0	48.7325	0.000771447
2	1	0	1	0	1	1382.82	0.694197	0.693964	1.07897	12	0.182852	11	0	51.1014	0.000748766
2	1	0	1	0	1	1385.41	0.681215	0.680943	0.704324	12	0.185142	11	0	53.6978	0.000479605
2	1	0	1	0	1	1388.01	0.668233	0.668003	0.431477	12	0.186592	11	0	56.2942	0.000288228
2	1	0	1	0	1	1390.61	0.655251	0.655021	0.249224	12	0.187456	11	0	58.8906	0.000163247
2	1	0	1	0	1	1393.2	0.642269	0.641999	0.136042	12	0.187946	11	0	61.487	8.73386e-05
2	1	0	1	0	1	1395.8	0.629287	0.629049	0.0684694	12	0.188204	11	0	64.0834	4.30707e-05
2	1	0	1	0	1	1398.4	0.616305	0.61605	0.0324094	12	0.188332	11	0	66.6798	1.99658e-05
2	1	0	1	0	1	1400.99	0.603323	0.603082	0.0138767	12	0.188388	11	0	69.2762	8.36878e-06
2	1	0	1	0	1	1403.59	0.590341	0.59014	0.00410266	12	0.188408	11	0	71.8726	2.42115e-06
2	1	0	1	0	1	1406.18	0.577359	0.577074	-0.00138724	12	0.188408	11	0	0.9986	-8.00541e-07
2	0	0	1	0	1	1408.78	0.564377	0.564153	-0.00538724	12	0.188397	11	0	3.595	-3.03923e-06
2	0	0	1	0	1	1411.38	0.551395	0.551194	-0.00817062	12	0.18838	11	0	6.1914	-4.50359e-06
2	0	0	1	0	1	1413.97	0.538413	0.538159	-0.00927333	12	0.18836	11	0	8.7878	-4.99053e-06
2	0	0	1	0	1	1416.57	0.525431	0.525178	-0.0091366	12	0.188338	11	0	11.3842	-4.79835e-06
2	0	0	1	0	1	1419.17	0.512449	0.512181	-0.00870265	12	0.188314	11	0	13.9806	-4.45733e-06
2	1	0	1	0	1	1421.76	0.499467	0.499202	-0.00876317	12	0.188289	11	0	16.577	-4.3746e-06
2	1	0	1	0	1	1424.36	0.486485	0.486278	-0.00888495	12	0.188263	11	0	19.1734	-4.32055e-06
2	1	0	1	0	1	1426.96	0.473503	0.473259	-0.00958197	12	0.188236	11	0	21.7698	-4.53476e-06
2	0	0	1	0	1	1429.55	0.460521	0.460238	-0.010592	12	0.188208	11	0	24.3662	-4.87483e-06
2	0	0	1	0	0	1432.01	0.451783	0.451577	0.00867621	13	0.188187	11	0	0.2996	3.91798e-06
2	0	0	1	0	0	1434.6	0.464765	0.464471	0.00969903	13	0.188215	11	0	2.896	4.50492e-06
2	1	0	1	0	0	1437.2	0.477747	0.477497	0.0120838	13	0.188244	11	0	5.4924	5.76998e-06
2	1	0	1	0	0	1439.8	0.490729	0.490506	0.0119425	13	0.188273	11	0	8.0888	5.85787e-06
2	1	0	1	0	0	1442.39	0.503711	0.503447	0.0100465	13	0.188301	11	0	10.6852	5.05787e-06
2	1	0	1	0	0	1444.99	0.516693	0.516468	0.0108758	13	0.188331	11	0	13.2816	5.61701e-06
2	1	0	1	0	0	1447.58	0.529675	0.52947	0.0123188	13	0.18836	11	0	15.878	6.52245e-06
2	1	0	1	0	0	1450.18	0.542657	0.542363	0.0116542	13	0.188389	11	0	18.4744	6.3208e-06
2	1	0	1	0	0	1452.78	0.555639	0.555424	0.0116678	13	0.188421	11	0	21.0708	6.48058e-06
2	1	0	1	0	0	1455.37	0.568621	0.568424	0.01489	13	0.188456	11	0	23.6672	8.46384e-06
2	1	0	1	0	0	1457.97	0.581603	0.581369	0.0184292	13	0.188497	11	0	26.2636	1.07142e-05
2	1	0	1	0	0	1460.57	0.594585	0.594367	0.0238789	13	0.188551	11	0	28.86	1.41928e-05
2	1	0	1	0	0	1463.16	0.607567	0.607368	0.0360997	13	0.18863	11	0	31.4564	2.19258e-05
2	1	0	1	0	0	1465.76	0.620549	0.620302	0.0612051	13	0.188756	11	0	34.0528	3.79656e-05
2	1	0	1	0	0	1468.36	0.633531	0.63333	0.1095	13	0.188971	11	0	36.6492	6.93497e-05
2	1	0	1	0	0	1470.95	0.646513	0.646325	0.195538	13	0.189355	11	0	39.2456	0.000126381
2	1	0	1	0	0	1473.55	0.659495	0.659212	0.338689	13	0.190032	11	0	41.842	0.000223268
2	1	0	1	0	0	1476.15	0.672477	0.672299	0.558674	13	0.191181	11	0	44.4384	0.000375596
2	1	0	1	0	0	1478.74	0.685459	0.685231	0.86422	13	0.193011	11	0	47.0348	0.000592191
2	1	0	1	0	0	1481.34	0.698441	0.698206	1.24317	13	0.195746	11	0	49.6312	0.000867988
2	1	0	1	0	0	1483.71	0.689704	0.689476	0.89317	13	0.198351	11	0	52.0001	0.000615819
2	1	0	1	0	0	1486.3	0.676722	0.676477	0.576431	13	0.200254	11	0	54.5965	0.000389942
2	1	0	1	0	0	1488.9	0.66374	0.663536	0.350304	13	0.201438	11	0	57.1929	0.000232439
2	1	0	1	0	0	1491.5	0.650758	0.650536	0.19938	13	0.202137	11	0	59.7893	0.000129704
2	1	0	1	0	0	1494.09	0.637776	0.637554	0.10737	13	0.202525	11	0	62.3857	6.84538e-05
2	1	0	1	0	0	1496.69	0.624794	0.624569	0.0538728	13	0.202726	11	0	64.9821	3.36473e-05
2	1	0	1	0	0	1499.29	0.611812	0.611516	0.0254911	13	0.202822	11	0	67.5785	1.55882e-05
2	1	0	1	0	0	1501.88	0.59883	0.598597	0.0094458	13	0.202863	11	0	70.1749	5.65423e-06
2	1	0	1	0	0	1504.48	0.585848	0.585671	0.000767966	13	0.202874	11	0	0.000000000000000E+000	4.49775e-07
2	0	0	1	0	0	1507.07	0.572866	0.572648	-0.00381368	13	0.202869	11	0	1.5977	-2.1839e-06
2	0	0	1	0	0	1509.67	0.559884	0.559657	-0.00690629	13	0.202856	11	0	4.1941	-3.86515e-06
2	0	0	1	0	0	1512.27	0.546902	0.546669	-0.00839596	13	0.202838	11	0	6.7905	-4.58982e-06
2	0	0	1	0	0	1514.86	0.53392	0.533679	-0.00951802	13	0.202817	11	0	9.3869	-5.07957e-06
2	0	0	1	0	0	1517.46	0.520938	0.520688	-0.0101451	13	0.202795	11	0	11.9833	-5.28241e-06
2	0	0	1	0	0	1520.06	0.507956	0.507757	-0.0103613	13	0.202771	11	0	14.5797	-5.26099e-06
2	0	0	1	0	0	1522.65	0.494974	0.494776	-0.0108383	13	0.202745	11	0	17.1761	-5.36252e-06
2	0	0	1	0	0	1525.25	0.481992	0.481737	-0.0113305	13	0.202719	11	0	19.7725	-5.45831e-06
2	0	0	1	0	0	1527.85	0.46901	0.468776	-0.0115704	13	0.202691	11	0	22.3689	-5.42392e-06
2	0	0	1	0	0	1530.44	0.456028	0.455811	-0.0121171	13	0.202663	11	0	24.9653	-5.52312e-06
2	0	0	1	0	1	1532.9	0.456277	0.456024	0.00988023	14	0.202661	11	0	1.1983	4.50562e-06
2	1	0	1	0	1	1535.49	0.469259	0.469046	0.0106259	14	0.20269	11	0	3.7947	4.98405e-06
2	1	0	0	0	1	1538.09	0.482241	0.482006	0.0104131	14	0.202719	11	0	6.3912	5.0192e-06
2	1	0	1	0	1	1540.69	0.495223	0.495008	0.0104332	14	0.202748	11	0	8.9875	5.1645e-06
2	1	0	0	0	1	1543.28	0.508205	0.507935	0.0100075	14	0.202777	11	0	11.584	5.08314e-06
2	1	0	1	0	1	1545.88	0.521187	0.520914	0.010771	14	0.202806	11	0	14.1803	5.61075e-06
2	1	0	1	0	1	1548.47	0.534169	0.533941	0.0117897	14	0.202835	11	0	16.7767	6.29503e-06
2	1	0	0	0	1	1551.07	0.547151	0.546932	0.0126758	14	0.202865	11	0	19.3732	6.93277e-06
2	1	0	0	0	1	1553.67	0.560133	0.559924	0.0123192	14	0.202897	11	0	21.9696	6.89781e-06
2	1	0	0	0	1	1556.26	0.573115	0.57285	0.0147563	14	0.202934	11	0	24.566	8.45315e-06
2	1	0	1	0	1	1558.86	0.586097	0.585889	0.0204538	14	0.202979	11	0	27.1623	1.19837e-05
2	1	0	1	0	1	1561.46	0.599079	0.598862	0.0284806	14	0.203039	11	0	29.7587	1.70559e-05
2	1	0	1	0	1	1564.05	0.612061	0.611883	0.0438067	14	0.20313	11	0	32.3551	2.68046e-05
2	1	0	0	0	1	1566.65	0.625043	0.624852	0.0737085	14	0.203279	11	0	34.9516	4.60569e-05
2	1	0	0	0	1	1569.25	0.638025	0.6378	0.130732	14	0.20354	11	0	37.548	8.33807e-05
2	1	0	1	0	1	1571.84	0.651006	0.650773	0.233534	14	0.204005	11	0	40.1443	0.000151978
2	1	0	1	0	1	1574.44	0.663989	0.663769	0.401696	14	0.204813	11	0	42.7407	0.000266633
2	1	0	1	0	1	1577.03	0.676971	0.676706	0.650174	14	0.206159	11	0	45.3371	0.000439977
2	1	0	0	0	1	1579.63	0.689953	0.689728	0.970371	14	0.208248	11	0	47.9336	0.000669292
2	1	0	1	0	1	1582	0.698192	0.697952	1.19435	14	0.21095	11	0	50.3025	0.000833599
2	1	0	1	0	1	1584.6	0.68521	0.685029	0.778766	14	0.213475	11	0	52.8989	0.000533477
2	1	0	1	0	1	1587.19	0.672228	0.672021	0.484831	14	0.21509	11	0	55.4953	0.000325817
2	1	0	1	0	1	1589.79	0.659246	0.659007	0.29257	14	0.216071	11	0	58.0917	0.000192806
2	1	0	1	0	1	1592.39	0.646264	0.646096	0.160487	14	0.216644	11	0	60.6881	0.00010369
2	1	0	1	0	1	1594.98	0.633282	0.633071	0.0835251	14	0.216953	11	0	63.2845	5.28773e-05
2	1	0	1	0	1	1597.58	0.6203	0.620069	0.0415702	14	0.217108	11	0	65.8809	2.57764e-05
2	1	0	1	0	1	1600.17	0.607318	0.607162	0.0163748	14	0.21718	11	0	68.4773	9.94216e-06
2	1	0	1	0	1	1602.77	0.594336	0.594082	0.00426804	14	0.217208	11	0	71.0737	2.53556e-06
2	0	0	1	0	1	1605.37	0.581354	0.581091	-0.00203386	14	0.217212	11	0	0.0998	-1.18186e-06
2	1	0	1	0	1	1607.96	0.568372	0.56816	-0.00383604	14	0.217204	11	0	2.6962	-2.17949e-06
2	1	0	1	0	1	1610.56	0.55539	0.555157	-0.00640062	14	0.217189	11	0	5.2926	-3.55335e-06
2	1	0	1	0	1	1613.16	0.542408	0.54217	-0.00665708	14	0.21717	11	0	7.889	-3.60927e-06
2	0	0	1	0	1	1615.75	0.529426	0.529229	-0.00770279	14	0.217149	11	0	10.4854	-4.07654e-06
2	1	0	1	0	1	1618.35	0.516444	0.516222	-0.00824207	14	0.217125	11	0	13.0818	-4.25474e-06
2	0	0	1	0	1	1620.95	0.503462	0.503221	-0.0105485	14	0.217101	11	0	15.6782	-5.30824e-06
2	1	0	1	0	1	1623.54	0.49048	0.490269	-0.00959402	14	0.217075	11	0	18.2746	-4.70366e-06
2	0	0	1	0	1	1626.14	0.477498	0.477264	-0.00980823	14	0.217048	11	0	20.871	-4.68111e-06
2	0	0	1	0	1	1628.74	0.464516	0.464263	-0.0119064	14	0.217021	11	0	23.4674	-5.52771e-06
2	1	0	1	0	1	1631.33	0.451534	0.451286	-0.0104747	14	0.216992	11	0	26.0638	-4.7271e-06
2	1	0	1	0	0	1633.79	0.460771	0.460506	0.0116967	15	0.21701	11	0	2.0971	5.3864e-06
2	0	0	1	0	0	1636.38	0.473753	0.47352	0.00985507	15	0.217039	11	0	4.6935	4.66657e-06
2	1	0	1	0	0	1638.98	0.486735	0.486519	0.0119375	15	0.217068	11	0	7.2899	5.80781e-06
2	1	0	1	0	0	1641.57	0.499717	0.49943	0.0104235	15	0.217097	11	0	9.8863	5.20579e-06
2	1	0	1	0	0	1644.17	0.512699	0.512472	0.0111704	15	0.217126	11	0	12.4827	5.72454e-06
2	1	0	1	0	0	1646.77	0.525681	0.525486	0.0111902	15	0.217155	11	0	15.0791	5.88026e-06
2	0	0	1	0	0	1649.36	0.538663	0.538488	0.0106475	15	0.217184	11	0	17.6755	5.73354e-06
2	1	0	1	0	0	1651.96	0.551645	0.551408	0.0131171	15	0.217215	11	0	20.2719	7.23287e-06
2	1	0	1	0	0	1654.56	0.564627	0.564437	0.0139443	15	0.217249	11	0	22.8683	7.8707e-06
2	1	0	1	0	0	1657.15	0.577609	0.577381	0.0152106	15	0.217288	11	0	25.4647	8.78229e-06
2	1	0	1	0	0	1659.75	0.590591	0.590376	0.0215056	15	0.217337	11	0	28.0611	1.26964e-05
2	1	0	1	0	0	1662.35	0.603573	0.603377	0.0329321	15	0.217405	11	0	30.6575	1.98705e-05
2	1	0	1	0	0	1664.94	0.616555	0.616366	0.0522188	15	0.217511	11	0	33.2539	3.21859e-05
2	1	0	1	0	0	1667.54	0.629537	0.629331	0.0887594	15	0.21769	11	0	35.8503	5.58591e-05
2	1	0	1	0	0	1670.14	0.642519	0.642274	0.158694	15	0.218005	11	0	38.4467	0.000101925
2	1	0	1	0	0	1672.73	0.655501	0.655272	0.281449	15	0.218565	11	0	41.0431	0.000184426
2	1	0	1	0	0	1675.33	0.668483	0.668297	0.473765	15	0.219528	11	0	43.6395	0.000316616
2	1	0	1	0	0	1677.92	0.681465	0.681247	0.746937	15	0.221091	11	0	46.2359	0.000508849
2	1	0	1	0	0	1680.52	0.694447	0.694237	1.08624	15	0.223461	11	0	48.8323	0.000754106
2	1	0	1	0	0	1682.89	0.693698	0.69345	1.03427	15	0.226199	11	0	51.2013	0.000717211
2	1	0	1	0	0	1685.49	0.680715	0.680506	0.672392	15	0.228392	11	0	53.7977	0.000457567
2	1	0	1	0	0	1688.08	0.667733	0.6675	0.407374	15	0.229763	11	0	56.3941	0.000271922
2	1	0	1	0	0	1690.68	0.654751	0.654476	0.23596	15	0.230583	11	0	58.9905	0.00015443
2	1	0	1	0	0	1693.28	0.641769	0.641557	0.127022	15	0.231042	11	0	61.5869	8.14916e-05
2	1	0	1	0	0	1695.87	0.628787	0.628588	0.0641178	15	0.231285	11	0	64.1833	4.03037e-05
2	1	0	1	0	0	1698.47	0.615806	0.61557	0.0309395	15	0.231404	11	0	66.7797	1.90454e-05
2	1	0	1	0	0	1701.06	0.602823	0.602614	0.013114	15	0.231455	11	0	69.3761	7.90271e-06
2	1	0	1	0	0	1703.66	0.589841	0.589598	0.00299969	15	0.231473	11	0	71.9725	1.76861e-06
2	0	0	1	0	0	1706.26	0.576859	0.576601	-0.00343185	15	0.231472	11	0	0.8988	-1.97881e-06
2	0	0	1	0	0	1708.85	0.563878	0.563652	-0.00553167	15	0.231461	11	0	3.4952	-3.11794e-06
2	1	0	1	0	0	1711.45	0.550896	0.550701	-0.00636493	15	0.231444	11	0	6.0916	-3.50518e-06
2	1	0	1	0	0	1714.05	0.537913	0.537683	-0.00743761	15	0.231424	11	0	8.688	-3.99908e-06
2	0	0	1	0	0	1716.64	0.524931	0.524686	-0.00983352	15	0.231402	11	0	11.2844	-5.15951e-06
2	0	0	1	0	0	1719.24	0.51195	0.511735	-0.00926792	15	0.231378	11	0	13.8808	-4.74272e-06
2	1	0	1	0	0	1721.84	0.498968	0.498726	-0.00879769	15	0.231353	11	0	16.4772	-4.38764e-06
2	0	0	1	0	0	1724.43	0.485985	0.485728	-0.0111533	15	0.231327	11	0	19.0736	-5.41748e-06
2	0	0	1	0	0	1727.03	0.473004	0.472789	-0.0098378	15	0.2313	11	0	21.67	-4.65121e-06
2	0	0	1	0	0	1729.62	0.460021	0.459824	-0.0112501	15	0.231272	11	0	24.2664	-5.17306e-06
2	0	0	1	0	0	1731.62	0.450011	0.449754	-0.0150503	15	0.231249	11	0	26.2657	-6.76893e-06