File: ACS_Catal_2026/Figures_Na_K/main_figures/data/EC/20251112_2-148_alpha_reproducibility/20251112_2-148_006_gamma_reproducibility_2_Na2_01_CVA_C02.mpt
EC-Lab ASCII FILE
Nb header lines : 66

Cyclic Voltammetry Advanced

Run on channel : 2 (SN 69290)
User :
CE vs. WE compliance from -10 V to 10 V
Electrode connection : standard
Potential control : Ewe
Ewe ctrl range : min = -1.00 V, max = 1.00 V
Safety Limits :
	Do not start on E overload
Acquisition started on : 11/12/2025 21:00:04.183
Loaded Setting File :  C:\Users\User\Documents\EC-Lab\Data\Yatsuzuka\20251112_2-148_alpha_reproducibility\20251112_2-148_002_alpha_reproducibility_2_K1.mps
Saved on :
	File : 20251112_2-148_006_gamma_reproducibility_2_Na2_r_01_CVA_C02.mpr
	Directory : C:\Users\User\Documents\EC-Lab\Data\Yatsuzuka\20251112_2-148_alpha_reproducibility\
	Host : 192.109.209.127
Device : SP-150e (SN .003883)
Address : 192.109.209.128
EC-Lab for windows v11.52 (software)
Internet server v11.52 (firmware)
Command interpretor v11.50 (firmware)
Electrode material :
Initial state :
Electrolyte :
Comments :
Electrode surface area : 0.001 cm2
Characteristic mass : 0.001 g
Equivalent Weight : 0.000 g/eq.
Density : 0.000 g/cm3
Volume (V) : 0.001 cm3
Cycle Definition : Charge/Discharge alternance
Ei (V)              0.350
vs.                 Ref
ti (h:m:s)          0:00:10.0000
dti (s)             0.0000
dE/dt               10.000
dE/dt unit          mV/s
E1 (V)              0.450
vs.                 Ref
t1 (h:m:s)          0:00:0.0000
dt1 (s)             0.1000
Step percent        50
N                   10
E range min (V)     -1.000
E range max (V)     1.000
I Range             Auto
I Range min         Unset
I Range max         Unset
I Range init        Unset
Bandwidth           5
E2 (V)              0.350
vs.                 Ref
t2 (h:m:s)          0:00:0.0000
dt2 (s)             0.1000
nc cycles           9
nr                  1
Reverse Scan        0
Ef (V)              0.000
vs.                 Eoc
tf (h:m:s)          0:00:0.0000
dtf (s)             0.1000

mode	ox/red	error	control changes	Ns changes	counter inc.	time/s	control/V	Ewe/V	<I>/mA	cycle number	(Q-Qo)/C	I Range	Ns	step time/s	P/W
2	1	0	1	0	0	0.000000000000000E+000	0.349989	0.349591	9.90018e-06	1	0.0000000E+000	13	0	0.000000000000000E+000	3.46101e-09
2	1	0	1	0	0	0.3771	0.35376	0.353348	0.00448612	1	1.63345e-06	13	0	0.3496	1.58516e-06
2	1	0	1	0	0	0.7767	0.357755	0.357326	0.00317677	1	3.47851e-06	13	0	0.7492	1.13514e-06
2	1	0	1	0	0	1.1762	0.36175	0.361377	0.00315801	1	5.32867e-06	13	0	1.1487	1.14123e-06
2	1	0	1	0	0	1.5757	0.365745	0.365363	0.00434655	1	7.17701e-06	13	0	1.5482	1.58807e-06
2	1	0	1	0	0	1.9753	0.369741	0.369321	0.00590587	1	9.00881e-06	13	0	1.9478	2.18117e-06
2	1	0	1	0	0	2.3748	0.373737	0.37327	0.00643318	1	1.0828e-05	13	0	2.3473	2.40131e-06
2	1	0	1	0	0	2.7743	0.377731	0.377339	0.00484553	1	1.26278e-05	13	0	2.7468	1.82841e-06
2	1	0	1	0	0	3.1739	0.381726	0.381337	0.00326989	1	1.43996e-05	13	0	3.1464	1.24693e-06
2	1	0	1	0	0	3.5733	0.385722	0.385341	0.00301627	1	1.61448e-05	13	0	3.5458	1.16229e-06
2	1	0	1	0	0	3.9729	0.389717	0.389326	0.00440317	1	1.78886e-05	13	0	3.9454	1.71427e-06
2	1	0	1	0	0	4.3724	0.393712	0.39329	0.00571563	1	1.96248e-05	13	0	4.3449	2.2479e-06
2	1	0	1	0	0	4.7719	0.397707	0.397341	0.00598562	1	2.13453e-05	13	0	4.7444	2.37833e-06
2	1	0	1	0	0	5.1715	0.401703	0.401302	0.00458355	1	2.30451e-05	13	0	5.144	1.83939e-06
2	1	0	1	0	0	5.571	0.405698	0.405293	0.00291533	1	2.47239e-05	13	0	5.5435	1.18156e-06
2	1	0	1	0	0	5.9705	0.409693	0.409237	0.00292443	1	2.6374e-05	13	0	5.943	1.19678e-06
2	1	0	1	0	0	6.3701	0.413688	0.413289	0.00412414	1	2.80177e-05	13	0	6.3426	1.70446e-06
2	1	0	1	0	0	6.7695	0.417684	0.417242	0.00542463	1	2.96517e-05	13	0	6.742	2.26338e-06
2	1	0	1	0	0	7.1691	0.421679	0.421219	0.0054786	1	3.128e-05	13	0	7.1416	2.30769e-06
2	1	0	1	0	0	7.5686	0.425673	0.425259	0.00412171	1	3.28921e-05	13	0	7.5411	1.75279e-06
2	1	0	1	0	0	7.9681	0.42967	0.429238	0.0027353	1	3.44802e-05	13	0	7.9406	1.17409e-06
2	1	0	1	0	0	8.3677	0.433665	0.433224	0.00250329	1	3.60385e-05	13	0	8.3402	1.08449e-06
2	1	0	1	0	0	8.7672	0.43766	0.437192	0.00361319	1	3.75817e-05	13	0	8.7397	1.57966e-06
2	1	0	1	0	0	9.1667	0.441655	0.441232	0.00472353	1	3.91205e-05	13	0	9.1392	2.08417e-06
2	1	0	1	0	0	9.5663	0.445651	0.445222	0.00507569	1	4.06533e-05	13	0	9.5388	2.25981e-06
2	0	0	1	0	0	9.9658	0.449647	0.449176	0.00381323	1	4.21706e-05	13	0	9.9383	1.71281e-06
2	0	0	1	0	0	10.2761	0.447249	0.446781	-0.00350564	1	4.17995e-05	13	0	0.2497	-1.56625e-06
2	1	0	1	0	0	10.6757	0.443253	0.442814	-0.00308016	1	4.08775e-05	13	0	0.6493	-1.36394e-06
2	1	0	1	0	0	11.0752	0.439258	0.438748	-0.00156626	1	3.98847e-05	13	0	1.0488	-6.87192e-07
2	0	0	1	0	0	11.4747	0.435263	0.434768	-0.0014155	1	3.8843e-05	13	0	1.4483	-6.15412e-07
2	0	0	1	0	0	11.8743	0.431268	0.430793	-0.00295816	1	3.77526e-05	13	0	1.8479	-1.27435e-06
2	0	0	1	0	0	12.2737	0.427272	0.426804	-0.00415721	1	3.6615e-05	13	0	2.2473	-1.77432e-06
2	1	0	1	0	0	12.6733	0.423277	0.42282	-0.00314942	1	3.54391e-05	13	0	2.6469	-1.33164e-06
2	1	0	1	0	0	13.0728	0.419282	0.418811	-0.00145515	1	3.42357e-05	13	0	3.0464	-6.09434e-07
2	0	0	1	0	0	13.4723	0.415287	0.414784	-0.00218631	1	3.30081e-05	13	0	3.4459	-9.06847e-07
2	0	0	1	0	0	13.8719	0.411291	0.410817	-0.00388785	1	3.17429e-05	13	0	3.8455	-1.59719e-06
2	1	0	1	0	0	14.2714	0.407296	0.40688	-0.0046329	1	3.0453e-05	13	0	4.245	-1.88504e-06
2	1	0	1	0	0	14.6709	0.403301	0.402897	-0.00373064	1	2.9125e-05	13	0	4.6445	-1.50306e-06
2	1	0	1	0	0	15.0705	0.399306	0.398827	-0.00243236	1	2.77738e-05	13	0	5.0441	-9.7009e-07
2	1	0	1	0	0	15.47	0.395309	0.394892	-0.00169294	1	2.63965e-05	13	0	5.4436	-6.68529e-07
2	0	0	1	0	0	15.8695	0.391315	0.390867	-0.00257871	1	2.49949e-05	13	0	5.8431	-1.00793e-06
2	0	0	1	0	0	16.269	0.387321	0.3869	-0.00438167	1	2.35571e-05	13	0	6.2426	-1.69527e-06
2	0	0	1	0	0	16.6685	0.383325	0.382892	-0.00529661	1	2.20902e-05	13	0	6.6421	-2.02803e-06
2	1	0	1	0	0	17.0681	0.379329	0.37891	-0.00428829	1	2.05917e-05	13	0	7.0417	-1.62488e-06
2	1	0	1	0	0	17.4676	0.375334	0.374891	-0.00279798	1	1.90697e-05	13	0	7.4412	-1.04894e-06
2	0	0	1	0	0	17.8671	0.371339	0.370857	-0.00209299	1	1.75176e-05	13	0	7.8407	-7.76202e-07
2	0	0	1	0	0	18.2667	0.367343	0.366894	-0.00392585	1	1.593e-05	13	0	8.2403	-1.44037e-06
2	0	0	1	0	0	18.6662	0.363347	0.362885	-0.00593527	1	1.43039e-05	13	0	8.6398	-2.15382e-06
2	0	0	1	0	0	19.0657	0.359353	0.358908	-0.00494066	1	1.26441e-05	13	0	9.0393	-1.77324e-06
2	0	0	1	0	0	19.4653	0.355358	0.354895	-0.00337354	1	1.09571e-05	13	0	9.4389	-1.19725e-06
2	0	0	1	0	0	19.8647	0.351362	0.350909	-0.00251349	1	9.23336e-06	13	0	9.8383	-8.82008e-07
2	1	0	1	0	1	20.1311	0.351312	0.350912	0.00440122	2	9.0428e-06	13	0	0.1	1.54444e-06
2	1	0	1	0	1	20.5305	0.355308	0.354903	0.00597388	2	1.05424e-05	13	0	0.4994	2.12014e-06
2	1	0	1	0	1	20.9301	0.359303	0.358865	0.00523156	2	1.21298e-05	13	0	0.899	1.87742e-06
2	1	0	1	0	1	21.3296	0.363298	0.362896	0.00337335	2	1.37371e-05	13	0	1.2985	1.22418e-06
2	1	0	1	0	1	21.7291	0.367293	0.366901	0.00245398	2	1.535e-05	13	0	1.698	9.00368e-07
2	1	0	1	0	1	22.1287	0.371289	0.370884	0.00323137	2	1.69609e-05	13	0	2.0976	1.19846e-06
2	1	0	1	0	1	22.5282	0.375284	0.374824	0.00489469	2	1.85654e-05	13	0	2.4971	1.83464e-06
2	1	0	1	0	1	22.9277	0.379279	0.378834	0.0058717	2	2.01612e-05	13	0	2.8966	2.2244e-06
2	1	0	1	0	1	23.3273	0.383275	0.382903	0.00533755	2	2.1749e-05	13	0	3.2962	2.04376e-06
2	1	0	1	0	1	23.7268	0.387271	0.386833	0.0039394	2	2.33218e-05	13	0	3.6957	1.52389e-06
2	1	0	1	0	1	24.1263	0.391265	0.390798	0.00251207	2	2.48822e-05	13	0	4.0952	9.81711e-07
2	1	0	1	0	1	24.5258	0.395259	0.394794	0.0028244	2	2.64254e-05	13	0	4.4947	1.11506e-06
2	1	0	1	0	1	24.9253	0.399256	0.398851	0.0042898	2	2.79593e-05	13	0	4.8942	1.71099e-06
2	1	0	1	0	1	25.3249	0.403251	0.402862	0.00534612	2	2.94823e-05	13	0	5.2938	2.15375e-06
2	1	0	1	0	1	25.7244	0.407246	0.406809	0.00520757	2	3.09908e-05	13	0	5.6933	2.11849e-06
2	1	0	1	0	1	26.1239	0.411241	0.410805	0.00375226	2	3.24723e-05	13	0	6.0928	1.54145e-06
2	1	0	1	0	1	26.5235	0.415237	0.41483	0.00241051	2	3.39502e-05	13	0	6.4924	9.99951e-07
2	1	0	1	0	1	26.923	0.419232	0.418786	0.00246886	2	3.54038e-05	13	0	6.8919	1.03392e-06
2	1	0	1	0	1	27.3225	0.423227	0.422772	0.00368634	2	3.68479e-05	13	0	7.2914	1.55848e-06
2	1	0	1	0	1	27.7221	0.427222	0.426781	0.00485737	2	3.82918e-05	13	0	7.691	2.07303e-06
2	1	0	1	0	1	28.1215	0.431218	0.430832	0.00484332	2	3.97347e-05	13	0	8.0904	2.08665e-06
2	0	0	1	0	1	28.5211	0.435213	0.434749	0.00356825	2	4.11595e-05	13	0	8.49	1.55129e-06
2	0	0	1	0	1	28.9206	0.439208	0.438771	0.00229851	2	4.25691e-05	13	0	8.8895	1.00852e-06
2	1	0	1	0	1	29.3201	0.443204	0.442743	0.00221694	2	4.39645e-05	13	0	9.289	9.81535e-07
2	1	0	1	0	1	29.7197	0.447199	0.446746	0.0036598	2	4.53555e-05	13	0	9.6886	1.635e-06
2	1	0	1	0	1	30.025	0.449747	0.449293	-0.000279322	2	4.63038e-05	13	0	0.0274	-1.25498e-07
2	0	0	1	0	1	30.4245	0.445751	0.445283	-0.00260899	2	4.54189e-05	13	0	0.4269	-1.16174e-06
2	1	0	1	0	1	30.8241	0.441755	0.441314	-0.00389347	2	4.44025e-05	13	0	0.8265	-1.71824e-06
2	1	0	1	0	1	31.2236	0.43776	0.43726	-0.003543	2	4.33212e-05	13	0	1.226	-1.54921e-06
2	1	0	1	0	1	31.6231	0.433765	0.433301	-0.00239267	2	4.22039e-05	13	0	1.6255	-1.03675e-06
2	1	0	1	0	1	32.0227	0.429769	0.429266	-0.00138038	2	4.10578e-05	13	0	2.0251	-5.92552e-07
2	0	0	1	0	1	32.4222	0.425773	0.42528	-0.0023593	2	3.98812e-05	13	0	2.4246	-1.00336e-06
2	0	0	1	0	1	32.8217	0.421779	0.421297	-0.00398865	2	3.86665e-05	13	0	2.8241	-1.68041e-06
2	0	0	1	0	1	33.2213	0.417784	0.417275	-0.00427555	2	3.74175e-05	13	0	3.2237	-1.78408e-06
2	0	0	1	0	1	33.6207	0.413788	0.413353	-0.00259072	2	3.61501e-05	13	0	3.6231	-1.07088e-06
2	0	0	1	0	1	34.0203	0.409793	0.409269	-0.00176903	2	3.48612e-05	13	0	4.0227	-7.24011e-07
2	0	0	1	0	1	34.4198	0.405798	0.405365	-0.00268728	2	3.3555e-05	13	0	4.4222	-1.08933e-06
2	0	0	1	0	1	34.8193	0.401803	0.401362	-0.00431614	2	3.22105e-05	13	0	4.8217	-1.73234e-06
2	0	0	1	0	1	35.2189	0.397807	0.397389	-0.00492499	2	3.08329e-05	13	0	5.2213	-1.95714e-06
2	0	0	1	0	1	35.6184	0.393812	0.393365	-0.00287997	2	2.94334e-05	13	0	5.6208	-1.13288e-06
2	0	0	1	0	1	36.0179	0.389817	0.389372	-0.00227309	2	2.80146e-05	13	0	6.0203	-8.85079e-07
2	0	0	1	0	1	36.4175	0.385822	0.385418	-0.00374299	2	2.65662e-05	13	0	6.4199	-1.44262e-06
2	0	0	1	0	1	36.817	0.381825	0.381353	-0.00528226	2	2.50902e-05	13	0	6.8194	-2.0144e-06
2	0	0	1	0	1	37.2165	0.377831	0.377358	-0.00536531	2	2.35842e-05	13	0	7.2189	-2.02464e-06
2	0	0	1	0	1	37.6161	0.373836	0.373363	-0.00350772	2	2.20476e-05	13	0	7.6185	-1.30965e-06
2	0	0	1	0	1	38.0155	0.369841	0.369416	-0.00253301	2	2.04871e-05	13	0	8.0179	-9.35732e-07
2	0	0	1	0	1	38.4151	0.365845	0.365399	-0.00365946	2	1.88938e-05	13	0	8.4175	-1.33716e-06
2	0	0	1	0	1	38.8146	0.36185	0.361379	-0.00541992	2	1.72644e-05	13	0	8.817	-1.95864e-06
2	0	0	1	0	1	39.2141	0.357855	0.357419	-0.00634478	2	1.56013e-05	13	0	9.2165	-2.26774e-06
2	0	0	1	0	1	39.6137	0.353859	0.353437	-0.00524456	2	1.39026e-05	13	0	9.6161	-1.85362e-06
2	0	0	1	0	1	39.9933	0.350064	0.349543	-0.00419553	2	1.22366e-05	13	0	9.9957	-1.46652e-06
2	1	0	1	0	0	40.2795	0.352811	0.3524	0.00289132	3	1.31485e-05	13	0	0.2773	1.0189e-06
2	1	0	1	0	0	40.679	0.356806	0.356376	0.00501579	3	1.46452e-05	13	0	0.6768	1.78751e-06
2	1	0	1	0	0	41.0785	0.360801	0.360378	0.00562437	3	1.61988e-05	13	0	1.0763	2.0269e-06
2	0	0	1	0	0	41.4781	0.364796	0.364364	0.00386115	3	1.77762e-05	13	0	1.4759	1.40686e-06
2	0	0	1	0	0	41.8775	0.368792	0.36836	0.00224327	3	1.935e-05	13	0	1.8753	8.26333e-07
2	1	0	1	0	0	42.2771	0.372787	0.372379	0.00254989	3	2.09169e-05	13	0	2.2749	9.49526e-07
2	1	0	1	0	0	42.6766	0.376782	0.376359	0.00405856	3	2.24803e-05	13	0	2.6744	1.52747e-06
2	1	0	1	0	0	43.0761	0.380778	0.380327	0.00530408	3	2.40324e-05	13	0	3.0739	2.01728e-06
2	0	0	1	0	0	43.4757	0.384773	0.384375	0.00489967	3	2.55733e-05	13	0	3.4735	1.88331e-06
2	0	0	1	0	0	43.8752	0.388768	0.388338	0.00334478	3	2.70943e-05	13	0	3.873	1.2989e-06
2	0	0	1	0	0	44.2747	0.392763	0.392381	0.0020507	3	2.85991e-05	13	0	4.2725	8.04656e-07
2	1	0	1	0	0	44.6743	0.396759	0.396345	0.00253089	3	3.00938e-05	13	0	4.6721	1.0031e-06
2	1	0	1	0	0	45.0738	0.400755	0.400333	0.00392733	3	3.15771e-05	13	0	5.0716	1.57224e-06
2	1	0	1	0	0	45.4733	0.404749	0.40435	0.00493695	3	3.30478e-05	13	0	5.4711	1.99625e-06
2	0	0	1	0	0	45.8729	0.408744	0.408312	0.0043647	3	3.4503e-05	13	0	5.8707	1.78216e-06
2	0	0	1	0	0	46.2723	0.41274	0.41226	0.00276258	3	3.59439e-05	13	0	6.2701	1.1389e-06
2	1	0	1	0	0	46.6719	0.416735	0.416336	0.00185401	3	3.73692e-05	13	0	6.6697	7.71892e-07
2	1	0	1	0	0	47.0714	0.42073	0.420284	0.00300992	3	3.87876e-05	13	0	7.0692	1.26502e-06
2	1	0	1	0	0	47.4709	0.424725	0.424245	0.00432129	3	4.02009e-05	13	0	7.4687	1.83328e-06
2	0	0	1	0	0	47.8705	0.428721	0.42831	0.00472507	3	4.16049e-05	13	0	7.8683	2.0238e-06
2	0	0	1	0	0	48.27	0.432716	0.432255	0.00335231	3	4.29941e-05	13	0	8.2678	1.44906e-06
2	0	0	1	0	0	48.6695	0.436711	0.436263	0.00200052	3	4.43673e-05	13	0	8.6673	8.72752e-07
2	1	0	1	0	0	49.0691	0.440706	0.440294	0.00217844	3	4.57322e-05	13	0	9.0669	9.59155e-07
2	1	0	1	0	0	49.4685	0.444702	0.44428	0.00351256	3	4.70882e-05	13	0	9.4663	1.56056e-06
2	1	0	1	0	0	49.8681	0.448697	0.448253	0.00450289	3	4.84418e-05	13	0	9.8659	2.01843e-06
2	0	0	1	0	0	50.1735	0.448247	0.447756	-0.00251363	3	4.8532e-05	13	0	0.1499	-1.12549e-06
2	0	0	1	0	0	50.5729	0.444252	0.443788	-0.00405166	3	4.75544e-05	13	0	0.5493	-1.79808e-06
2	0	0	1	0	0	50.9725	0.440257	0.439804	-0.00316467	3	4.64987e-05	13	0	0.9489	-1.39184e-06
2	0	0	1	0	0	51.372	0.436263	0.435748	-0.00186686	3	4.54002e-05	13	0	1.3484	-8.1348e-07
2	0	0	1	0	0	51.7715	0.432266	0.431765	-0.00192092	3	4.42705e-05	13	0	1.7479	-8.29385e-07
2	0	0	1	0	0	52.1711	0.428271	0.427789	-0.0034566	3	4.31041e-05	13	0	2.1475	-1.4787e-06
2	0	0	1	0	0	52.5706	0.424276	0.423812	-0.0046482	3	4.19035e-05	13	0	2.547	-1.96996e-06
2	0	0	1	0	0	52.9701	0.420281	0.41981	-0.00403359	3	4.06724e-05	13	0	2.9465	-1.69334e-06
2	0	0	1	0	0	53.3697	0.416285	0.415815	-0.00259554	3	3.94195e-05	13	0	3.3461	-1.07927e-06
2	0	0	1	0	0	53.7692	0.412289	0.411774	-0.00198278	3	3.81427e-05	13	0	3.7456	-8.16458e-07
2	0	0	1	0	0	54.1687	0.408295	0.407834	-0.00339459	3	3.6845e-05	13	0	4.1451	-1.38443e-06
2	0	0	1	0	0	54.5683	0.4043	0.403874	-0.00485585	3	3.55232e-05	13	0	4.5447	-1.96115e-06
2	0	0	1	0	0	54.9677	0.400304	0.399852	-0.00499767	3	3.41645e-05	13	0	4.9441	-1.99833e-06
2	0	0	1	0	0	55.3673	0.396309	0.395874	-0.00347141	3	3.27872e-05	13	0	5.3437	-1.37424e-06
2	0	0	1	0	0	55.7668	0.392315	0.391845	-0.00223872	3	3.13871e-05	13	0	5.7432	-8.77232e-07
2	0	0	1	0	0	56.1663	0.388319	0.387871	-0.0030137	3	2.9966e-05	13	0	6.1427	-1.16893e-06
2	0	0	1	0	0	56.5659	0.384323	0.383863	-0.00475168	3	2.85114e-05	13	0	6.5423	-1.824e-06
2	0	0	1	0	0	56.9654	0.380328	0.379893	-0.00573905	3	2.7029e-05	13	0	6.9418	-2.18022e-06
2	0	0	1	0	0	57.3649	0.376333	0.375873	-0.00479714	3	2.55087e-05	13	0	7.3413	-1.80312e-06
2	0	0	1	0	0	57.7645	0.372338	0.371934	-0.00325925	3	2.39638e-05	13	0	7.7409	-1.21223e-06
2	0	0	1	0	0	58.164	0.368341	0.367889	-0.00252504	3	2.24025e-05	13	0	8.1404	-9.28932e-07
2	0	0	1	0	0	58.5635	0.364347	0.363875	-0.00415597	3	2.08061e-05	13	0	8.5399	-1.51225e-06
2	0	0	1	0	0	58.9631	0.360352	0.35989	-0.00572068	3	1.91739e-05	13	0	8.9395	-2.05881e-06
2	0	0	1	0	0	59.3625	0.356356	0.355884	-0.00601216	3	1.75029e-05	13	0	9.3389	-2.13963e-06
2	0	0	1	0	0	59.7621	0.352361	0.351922	-0.00451724	3	1.57987e-05	13	0	9.7385	-1.58972e-06
2	1	0	1	0	1	60.0283	0.350314	0.349901	0.000814271	4	1.48433e-05	13	0	0.000000000000000E+000	2.84914e-07
2	1	0	1	0	1	60.4279	0.354309	0.35389	0.00325464	4	1.62235e-05	13	0	0.3996	1.15179e-06
2	1	0	1	0	1	60.8274	0.358304	0.357888	0.00492214	4	1.7733e-05	13	0	0.7991	1.76158e-06
2	1	0	1	0	1	61.2269	0.362299	0.36187	0.0054997	4	1.92771e-05	13	0	1.1986	1.99017e-06
2	0	0	1	0	1	61.6265	0.366295	0.36586	0.0044053	4	2.08325e-05	13	0	1.5982	1.61172e-06
2	0	0	1	0	1	62.026	0.37029	0.369847	0.00295376	4	2.2386e-05	13	0	1.9977	1.09244e-06
2	1	0	1	0	1	62.4255	0.374285	0.373847	0.00199672	4	2.39301e-05	13	0	2.3972	7.46467e-07
2	1	0	1	0	1	62.8251	0.37828	0.377852	0.00313781	4	2.54644e-05	13	0	2.7968	1.18563e-06
2	1	0	1	0	1	63.2245	0.382276	0.381879	0.00467979	4	2.69869e-05	13	0	3.1962	1.78711e-06
2	1	0	1	0	1	63.6241	0.386271	0.385818	0.00514256	4	2.85043e-05	13	0	3.5958	1.98409e-06
2	0	0	1	0	1	64.0236	0.390266	0.389834	0.00384545	4	3.00114e-05	13	0	3.9953	1.49909e-06
2	0	0	1	0	1	64.4231	0.394262	0.393862	0.00243706	4	3.14943e-05	13	0	4.3948	9.59866e-07
2	1	0	1	0	1	64.8227	0.398257	0.397858	0.00195198	4	3.29569e-05	13	0	4.7944	7.76613e-07
2	1	0	1	0	1	65.2222	0.402252	0.401827	0.00316036	4	3.4411e-05	13	0	5.1939	1.26992e-06
2	1	0	1	0	1	65.6217	0.406247	0.405837	0.00464014	4	3.58586e-05	13	0	5.5934	1.88314e-06
2	1	0	1	0	1	66.0213	0.410243	0.409771	0.00498522	4	3.72898e-05	13	0	5.993	2.0428e-06
2	0	0	1	0	1	66.4208	0.414239	0.413754	0.00388003	4	3.87155e-05	13	0	6.3925	1.60538e-06
2	0	0	1	0	1	66.8203	0.418233	0.417795	0.00259024	4	4.0123e-05	13	0	6.792	1.08219e-06
2	1	0	1	0	1	67.2199	0.422228	0.421797	0.00197293	4	4.15177e-05	13	0	7.1916	8.32175e-07
2	1	0	1	0	1	67.6193	0.426224	0.425806	0.00289945	4	4.28973e-05	13	0	7.591	1.2346e-06
2	1	0	1	0	1	68.0189	0.430219	0.429799	0.00409217	4	4.42725e-05	13	0	7.9906	1.75881e-06
2	1	0	1	0	1	68.4184	0.434214	0.433807	0.00492401	4	4.5639e-05	13	0	8.3901	2.13607e-06
2	1	0	1	0	1	68.8179	0.438209	0.437754	0.00433357	4	4.69996e-05	13	0	8.7896	1.89704e-06
2	1	0	1	0	1	69.2175	0.442205	0.441797	0.003	4	4.83513e-05	13	0	9.1892	1.32539e-06
2	1	0	1	0	1	69.617	0.4462	0.44578	0.00214409	4	4.96882e-05	13	0	9.5887	9.55791e-07
2	1	0	1	0	1	69.994	0.449971	0.449496	0.00907963	4	5.09532e-05	13	0	9.9657	4.08126e-06
2	0	0	1	0	1	70.3219	0.446749	0.446265	-0.00124894	4	5.02426e-05	13	0	0.2997	-5.57359e-07
2	0	0	1	0	1	70.7214	0.442754	0.442262	-0.00225568	4	4.92374e-05	13	0	0.6992	-9.97604e-07
2	0	0	1	0	1	71.1209	0.438759	0.438268	-0.00366238	4	4.81657e-05	13	0	1.0987	-1.60511e-06
2	0	0	1	0	1	71.5205	0.434764	0.43426	-0.00434695	4	4.70542e-05	13	0	1.4983	-1.88771e-06
2	0	0	1	0	1	71.92	0.430767	0.430326	-0.00374186	4	4.58989e-05	13	0	1.8978	-1.61022e-06
2	0	0	1	0	1	72.3195	0.426773	0.426298	-0.00233147	4	4.47132e-05	13	0	2.2973	-9.939e-07
2	0	0	1	0	1	72.719	0.422779	0.422314	-0.00157077	4	4.3513e-05	13	0	2.6968	-6.63359e-07
2	0	0	1	0	1	73.1185	0.418782	0.418359	-0.00229923	4	4.22936e-05	13	0	3.0963	-9.61901e-07
2	0	0	1	0	1	73.5181	0.414787	0.4143	-0.0037169	4	4.1045e-05	13	0	3.4959	-1.53991e-06
2	0	0	1	0	1	73.9176	0.410792	0.410303	-0.00466004	4	3.97622e-05	13	0	3.8954	-1.91203e-06
2	1	0	1	0	1	74.3171	0.406797	0.406366	-0.00409468	4	3.84588e-05	13	0	4.2949	-1.66394e-06
2	1	0	1	0	1	74.7167	0.402801	0.402358	-0.00270463	4	3.71243e-05	13	0	4.6945	-1.08823e-06
2	1	0	1	0	1	75.1162	0.398806	0.398368	-0.00173979	4	3.57653e-05	13	0	5.094	-6.93076e-07
2	0	0	1	0	1	75.5157	0.394811	0.3944	-0.00224068	4	3.4385e-05	13	0	5.4935	-8.83725e-07
2	0	0	1	0	1	75.9153	0.390816	0.390312	-0.00373116	4	3.29792e-05	13	0	5.8931	-1.45632e-06
2	0	0	1	0	1	76.3147	0.38682	0.386351	-0.00505492	4	3.15419e-05	13	0	6.2925	-1.95297e-06
2	1	0	1	0	1	76.7143	0.382825	0.382381	-0.00457851	4	3.00711e-05	13	0	6.6921	-1.75073e-06
2	1	0	1	0	1	77.1138	0.378831	0.378361	-0.00302621	4	2.85806e-05	13	0	7.0916	-1.145e-06
2	0	0	1	0	1	77.5133	0.374835	0.374365	-0.00207937	4	2.7065e-05	13	0	7.4911	-7.78445e-07
2	0	0	1	0	1	77.9129	0.370839	0.370346	-0.0029655	4	2.55243e-05	13	0	7.8907	-1.09826e-06
2	0	0	1	0	1	78.3124	0.366844	0.366409	-0.00494463	4	2.39445e-05	13	0	8.2902	-1.81176e-06
2	0	0	1	0	1	78.7119	0.362849	0.362402	-0.00587818	4	2.23295e-05	13	0	8.6897	-2.13026e-06
2	0	0	1	0	1	79.1115	0.358854	0.358414	-0.00471778	4	2.06794e-05	13	0	9.0893	-1.69092e-06
2	0	0	1	0	1	79.511	0.354857	0.354426	-0.0032658	4	1.9009e-05	13	0	9.4888	-1.15748e-06
2	0	0	1	0	1	79.9105	0.350863	0.350378	-0.0025645	4	1.73119e-05	13	0	9.8883	-8.98545e-07
2	1	0	1	0	0	80.1768	0.351813	0.351438	0.00400671	5	1.74982e-05	13	0	0.1824	1.40811e-06
2	1	0	1	0	0	80.5763	0.355807	0.355374	0.005757	5	1.89493e-05	13	0	0.5819	2.04589e-06
2	1	0	1	0	0	80.9759	0.359802	0.359377	0.00482053	5	2.04682e-05	13	0	0.9815	1.73239e-06
2	1	0	1	0	0	81.3753	0.363798	0.363394	0.00315538	5	2.20041e-05	13	0	1.3809	1.14664e-06
2	1	0	1	0	0	81.7749	0.367793	0.367378	0.00236646	5	2.35356e-05	13	0	1.7805	8.69386e-07
2	1	0	1	0	0	82.1744	0.371788	0.371345	0.00340209	5	2.50613e-05	13	0	2.18	1.26335e-06
2	1	0	1	0	0	82.5739	0.375783	0.375336	0.00489393	5	2.6584e-05	13	0	2.5795	1.83687e-06
2	1	0	1	0	0	82.9735	0.379779	0.379363	0.00567184	5	2.81003e-05	13	0	2.9791	2.15169e-06
2	1	0	1	0	0	83.373	0.383774	0.383368	0.00435358	5	2.96036e-05	13	0	3.3786	1.66902e-06
2	1	0	1	0	0	83.7725	0.387769	0.387336	0.00245912	5	3.10879e-05	13	0	3.7781	9.52507e-07
2	1	0	1	0	0	84.1721	0.391764	0.39133	0.00351745	5	3.25563e-05	13	0	4.1777	1.37648e-06
2	1	0	1	0	0	84.5715	0.39576	0.395356	0.00537942	5	3.40177e-05	13	0	4.5771	2.12678e-06
2	1	0	1	0	0	84.9711	0.399755	0.399363	0.00443829	5	3.54733e-05	13	0	4.9767	1.77249e-06
2	1	0	1	0	0	85.3706	0.40375	0.403364	0.00285924	5	3.6914e-05	13	0	5.3762	1.15332e-06
2	1	0	1	0	0	85.7701	0.407746	0.407282	0.00190627	5	3.83326e-05	13	0	5.7757	7.76391e-07
2	1	0	1	0	0	86.1697	0.411741	0.411313	0.00303027	5	3.97338e-05	13	0	6.1753	1.24639e-06
2	1	0	1	0	0	86.5692	0.415736	0.415305	0.00446789	5	4.11341e-05	13	0	6.5748	1.85554e-06
2	1	0	1	0	0	86.9687	0.419731	0.419277	0.00490301	5	4.25217e-05	13	0	6.9743	2.05572e-06
2	0	0	1	0	0	87.3683	0.423727	0.42331	0.00350159	5	4.38993e-05	13	0	7.3739	1.48226e-06
2	0	0	1	0	0	87.7678	0.427723	0.427302	0.00208239	5	4.52575e-05	13	0	7.7734	8.89808e-07
2	1	0	1	0	0	88.1673	0.431717	0.431272	0.00233621	5	4.66034e-05	13	0	8.1729	1.00754e-06
2	1	0	1	0	0	88.5669	0.435712	0.435326	0.00371003	5	4.79463e-05	13	0	8.5725	1.61507e-06
2	1	0	1	0	0	88.9663	0.439708	0.439305	0.00463039	5	4.92853e-05	13	0	8.9719	2.03415e-06
2	0	0	1	0	0	89.3659	0.443703	0.443273	0.00388541	5	5.06194e-05	13	0	9.3715	1.7223e-06
2	0	0	1	0	0	89.7654	0.447698	0.447286	0.00235928	5	5.19424e-05	13	0	9.771	1.05527e-06
2	1	0	1	0	0	90.0707	0.449246	0.448773	-0.0024684	5	5.25601e-05	13	0	0.0499	-1.10775e-06
2	1	0	1	0	0	90.4703	0.445251	0.44476	-0.00138186	5	5.16207e-05	13	0	0.4495	-6.14597e-07
2	0	0	1	0	0	90.8698	0.441256	0.440826	-0.00145856	5	5.05883e-05	13	0	0.849	-6.42969e-07
2	0	0	1	0	0	91.2693	0.437261	0.436769	-0.00292312	5	4.94971e-05	13	0	1.2485	-1.27673e-06
2	0	0	1	0	0	91.6689	0.433265	0.432838	-0.00411349	5	4.83669e-05	13	0	1.6481	-1.78047e-06
2	0	0	1	0	0	92.0684	0.42927	0.4288	-0.00424817	5	4.72016e-05	13	0	2.0476	-1.82162e-06
2	0	0	1	0	0	92.4679	0.425275	0.424816	-0.00295027	5	4.60083e-05	13	0	2.4471	-1.25332e-06
2	0	0	1	0	0	92.8675	0.42128	0.420807	-0.00194169	5	4.47915e-05	13	0	2.8467	-8.17076e-07
2	0	0	1	0	0	93.267	0.417283	0.416828	-0.00196084	5	4.35524e-05	13	0	3.2462	-8.17332e-07
2	0	0	1	0	0	93.6665	0.413289	0.41283	-0.00324572	5	4.22862e-05	13	0	3.6457	-1.33993e-06
2	0	0	1	0	0	94.0661	0.409294	0.408788	-0.0046161	5	4.09954e-05	13	0	4.0453	-1.88701e-06
2	0	0	1	0	0	94.4655	0.405298	0.404899	-0.00480348	5	3.96871e-05	13	0	4.4447	-1.94492e-06
2	0	0	1	0	0	94.8651	0.401303	0.400854	-0.00324179	5	3.83536e-05	13	0	4.8443	-1.29949e-06
2	0	0	1	0	0	95.2646	0.397308	0.396869	-0.00208748	5	3.70006e-05	13	0	5.2438	-8.28457e-07
2	0	0	1	0	0	95.6641	0.393313	0.392822	-0.0037625	5	3.56207e-05	13	0	5.6433	-1.47799e-06
2	0	0	1	0	0	96.0637	0.389317	0.388848	-0.00536594	5	3.42053e-05	13	0	6.0429	-2.08653e-06
2	0	0	1	0	0	96.4632	0.385322	0.384881	-0.00477029	5	3.27562e-05	13	0	6.4424	-1.83599e-06
2	0	0	1	0	0	96.8627	0.381327	0.380912	-0.00289978	5	3.12995e-05	13	0	6.8419	-1.10456e-06
2	0	0	1	0	0	97.2623	0.377332	0.37686	-0.00262871	5	2.98206e-05	13	0	7.2415	-9.90654e-07
2	0	0	1	0	0	97.6617	0.373336	0.372845	-0.00451408	5	2.83031e-05	13	0	7.6409	-1.68306e-06
2	0	0	1	0	0	98.0613	0.369341	0.368889	-0.00594979	5	2.67464e-05	13	0	8.0405	-2.19481e-06
2	0	0	1	0	0	98.4608	0.365347	0.364895	-0.00467355	5	2.51568e-05	13	0	8.44	-1.70536e-06
2	0	0	1	0	0	98.8603	0.361351	0.360891	-0.002792	5	2.35371e-05	13	0	8.8395	-1.00761e-06
2	0	0	1	0	0	99.2599	0.357355	0.35689	-0.00332589	5	2.18964e-05	13	0	9.2391	-1.18698e-06
2	0	0	1	0	0	99.6594	0.35336	0.352923	-0.00514321	5	2.02192e-05	13	0	9.6386	-1.81516e-06
2	0	0	0	0	0	99.993	0.349989	0.349724	-0.00659612	5	1.8748e-05	13	0	9.9722	-2.30682e-06
2	1	0	1	0	1	100.325	0.35331	0.35287	0.00262175	6	1.98404e-05	13	0	0.2997	9.25139e-07
2	1	0	1	0	1	100.725	0.357305	0.356876	0.00208331	6	2.13039e-05	13	0	0.6992	7.43482e-07
2	1	0	1	0	1	101.124	0.361301	0.3609	0.00433217	6	2.2813e-05	13	0	1.0988	1.56348e-06
2	1	0	1	0	1	101.524	0.365297	0.364884	0.0056258	6	2.4338e-05	13	0	1.4983	2.05277e-06
2	0	0	1	0	1	101.923	0.369291	0.368882	0.00329207	6	2.58586e-05	13	0	1.8978	1.21438e-06
2	1	0	1	0	1	102.323	0.373286	0.372859	0.00237279	6	2.7362e-05	13	0	2.2974	8.84716e-07
2	1	0	1	0	1	102.722	0.377282	0.376893	0.00474107	6	2.88628e-05	13	0	2.6968	1.78687e-06
2	0	0	1	0	1	103.122	0.381277	0.380833	0.00503702	6	3.03633e-05	13	0	3.0964	1.91826e-06
2	0	0	1	0	1	103.521	0.385272	0.38489	0.00286197	6	3.18456e-05	13	0	3.4959	1.10154e-06
2	1	0	1	0	1	103.921	0.389267	0.38886	0.00220652	6	3.33124e-05	13	0	3.8954	8.58027e-07
2	1	0	1	0	1	104.32	0.393263	0.39289	0.00426238	6	3.47677e-05	13	0	4.295	1.67465e-06
2	0	0	1	0	1	104.72	0.397258	0.39688	0.00491747	6	3.62177e-05	13	0	4.6945	1.95165e-06
2	0	0	1	0	1	105.119	0.401253	0.400824	0.00257946	6	3.76508e-05	13	0	5.094	1.03391e-06
2	1	0	1	0	1	105.519	0.405248	0.404828	0.00244592	6	3.90633e-05	13	0	5.4936	9.90177e-07
2	1	0	1	0	1	105.918	0.409244	0.408796	0.0044545	6	4.04653e-05	13	0	5.893	1.82098e-06
2	0	0	1	0	1	106.318	0.413239	0.412822	0.00432343	6	4.18669e-05	13	0	6.2926	1.78481e-06
2	0	0	1	0	1	106.718	0.417233	0.416748	0.00212534	6	4.32507e-05	13	0	6.6921	8.85731e-07
2	1	0	1	0	1	107.117	0.42123	0.420819	0.00262413	6	4.46183e-05	13	0	7.0916	1.10429e-06
2	1	0	1	0	1	107.517	0.425225	0.424759	0.00452503	6	4.59796e-05	13	0	7.4912	1.92205e-06
2	0	0	1	0	1	107.916	0.42922	0.42879	0.00406211	6	4.73348e-05	13	0	7.8907	1.74179e-06
2	0	0	1	0	1	108.316	0.433215	0.432746	0.00219745	6	4.86699e-05	13	0	8.2902	9.50939e-07
2	1	0	1	0	1	108.715	0.437211	0.43676	0.00249158	6	4.99919e-05	13	0	8.6898	1.08822e-06
2	1	0	1	0	1	109.115	0.441207	0.440769	0.00411946	6	5.13166e-05	13	0	9.0893	1.81573e-06
2	0	0	1	0	1	109.514	0.445201	0.444763	0.00433875	6	5.26354e-05	13	0	9.4888	1.92972e-06
2	0	0	1	0	1	109.914	0.449196	0.448743	0.0023557	6	5.39432e-05	13	0	9.8884	1.0571e-06
2	1	0	1	0	1	110.219	0.447748	0.447272	-0.00243139	6	5.3731e-05	13	0	0.2272	-1.08749e-06
2	0	0	1	0	1	110.619	0.443753	0.443268	-0.00117903	6	5.27425e-05	13	0	0.6267	-5.22628e-07
2	0	0	1	0	1	111.018	0.439758	0.439263	-0.00297163	6	5.16849e-05	13	0	1.0263	-1.30532e-06
2	0	0	1	0	1	111.418	0.435762	0.435287	-0.00420699	6	5.05753e-05	13	0	1.4257	-1.83125e-06
2	0	0	1	0	1	111.817	0.431767	0.431296	-0.00261681	6	4.94315e-05	13	0	1.8253	-1.12862e-06
2	0	0	1	0	1	112.217	0.427772	0.427304	-0.00165696	6	4.82648e-05	13	0	2.2248	-7.08024e-07
2	0	0	1	0	1	112.616	0.423777	0.423328	-0.00358926	6	4.70691e-05	13	0	2.6243	-1.51943e-06
2	0	0	1	0	1	113.016	0.419781	0.419297	-0.00448524	6	4.58436e-05	13	0	3.0239	-1.88065e-06
2	0	0	1	0	1	113.415	0.415786	0.415326	-0.00264974	6	4.45946e-05	13	0	3.4234	-1.10051e-06
2	0	0	1	0	1	113.815	0.411791	0.411357	-0.00205234	6	4.33302e-05	13	0	3.8229	-8.44246e-07
2	0	0	1	0	1	114.214	0.407795	0.407328	-0.00427908	6	4.20441e-05	13	0	4.2225	-1.74299e-06
2	0	0	1	0	1	114.614	0.4038	0.403359	-0.00449795	6	4.07412e-05	13	0	4.622	-1.81429e-06
2	0	0	1	0	1	115.013	0.399805	0.399366	-0.00236082	6	3.94066e-05	13	0	5.0215	-9.42832e-07
2	0	0	1	0	1	115.413	0.39581	0.39535	-0.00279337	6	3.80414e-05	13	0	5.4211	-1.10436e-06
2	0	0	1	0	1	115.812	0.391814	0.391365	-0.00487778	6	3.66431e-05	13	0	5.8205	-1.90899e-06
2	0	0	1	0	1	116.212	0.387819	0.387353	-0.00530596	6	3.52189e-05	13	0	6.2201	-2.05528e-06
2	0	0	1	0	1	116.612	0.383824	0.383357	-0.00398943	6	3.37729e-05	13	0	6.6196	-1.52938e-06
2	0	0	1	0	1	117.011	0.379829	0.379408	-0.00288617	6	3.23012e-05	13	0	7.0191	-1.09504e-06
2	0	0	1	0	1	117.411	0.375833	0.37539	-0.00234576	6	3.08035e-05	13	0	7.4187	-8.80574e-07
2	0	0	1	0	1	117.81	0.371838	0.371398	-0.00310136	6	2.92853e-05	13	0	7.8182	-1.15184e-06
2	0	0	1	0	1	118.21	0.367843	0.367389	-0.00449216	6	2.77303e-05	13	0	8.2177	-1.65037e-06
2	0	0	1	0	1	118.609	0.363848	0.363425	-0.00568056	6	2.61425e-05	13	0	8.6173	-2.06446e-06
2	0	0	1	0	1	119.009	0.359852	0.359401	-0.006061	6	2.45171e-05	13	0	9.0167	-2.17833e-06
2	0	0	1	0	1	119.408	0.355857	0.355442	-0.00525245	6	2.28625e-05	13	0	9.4163	-1.86694e-06
2	0	0	1	0	1	119.808	0.351863	0.351412	-0.00419432	6	2.11769e-05	13	0	9.8158	-1.47394e-06
2	1	0	1	0	0	120.074	0.350813	0.350441	0.00142758	7	2.05941e-05	13	0	0.05	5.00282e-07
2	1	0	1	0	0	120.474	0.354807	0.354387	0.00418776	7	2.19807e-05	13	0	0.4495	1.48409e-06
2	1	0	1	0	0	120.873	0.358804	0.358388	0.00549147	7	2.3465e-05	13	0	0.849	1.96808e-06
2	0	0	1	0	0	121.273	0.362799	0.362411	0.00440413	7	2.49792e-05	13	0	1.2486	1.59611e-06
2	0	0	1	0	0	121.672	0.366794	0.366383	0.00306007	7	2.64936e-05	13	0	1.6481	1.12116e-06
2	0	0	1	0	0	122.072	0.370789	0.370393	0.00222307	7	2.80088e-05	13	0	2.0476	8.23408e-07
2	1	0	1	0	0	122.471	0.374785	0.374376	0.00193973	7	2.95123e-05	13	0	2.4472	7.26187e-07
2	1	0	1	0	0	122.871	0.378781	0.378347	0.00237193	7	3.10074e-05	13	0	2.8467	8.9741e-07
2	1	0	1	0	0	123.27	0.382775	0.38237	0.00373795	7	3.24896e-05	13	0	3.2462	1.42928e-06
2	1	0	1	0	0	123.67	0.38677	0.386368	0.0048766	7	3.39594e-05	13	0	3.6458	1.88416e-06
2	0	0	1	0	0	124.069	0.390766	0.390354	0.00510858	7	3.54223e-05	13	0	4.0452	1.99415e-06
2	0	0	1	0	0	124.469	0.394761	0.394318	0.00407857	7	3.6868e-05	13	0	4.4448	1.60826e-06
2	0	0	1	0	0	124.868	0.398756	0.398314	0.00294562	7	3.82976e-05	13	0	4.8443	1.17328e-06
2	0	0	1	0	0	125.268	0.402751	0.402302	0.00218605	7	3.9714e-05	13	0	5.2438	8.79455e-07
2	1	0	1	0	0	125.667	0.406747	0.406313	0.00182986	7	4.11184e-05	13	0	5.6434	7.43494e-07
2	1	0	1	0	0	126.067	0.410742	0.410271	0.00248671	7	4.24978e-05	13	0	6.0429	1.02022e-06
2	1	0	1	0	0	126.466	0.414737	0.414318	0.00432075	7	4.38807e-05	13	0	6.4424	1.79016e-06
2	0	0	1	0	0	126.866	0.418732	0.418291	0.00447136	7	4.52564e-05	13	0	6.842	1.87033e-06
2	0	0	1	0	0	127.266	0.422729	0.422283	0.00246784	7	4.66192e-05	13	0	7.2415	1.04213e-06
2	1	0	1	0	0	127.665	0.426723	0.426251	0.00204218	7	4.79617e-05	13	0	7.641	8.70483e-07
2	1	0	1	0	0	128.065	0.430717	0.430306	0.00348518	7	4.92995e-05	13	0	8.0405	1.49969e-06
2	1	0	1	0	0	128.464	0.434714	0.434236	0.004701	7	5.06327e-05	13	0	8.44	2.04134e-06
2	0	0	1	0	0	128.864	0.438709	0.438247	0.00389043	7	5.19591e-05	13	0	8.8396	1.70497e-06
2	0	0	1	0	0	129.263	0.442704	0.442282	0.0028784	7	5.32692e-05	13	0	9.2391	1.27306e-06
2	1	0	1	0	0	129.663	0.446699	0.446223	0.00207001	7	5.45688e-05	13	0	9.6386	9.23688e-07
2	1	0	1	0	0	129.991	0.450021	0.449496	0.000612818	7	5.56095e-05	13	0	9.9665	2.75459e-07
2	0	0	1	0	0	130.368	0.44625	0.44576	-0.00133363	7	5.47926e-05	13	0	0.3496	-5.94479e-07
2	0	0	1	0	0	130.767	0.442255	0.44181	-0.00221906	7	5.37772e-05	13	0	0.7491	-9.80404e-07
2	0	0	1	0	0	131.167	0.438259	0.437768	-0.00403575	7	5.27011e-05	13	0	1.1487	-1.76672e-06
2	0	0	1	0	0	131.566	0.434264	0.43379	-0.00405684	7	5.15806e-05	13	0	1.5482	-1.75982e-06
2	0	0	1	0	0	131.966	0.430269	0.429829	-0.00237838	7	5.04332e-05	13	0	1.9477	-1.0223e-06
2	0	0	1	0	0	132.365	0.426274	0.425818	-0.0019181	7	4.92655e-05	13	0	2.3473	-8.1676e-07
2	0	0	1	0	0	132.765	0.422278	0.421787	-0.00369919	7	4.80682e-05	13	0	2.7467	-1.56027e-06
2	0	0	1	0	0	133.164	0.418283	0.417822	-0.00470081	7	4.68356e-05	13	0	3.1463	-1.9641e-06
2	0	0	1	0	0	133.564	0.414288	0.41378	-0.00337385	7	4.55805e-05	13	0	3.5458	-1.39603e-06
2	0	0	1	0	0	133.963	0.410293	0.409829	-0.00183667	7	4.43092e-05	13	0	3.9453	-7.52721e-07
2	0	0	1	0	0	134.363	0.406297	0.405866	-0.00269033	7	4.30249e-05	13	0	4.3449	-1.09191e-06
2	0	0	1	0	0	134.762	0.402302	0.401809	-0.00440114	7	4.17037e-05	13	0	4.7444	-1.76842e-06
2	0	0	1	0	0	135.162	0.398307	0.397878	-0.00471587	7	4.03512e-05	13	0	5.1439	-1.87634e-06
2	0	0	1	0	0	135.561	0.394311	0.393845	-0.00294617	7	3.89791e-05	13	0	5.5435	-1.16033e-06
2	0	0	1	0	0	135.961	0.390316	0.389877	-0.00190042	7	3.75871e-05	13	0	5.943	-7.4093e-07
2	0	0	1	0	0	136.36	0.386321	0.385859	-0.00346154	7	3.61652e-05	13	0	6.3425	-1.33567e-06
2	0	0	1	0	0	136.76	0.382326	0.381845	-0.00521003	7	3.47124e-05	13	0	6.7421	-1.98943e-06
2	1	0	1	0	0	137.159	0.37833	0.377845	-0.00394547	7	3.3229e-05	13	0	7.1415	-1.49078e-06
2	1	0	1	0	0	137.559	0.374335	0.3739	-0.00224048	7	3.17201e-05	13	0	7.5411	-8.37715e-07
2	0	0	1	0	0	137.959	0.37034	0.369881	-0.00291486	7	3.01943e-05	13	0	7.9406	-1.07815e-06
2	0	0	1	0	0	138.358	0.366345	0.365891	-0.00515608	7	2.86299e-05	13	0	8.3401	-1.88656e-06
2	1	0	1	0	0	138.758	0.362349	0.361873	-0.00505837	7	2.70318e-05	13	0	8.7397	-1.83049e-06
2	1	0	1	0	0	139.157	0.358354	0.357936	-0.0030833	7	2.54052e-05	13	0	9.1392	-1.10362e-06
2	0	0	1	0	0	139.557	0.354359	0.353868	-0.00219989	7	2.37504e-05	13	0	9.5387	-7.78469e-07
2	0	0	1	0	0	139.956	0.350364	0.34988	-0.003976	7	2.20633e-05	13	0	9.9383	-1.39112e-06
2	1	0	1	0	1	140.222	0.352311	0.351916	0.00503364	8	2.26135e-05	13	0	0.2273	1.77142e-06
2	0	0	1	0	1	140.622	0.356307	0.3559	0.00306358	8	2.40522e-05	13	0	0.6269	1.09033e-06
2	1	0	1	0	1	141.021	0.360302	0.359874	0.00203379	8	2.55322e-05	13	0	1.0263	7.31909e-07
2	1	0	1	0	1	141.421	0.364297	0.36388	0.00421493	8	2.70328e-05	13	0	1.4259	1.53373e-06
2	1	0	1	0	1	141.821	0.368291	0.36786	0.00534251	8	2.85395e-05	13	0	1.8254	1.9653e-06
2	0	0	1	0	1	142.22	0.372288	0.371826	0.00323854	8	3.0041e-05	13	0	2.2249	1.20417e-06
2	1	0	1	0	1	142.62	0.376283	0.375821	0.00199951	8	3.15308e-05	13	0	2.6245	7.51458e-07
2	1	0	1	0	1	143.019	0.380278	0.379873	0.00274247	8	3.30074e-05	13	0	3.024	1.04179e-06
2	1	0	1	0	1	143.419	0.384273	0.383873	0.00401447	8	3.44785e-05	13	0	3.4235	1.54105e-06
2	1	0	1	0	1	143.818	0.388269	0.387817	0.00515149	8	3.59418e-05	13	0	3.8231	1.99783e-06
2	0	0	1	0	1	144.218	0.392265	0.391837	0.00486701	8	3.73953e-05	13	0	4.2226	1.90707e-06
2	0	0	1	0	1	144.617	0.396259	0.395823	0.00356119	8	3.88371e-05	13	0	4.6221	1.4096e-06
2	0	0	1	0	1	145.017	0.400254	0.399837	0.00253287	8	4.02676e-05	13	0	5.0217	1.01273e-06
2	1	0	1	0	1	145.416	0.40425	0.403818	0.00231757	8	4.16778e-05	13	0	5.4211	9.35876e-07
2	1	0	1	0	1	145.816	0.408245	0.407816	0.0040273	8	4.30675e-05	13	0	5.8207	1.6424e-06
2	1	0	1	0	1	146.215	0.41224	0.4118	0.00501016	8	4.44546e-05	13	0	6.2202	2.06318e-06
2	1	0	1	0	1	146.615	0.416236	0.415794	0.0035161	8	4.58301e-05	13	0	6.6197	1.46197e-06
2	1	0	1	0	1	147.014	0.420231	0.419788	0.00205743	8	4.71832e-05	13	0	7.0193	8.63684e-07
2	1	0	1	0	1	147.414	0.424226	0.423761	0.00308031	8	4.85224e-05	13	0	7.4188	1.30532e-06
2	1	0	1	0	1	147.813	0.428221	0.427833	0.00466596	8	4.98568e-05	13	0	7.8183	1.99625e-06
2	1	0	1	0	1	148.213	0.432217	0.431818	0.00421453	8	5.1185e-05	13	0	8.2179	1.81991e-06
2	1	0	1	0	1	148.613	0.436213	0.435806	0.00237669	8	5.2498e-05	13	0	8.6174	1.03578e-06
2	1	0	1	0	1	149.012	0.440207	0.439734	0.00234474	8	5.38e-05	13	0	9.0169	1.03106e-06
2	1	0	1	0	1	149.412	0.444202	0.443745	0.00400562	8	5.50977e-05	13	0	9.4165	1.77747e-06
2	1	0	1	0	1	149.811	0.448198	0.447741	0.00470839	8	5.63948e-05	13	0	9.8159	2.10814e-06
2	0	0	1	0	1	150.116	0.448747	0.448283	-0.003127	8	5.67269e-05	13	0	0.0999	-1.40178e-06
2	0	0	1	0	1	150.516	0.444752	0.44428	-0.00407914	8	5.57608e-05	13	0	0.4995	-1.81228e-06
2	0	0	1	0	1	150.915	0.440756	0.440294	-0.00329527	8	5.47156e-05	13	0	0.8989	-1.45089e-06
2	0	0	1	0	1	151.315	0.436761	0.436294	-0.0022226	8	5.36229e-05	13	0	1.2985	-9.69707e-07
2	0	0	1	0	1	151.715	0.432766	0.432305	-0.00167362	8	5.25018e-05	13	0	1.698	-7.23516e-07
2	0	0	1	0	1	152.114	0.428771	0.428315	-0.0027425	8	5.13482e-05	13	0	2.0975	-1.17465e-06
2	0	0	1	0	1	152.514	0.424775	0.424281	-0.00398673	8	5.01604e-05	13	0	2.4971	-1.69149e-06
2	0	0	1	0	1	152.913	0.42078	0.420288	-0.00469871	8	4.89468e-05	13	0	2.8966	-1.97481e-06
2	0	0	1	0	1	153.313	0.416785	0.416292	-0.0037134	8	4.77093e-05	13	0	3.2961	-1.54586e-06
2	0	0	1	0	1	153.712	0.41279	0.412309	-0.00236046	8	4.64512e-05	13	0	3.6957	-9.73237e-07
2	0	0	1	0	1	154.112	0.408794	0.40833	-0.0021168	8	4.51774e-05	13	0	4.0951	-8.64352e-07
2	0	0	1	0	1	154.511	0.404799	0.404355	-0.00356643	8	4.38793e-05	13	0	4.4947	-1.4421e-06
2	0	0	1	0	1	154.911	0.400805	0.400331	-0.00490031	8	4.2548e-05	13	0	4.8942	-1.96174e-06
2	0	0	1	0	1	155.31	0.396808	0.396307	-0.00459246	8	4.11914e-05	13	0	5.2937	-1.82002e-06
2	0	0	1	0	1	155.71	0.392813	0.392358	-0.00292736	8	3.98151e-05	13	0	5.6933	-1.14857e-06
2	0	0	1	0	1	156.109	0.388818	0.388383	-0.00201843	8	3.84176e-05	13	0	6.0928	-7.83923e-07
2	0	0	1	0	1	156.509	0.384823	0.384372	-0.00298477	8	3.6996e-05	13	0	6.4923	-1.14726e-06
2	0	0	1	0	1	156.908	0.380827	0.380396	-0.00478101	8	3.55424e-05	13	0	6.8919	-1.81867e-06
2	0	0	1	0	1	157.308	0.376832	0.376349	-0.00529053	8	3.40506e-05	13	0	7.2914	-1.99109e-06
2	0	0	1	0	1	157.707	0.372837	0.372385	-0.00394652	8	3.25295e-05	13	0	7.6909	-1.46963e-06
2	0	0	1	0	1	158.107	0.368842	0.368427	-0.00283481	8	3.09843e-05	13	0	8.0905	-1.04442e-06
2	0	0	1	0	1	158.506	0.364846	0.364404	-0.00221322	8	2.94145e-05	13	0	8.4899	-8.06507e-07
2	0	0	1	0	1	158.906	0.360851	0.360415	-0.00265225	8	2.78173e-05	13	0	8.8895	-9.55909e-07
2	0	0	1	0	1	159.306	0.356856	0.35643	-0.00398104	8	2.61874e-05	13	0	9.289	-1.41896e-06
2	0	0	1	0	1	159.705	0.352861	0.352388	-0.00547835	8	2.45234e-05	13	0	9.6885	-1.9305e-06
2	1	0	1	0	0	159.994	0.350039	0.349648	-0.0017156	9	2.33207e-05	13	0	9.9772	-5.99855e-07
2	0	0	1	0	0	160.371	0.353809	0.353427	0.00286743	9	2.45326e-05	13	0	0.3496	1.01343e-06
2	0	0	1	0	0	160.77	0.357805	0.35736	0.0019751	9	2.5989e-05	13	0	0.7492	7.05824e-07
2	1	0	1	0	0	161.17	0.3618	0.361347	0.00203397	9	2.74757e-05	13	0	1.1487	7.34969e-07
2	1	0	1	0	0	161.569	0.365795	0.365368	0.00391004	9	2.89779e-05	13	0	1.5482	1.42861e-06
2	1	0	1	0	0	161.969	0.369791	0.369379	0.00526569	9	3.04802e-05	13	0	1.9478	1.94503e-06
2	0	0	1	0	0	162.368	0.373786	0.37333	0.00478565	9	3.19815e-05	13	0	2.3472	1.78663e-06
2	0	0	1	0	0	162.768	0.377781	0.377393	0.00273794	9	3.3471e-05	13	0	2.7468	1.03328e-06
2	1	0	1	0	0	163.168	0.381775	0.381368	0.00212564	9	3.49388e-05	13	0	3.1463	8.10652e-07
2	1	0	1	0	0	163.567	0.385772	0.385324	0.00423436	9	3.63937e-05	13	0	3.5458	1.6316e-06
2	1	0	1	0	0	163.967	0.389767	0.389337	0.00489581	9	3.7847e-05	13	0	3.9454	1.90612e-06
2	0	0	1	0	0	164.366	0.393762	0.393308	0.00312166	9	3.92835e-05	13	0	4.3449	1.22777e-06
2	1	0	1	0	0	164.766	0.397757	0.397316	0.00198633	9	4.07016e-05	13	0	4.7444	7.89198e-07
2	1	0	1	0	0	165.165	0.401753	0.401359	0.00322877	9	4.21035e-05	13	0	5.144	1.29589e-06
2	1	0	1	0	0	165.565	0.405749	0.405313	0.00497084	9	4.35028e-05	13	0	5.5435	2.01474e-06
2	1	0	1	0	0	165.964	0.409743	0.409261	0.00403377	9	4.48841e-05	13	0	5.943	1.65086e-06
2	1	0	1	0	0	166.364	0.413738	0.413288	0.00233633	9	4.62558e-05	13	0	6.3426	9.65577e-07
2	1	0	1	0	0	166.763	0.417734	0.417303	0.00240769	9	4.76088e-05	13	0	6.742	1.00474e-06
2	1	0	1	0	0	167.163	0.421729	0.421258	0.00417063	9	4.8961e-05	13	0	7.1416	1.75691e-06
2	1	0	1	0	0	167.562	0.425724	0.425272	0.00494683	9	5.031e-05	13	0	7.5411	2.10375e-06
2	1	0	1	0	0	167.962	0.429719	0.429249	0.00402484	9	5.16487e-05	13	0	7.9406	1.72766e-06
2	1	0	1	0	0	168.361	0.433715	0.433258	0.00275072	9	5.29662e-05	13	0	8.3402	1.19177e-06
2	1	0	1	0	0	168.761	0.43771	0.437256	0.00204707	9	5.42688e-05	13	0	8.7397	8.95092e-07
2	1	0	1	0	0	169.16	0.441705	0.441268	0.00290323	9	5.55619e-05	13	0	9.1392	1.2811e-06
2	1	0	1	0	0	169.56	0.445701	0.445211	0.00433666	9	5.68463e-05	13	0	9.5388	1.93073e-06
2	1	0	1	0	0	169.96	0.449697	0.449252	0.00464838	9	5.81269e-05	13	0	9.9383	2.08829e-06
2	0	0	1	0	0	170.265	0.447249	0.446815	-0.00338686	9	5.7637e-05	13	0	0.2497	-1.5133e-06
2	0	0	1	0	0	170.664	0.443253	0.442773	-0.0037534	9	5.66354e-05	13	0	0.6493	-1.6619e-06
2	0	0	1	0	0	171.064	0.439258	0.438791	-0.00258649	9	5.55747e-05	13	0	1.0488	-1.13493e-06
2	0	0	1	0	0	171.463	0.435263	0.434787	-0.0014378	9	5.4474e-05	13	0	1.4483	-6.25135e-07
2	0	0	1	0	0	171.863	0.431268	0.430804	-0.00171446	9	5.33444e-05	13	0	1.8479	-7.38596e-07
2	0	0	1	0	0	172.262	0.427272	0.426796	-0.00301503	9	5.21823e-05	13	0	2.2473	-1.2868e-06
2	0	0	1	0	0	172.662	0.423277	0.422807	-0.00411669	9	5.09899e-05	13	0	2.6469	-1.74056e-06
2	1	0	1	0	0	173.062	0.419282	0.418815	-0.0041833	9	4.97657e-05	13	0	3.0464	-1.75203e-06
2	1	0	1	0	0	173.461	0.415287	0.414807	-0.00302551	9	4.85201e-05	13	0	3.4459	-1.255e-06
2	1	0	1	0	0	173.861	0.411291	0.410836	-0.00166465	9	4.72541e-05	13	0	3.8455	-6.83898e-07
2	0	0	1	0	0	174.26	0.407296	0.406844	-0.00205471	9	4.59801e-05	13	0	4.245	-8.35949e-07
2	0	0	1	0	0	174.66	0.403301	0.402883	-0.00393998	9	4.46689e-05	13	0	4.6445	-1.58735e-06
2	1	0	1	0	0	175.059	0.399306	0.398856	-0.00462223	9	4.33307e-05	13	0	5.0441	-1.8436e-06
2	1	0	1	0	0	175.459	0.395309	0.394851	-0.00360819	9	4.19696e-05	13	0	5.4436	-1.4247e-06
2	1	0	1	0	0	175.858	0.391315	0.390816	-0.00212671	9	4.05872e-05	13	0	5.8431	-8.31153e-07
2	0	0	1	0	0	176.258	0.387321	0.386824	-0.00183833	9	3.91776e-05	13	0	6.2426	-7.1111e-07
2	0	0	1	0	0	176.657	0.383325	0.382882	-0.00303959	9	3.77437e-05	13	0	6.6421	-1.1638e-06
2	0	0	1	0	0	177.057	0.379329	0.378839	-0.00483963	9	3.62795e-05	13	0	7.0417	-1.83344e-06
2	0	0	1	0	0	177.456	0.375334	0.374865	-0.00526539	9	3.47837e-05	13	0	7.4412	-1.97381e-06
2	1	0	1	0	0	177.856	0.371339	0.370923	-0.00404273	9	3.32609e-05	13	0	7.8407	-1.49954e-06
2	0	0	1	0	0	178.255	0.367343	0.366898	-0.00273745	9	3.17124e-05	13	0	8.2403	-1.00437e-06
2	0	0	1	0	0	178.655	0.363347	0.3629	-0.00231369	9	3.0139e-05	13	0	8.6398	-8.39638e-07
2	0	0	1	0	0	179.054	0.359353	0.358893	-0.00396891	9	2.85338e-05	13	0	9.0393	-1.42441e-06
2	0	0	1	0	0	179.454	0.355358	0.354931	-0.00562021	9	2.68911e-05	13	0	9.4389	-1.99479e-06
2	0	0	1	0	0	179.853	0.351362	0.350909	-0.0059928	9	2.52046e-05	13	0	9.8383	-2.10293e-06
2	1	0	1	0	1	180.12	0.351312	0.350865	0.00243355	10	2.50158e-05	13	0	0.1	8.53845e-07
2	1	0	1	0	1	180.519	0.355308	0.354858	0.00201956	10	2.64022e-05	13	0	0.4994	7.16656e-07
2	1	0	1	0	1	180.919	0.359303	0.358893	0.00292575	10	2.78623e-05	13	0	0.899	1.05003e-06
2	1	0	1	0	1	181.318	0.363298	0.362904	0.0046187	10	2.93519e-05	13	0	1.2985	1.67615e-06
2	1	0	1	0	1	181.718	0.367293	0.366879	0.00566527	10	3.08494e-05	13	0	1.698	2.07847e-06
2	1	0	1	0	1	182.117	0.371289	0.370883	0.00477419	10	3.23485e-05	13	0	2.0976	1.77067e-06
2	1	0	1	0	1	182.517	0.375284	0.374815	0.0031268	10	3.38307e-05	13	0	2.4971	1.17197e-06
2	1	0	1	0	1	182.916	0.379279	0.37887	0.00214514	10	3.52977e-05	13	0	2.8966	8.12729e-07
2	1	0	1	0	1	183.316	0.383275	0.382861	0.0033359	10	3.67514e-05	13	0	3.2962	1.27719e-06
2	1	0	1	0	1	183.716	0.387271	0.386837	0.00527628	10	3.81986e-05	13	0	3.6957	2.04106e-06
2	1	0	1	0	1	184.115	0.391265	0.390857	0.00383994	10	3.96379e-05	13	0	4.0952	1.50087e-06
2	1	0	1	0	1	184.515	0.395259	0.394809	0.00208294	10	4.10569e-05	13	0	4.4947	8.22363e-07
2	1	0	1	0	1	184.914	0.399256	0.398852	0.00318214	10	4.24672e-05	13	0	4.8942	1.2692e-06
2	1	0	1	0	1	185.314	0.403251	0.402846	0.00438529	10	4.38732e-05	13	0	5.2938	1.76659e-06
2	1	0	1	0	1	185.713	0.407246	0.406839	0.00497528	10	4.52633e-05	13	0	5.6933	2.02413e-06
2	0	0	1	0	1	186.113	0.411241	0.410821	0.00443568	10	4.66345e-05	13	0	6.0928	1.82227e-06
2	0	0	1	0	1	186.512	0.415237	0.414765	0.00281352	10	4.80013e-05	13	0	6.4924	1.16695e-06
2	1	0	1	0	1	186.912	0.419232	0.418763	0.00183261	10	4.93477e-05	13	0	6.8919	7.67427e-07
2	1	0	1	0	1	187.311	0.423227	0.422786	0.00217075	10	5.06829e-05	13	0	7.2914	9.17764e-07
2	1	0	1	0	1	187.711	0.427222	0.426776	0.00350002	10	5.20071e-05	13	0	7.691	1.49372e-06
2	1	0	1	0	1	188.11	0.431218	0.430762	0.00443952	10	5.33269e-05	13	0	8.0904	1.91237e-06
2	0	0	1	0	1	188.51	0.435213	0.43476	0.00413551	10	5.46422e-05	13	0	8.49	1.79795e-06
2	0	0	1	0	1	188.909	0.439208	0.438779	0.00298435	10	5.59417e-05	13	0	8.8895	1.30947e-06
2	0	0	1	0	1	189.309	0.443204	0.44274	0.00195495	10	5.72303e-05	13	0	9.289	8.65534e-07
2	1	0	1	0	1	189.708	0.447199	0.446772	0.00171487	10	5.85087e-05	13	0	9.6886	7.66155e-07
2	1	0	1	0	1	190.014	0.449747	0.449275	-0.000979531	10	5.93609e-05	13	0	0.000000000000000E+000	-4.40079e-07
2	0	0	1	0	1	190.413	0.445751	0.445338	-0.0011085	10	5.84498e-05	13	0	0.3995	-4.93658e-07
2	0	0	1	0	1	190.813	0.441755	0.441309	-0.0020974	10	5.74292e-05	13	0	0.7991	-9.256e-07
2	0	0	1	0	1	191.212	0.43776	0.437264	-0.00356068	10	5.63504e-05	13	0	1.1986	-1.55696e-06
2	0	0	1	0	1	191.612	0.433765	0.433275	-0.00428787	10	5.52315e-05	13	0	1.5981	-1.85782e-06
2	0	0	1	0	1	192.011	0.429769	0.429257	-0.00359089	10	5.40818e-05	13	0	1.9977	-1.54141e-06
2	0	0	1	0	1	192.411	0.425773	0.425271	-0.00246841	10	5.29073e-05	13	0	2.3972	-1.04974e-06
2	0	0	1	0	1	192.81	0.421779	0.421333	-0.0017656	10	5.17102e-05	13	0	2.7967	-7.43908e-07
2	0	0	1	0	1	193.21	0.417784	0.417304	-0.00280466	10	5.04883e-05	13	0	3.1963	-1.1704e-06
2	0	0	1	0	1	193.609	0.413788	0.413304	-0.00422327	10	4.92408e-05	13	0	3.5957	-1.74549e-06
2	0	0	1	0	1	194.009	0.409793	0.409273	-0.00487371	10	4.79664e-05	13	0	3.9953	-1.99468e-06
2	0	0	1	0	1	194.409	0.405798	0.405333	-0.00375722	10	4.66765e-05	13	0	4.3948	-1.52292e-06
2	0	0	1	0	1	194.808	0.401803	0.401355	-0.00233267	10	4.53619e-05	13	0	4.7943	-9.36229e-07
2	0	0	1	0	1	195.208	0.397807	0.397325	-0.00220825	10	4.40279e-05	13	0	5.1939	-8.77394e-07
2	0	0	1	0	1	195.607	0.393812	0.393317	-0.00352976	10	4.26676e-05	13	0	5.5934	-1.38831e-06
2	0	0	1	0	1	196.007	0.389817	0.389339	-0.00498409	10	4.12758e-05	13	0	5.9929	-1.9405e-06
2	0	0	1	0	1	196.406	0.385822	0.385343	-0.00523826	10	3.98524e-05	13	0	6.3925	-2.01853e-06
2	0	0	1	0	1	196.806	0.381825	0.381377	-0.00401449	10	3.84105e-05	13	0	6.792	-1.53103e-06
2	0	0	1	0	1	197.205	0.377831	0.377361	-0.00263243	10	3.69453e-05	13	0	7.1915	-9.93378e-07
2	0	0	1	0	1	197.605	0.373836	0.373393	-0.00269504	10	3.54523e-05	13	0	7.5911	-1.00631e-06
2	0	0	1	0	1	198.004	0.369841	0.369378	-0.00414428	10	3.39279e-05	13	0	7.9905	-1.5308e-06
2	0	0	1	0	1	198.404	0.365845	0.365402	-0.00566209	10	3.23719e-05	13	0	8.3901	-2.06894e-06
2	0	0	1	0	1	198.803	0.36185	0.361364	-0.00569704	10	3.07812e-05	13	0	8.7896	-2.0587e-06
2	0	0	1	0	1	199.203	0.357855	0.357393	-0.00416979	10	2.91677e-05	13	0	9.1891	-1.49025e-06
2	0	0	1	0	1	199.602	0.353859	0.353374	-0.00279852	10	2.75228e-05	13	0	9.5887	-9.88926e-07
2	0	0	1	0	1	199.982	0.350064	0.349677	-0.00762601	10	2.58875e-05	13	0	9.9683	-2.66664e-06
2	0	0	0	0	1	199.986	0.349989	0.349534	-0.00731784	10	2.58566e-05	13	0	9.9722	-2.55783e-06