File: ACS_Catal_2026/Figures_Na_K/main_figures/data/EC/20251112_2-148_alpha_reproducibility/20251112_2-148_002_alpha_reproducibility_2_Na2_03_CVA_C02.mpt
EC-Lab ASCII FILE
Nb header lines : 66

Cyclic Voltammetry Advanced

Run on channel : 2 (SN 69290)
User :
CE vs. WE compliance from -10 V to 10 V
Electrode connection : standard
Potential control : Ewe
Ewe ctrl range : min = -1.00 V, max = 1.00 V
Safety Limits :
	Do not start on E overload
Acquisition started on : 11/12/2025 15:15:43.590
Loaded Setting File :  C:\Users\User\Documents\EC-Lab\Data\Yatsuzuka\20251112_2-148_alpha_reproducibility\20251112_2-148_002_alpha_reproducibility_2_K1.mps
Saved on :
	File : 20251112_2-148_002_alpha_reproducibility_2_Na2_03_CVA_C02.mpr
	Directory : C:\Users\User\Documents\EC-Lab\Data\Yatsuzuka\20251112_2-148_alpha_reproducibility\
	Host : 192.109.209.127
Device : SP-150e (SN .003883)
Address : 192.109.209.128
EC-LAB for windows v11.52 (software)
Internet server v11.52 (firmware)
Command interpretor v11.50 (firmware)
Electrode material :
Initial state :
Electrolyte :
Comments :
Electrode surface area : 0.001 cm2
Characteristic mass : 0.001 g
Equivalent Weight : 0.000 g/eq.
Density : 0.000 g/cm3
Volume (V) : 0.001 cm3
Cycle Definition : Charge/Discharge alternance
Ei (V)              0.450
vs.                 Ref
ti (h:m:s)          0:00:10.0000
dti (s)             0.0000
dE/dt               5.000
dE/dt unit          mV/s
E1 (V)              0.700
vs.                 Ref
t1 (h:m:s)          0:00:0.0000
dt1 (s)             0.1000
Step percent        50
N                   10
E range min (V)     -1.000
E range max (V)     1.000
I Range             10 mA
I Range min         Unset
I Range max         Unset
I Range init        Unset
Bandwidth           5
E2 (V)              0.450
vs.                 Ref
t2 (h:m:s)          0:00:0.0000
dt2 (s)             0.1000
nc cycles           14
nr                  1
Reverse Scan        0
Ef (V)              0.000
vs.                 Eoc
tf (h:m:s)          0:00:0.0000
dtf (s)             0.1000

mode	ox/red	error	control changes	Ns changes	counter inc.	time/s	control/V	Ewe/V	<I>/mA	cycle number	(Q-Qo)/C	I Range	Ns	step time/s	Pwe/W	Rwe/Ohm
2	0	0	1	0	0	231.863	0.450021	0.449477	-0.00568583	1	0.0000000E+000	11	0	0.000000000000000E+000	-2.55565e-06	79052.2
2	1	0	1	0	0	234.715	0.464278	0.463779	0.0134549	1	3.94547e-05	11	0	2.7967	6.2401e-06	34469.2
2	1	0	1	0	0	237.612	0.478762	0.478276	0.0147362	1	8.05738e-05	11	0	5.6933	7.04799e-06	32455.8
2	1	0	0	0	0	240.508	0.493244	0.492781	0.013694	1	0.000121264	11	0	8.5898	6.74815e-06	35985.1
2	1	0	1	0	0	243.405	0.507727	0.507255	0.0143202	1	0.000161901	11	0	11.4864	7.26398e-06	35422.3
2	1	0	0	0	0	246.301	0.52221	0.521774	0.013592	1	0.000202056	11	0	14.383	7.09196e-06	38388.3
2	1	0	1	0	0	249.198	0.536692	0.536225	0.0128585	1	0.000242753	11	0	17.2795	6.89503e-06	41702.2
2	1	0	1	0	0	252.094	0.551175	0.550761	0.0139019	1	0.000283872	11	0	20.1761	7.65659e-06	39617.8
2	1	0	1	0	0	254.991	0.565659	0.565171	0.0157206	1	0.000325918	11	0	23.0727	8.88486e-06	35950.9
2	1	0	1	0	0	257.888	0.580141	0.579702	0.0160625	1	0.000370777	11	0	25.9692	9.31146e-06	36090.4
2	1	0	0	0	0	260.784	0.594624	0.594175	0.0186165	1	0.000421173	11	0	28.8658	1.10615e-05	31916.6
2	1	0	1	0	0	263.681	0.609107	0.608679	0.0233426	1	0.000480693	11	0	31.7624	1.42081e-05	26075.9
2	1	0	1	0	0	266.577	0.623589	0.623134	0.0310579	1	0.000558924	11	0	34.6589	1.93532e-05	20063.6
2	1	0	1	0	0	269.474	0.638072	0.637639	0.0486798	1	0.000671618	11	0	37.5555	3.10401e-05	13098.6
2	1	0	1	0	0	272.37	0.652556	0.652104	0.0779615	1	0.000850691	11	0	40.4521	5.0839e-05	8364.44
2	1	0	0	0	0	275.267	0.667038	0.666571	0.138317	1	0.0011565	11	0	43.3486	9.21978e-05	4819.17
2	1	0	1	0	0	278.164	0.681521	0.681085	0.244935	1	0.00169688	11	0	46.2452	0.000166822	2780.68
2	1	0	0	0	0	281.06	0.696004	0.695545	0.42152	1	0.00264309	11	0	49.1418	0.000293187	1650.09
2	1	0	0	0	0	283.707	0.69076	0.690264	0.322006	1	0.00372917	11	0	51.789	0.000222269	2143.64
2	1	0	1	0	0	286.604	0.676278	0.675858	0.171268	1	0.00442307	11	0	54.6855	0.000115753	3946.2
2	1	0	1	0	0	289.5	0.661794	0.661348	0.086264	1	0.00478501	11	0	57.5821	5.70505e-05	7666.56
2	1	0	1	0	0	292.397	0.647311	0.646887	0.0411772	1	0.00496318	11	0	60.4787	2.6637e-05	15709.8
2	1	0	1	0	0	295.294	0.632829	0.632405	0.0175013	1	0.00504413	11	0	63.3752	1.10679e-05	36134.7
2	1	0	0	0	0	298.19	0.618346	0.617889	0.00413683	1	0.00507468	11	0	66.2718	2.5561e-06	149363
2	1	0	1	0	0	301.087	0.603863	0.603412	-0.00229179	1	0.00507901	11	0	0.6992	-1.38289e-06	263292
2	0	0	1	0	0	303.983	0.58938	0.588896	-0.00539614	1	0.005069	11	0	3.5957	-3.17777e-06	109133
2	0	0	1	0	0	306.88	0.574897	0.574446	-0.00667293	1	0.00505073	11	0	6.4923	-3.83324e-06	86086
2	0	0	1	0	0	309.776	0.560414	0.55997	-0.00774619	1	0.00502801	11	0	9.3889	-4.33763e-06	72289.7
2	1	0	0	0	0	312.673	0.545932	0.545488	-0.0088734	1	0.00500224	11	0	12.2854	-4.84033e-06	61474.5
2	0	0	1	0	0	315.57	0.531449	0.531008	-0.00962844	1	0.00497464	11	0	15.182	-5.11278e-06	55150
2	0	0	0	0	0	318.466	0.516966	0.516507	-0.0104998	1	0.00494561	11	0	18.0786	-5.42322e-06	49192
2	1	0	1	0	0	321.363	0.502484	0.50201	-0.0114125	1	0.00491568	11	0	20.9751	-5.72921e-06	43987.5
2	0	0	1	0	0	324.259	0.488	0.487519	-0.0118873	1	0.0048846	11	0	23.8717	-5.79528e-06	41011.8
2	0	0	1	0	0	327.156	0.473517	0.473032	-0.0115433	1	0.00485225	11	0	26.7683	-5.46036e-06	40978.8
2	0	0	1	0	0	330.052	0.459035	0.458579	-0.0111429	1	0.00481869	11	0	29.6648	-5.10991e-06	41154.3
2	1	0	1	0	1	332.718	0.454341	0.453871	0.012299	2	0.00480702	11	0	0.7991	5.58218e-06	36903
2	0	0	1	0	1	335.615	0.468823	0.468336	0.0137448	2	0.00484418	11	0	3.6956	6.4372e-06	34073.6
2	1	0	0	0	1	338.512	0.483306	0.482786	0.0139642	2	0.00488229	11	0	6.5922	6.74172e-06	34573.2
2	1	0	1	0	1	341.408	0.497789	0.49733	0.0134905	2	0.00492056	11	0	9.4888	6.70922e-06	36865.3
2	1	0	1	0	1	344.305	0.512271	0.511812	0.0121577	2	0.00495872	11	0	12.3853	6.22246e-06	42097.8
2	1	0	1	0	1	347.201	0.526755	0.526293	0.0122947	2	0.00499668	11	0	15.2819	6.47061e-06	42806.5
2	1	0	1	0	1	350.098	0.541238	0.540737	0.0123558	2	0.00503481	11	0	18.1785	6.68126e-06	43763.7
2	1	0	0	0	1	352.994	0.55572	0.555266	0.0123944	2	0.00507369	11	0	21.075	6.88217e-06	44799.8
2	1	0	1	0	1	355.891	0.570203	0.569742	0.0130891	2	0.00511379	11	0	23.9716	7.45739e-06	43528.1
2	1	0	0	0	1	358.788	0.584686	0.584164	0.0144349	2	0.00515667	11	0	26.8682	8.43235e-06	40468.8
2	1	0	1	0	1	361.684	0.599168	0.598713	0.0174169	2	0.00520566	11	0	29.7647	1.04278e-05	34375.3
2	1	0	1	0	1	364.581	0.613651	0.613235	0.0236154	2	0.00526577	11	0	32.6613	1.44818e-05	25967.5
2	1	0	1	0	1	367.477	0.628135	0.627713	0.0342266	2	0.00534678	11	0	35.5579	2.14845e-05	18339.9
2	1	0	1	0	1	370.374	0.642617	0.64218	0.0536081	2	0.00546865	11	0	38.4544	3.44261e-05	11979.2
2	1	0	0	0	1	373.27	0.6571	0.65667	0.0903259	2	0.00566967	11	0	41.351	5.93143e-05	7270.01
2	1	0	1	0	1	376.167	0.671583	0.671151	0.160083	2	0.00602269	11	0	44.2476	0.00010744	4192.53
2	1	0	1	0	1	379.063	0.686065	0.685606	0.284951	2	0.00665358	11	0	47.1441	0.000195364	2406.05
2	1	0	1	0	1	381.845	0.699974	0.699556	0.476294	2	0.00769689	11	0	49.9258	0.000333194	1468.75
2	1	0	1	0	1	384.597	0.686265	0.685796	0.260851	2	0.0086694	11	0	52.6779	0.000178891	2629.07
2	1	0	1	0	1	387.494	0.671782	0.671331	0.136513	2	0.00922723	11	0	55.5745	9.16451e-05	4917.73
2	1	0	0	0	1	390.39	0.6573	0.656855	0.0677263	2	0.00951124	11	0	58.471	4.44864e-05	9698.68
2	1	0	1	0	1	393.287	0.642817	0.6424	0.0318408	2	0.009648	11	0	61.3676	2.04545e-05	20175.4
2	1	0	0	0	1	396.184	0.628334	0.627887	0.012798	2	0.00970717	11	0	64.2642	8.03568e-06	49061.5
2	1	0	1	0	1	399.08	0.613852	0.61342	0.00296522	2	0.00972597	11	0	67.1607	1.81892e-06	206872
2	0	0	1	0	1	401.977	0.599368	0.598841	-0.00246326	2	0.00972352	11	0	1.8977	-1.4751e-06	243109
2	0	0	1	0	1	404.873	0.584885	0.584428	-0.00596472	2	0.0097097	11	0	4.7943	-3.48595e-06	97980.8
2	0	0	1	0	1	407.77	0.570403	0.56994	-0.00839383	2	0.00968929	11	0	7.6908	-4.78398e-06	67899.9
2	0	0	0	0	1	410.666	0.55592	0.555427	-0.00868693	2	0.00966508	11	0	10.5874	-4.82496e-06	63938.2
2	0	0	1	0	1	413.563	0.541437	0.540971	-0.00862123	2	0.00963828	11	0	13.484	-4.66383e-06	62748.7
2	1	0	1	0	1	416.459	0.526955	0.526493	-0.0108696	2	0.00961013	11	0	16.3805	-5.72276e-06	48437.2
2	0	0	1	0	1	419.356	0.512471	0.512013	-0.00929405	2	0.00958033	11	0	19.2771	-4.75868e-06	55090.4
2	0	0	1	0	1	422.253	0.497988	0.497537	-0.0113931	2	0.00954961	11	0	22.1737	-5.66848e-06	43670.1
2	0	0	0	0	1	425.149	0.483506	0.483026	-0.011371	2	0.00951805	11	0	25.0702	-5.4925e-06	42478.6
2	0	0	1	0	1	428.046	0.469023	0.468591	-0.011052	2	0.00948474	11	0	27.9668	-5.17886e-06	42398.8
2	0	0	0	0	1	430.942	0.45454	0.454093	-0.0129975	2	0.00945056	11	0	30.8634	-5.90205e-06	34937
2	1	0	1	0	0	433.608	0.458835	0.458348	0.0114076	3	0.00946064	11	0	1.698	5.22865e-06	40179.1
2	1	0	0	0	0	436.505	0.473318	0.472854	0.0134783	3	0.00949822	11	0	4.5946	6.37328e-06	35082.5
2	1	0	1	0	0	439.401	0.4878	0.487316	0.0136184	3	0.00953597	11	0	7.4911	6.63647e-06	35783.6
2	1	0	1	0	0	442.298	0.502283	0.501807	0.013813	3	0.00957383	11	0	10.3877	6.93148e-06	36328.5
2	1	0	1	0	0	445.195	0.516767	0.516311	0.013939	3	0.00961168	11	0	13.2843	7.19686e-06	37040.8
2	1	0	1	0	0	448.091	0.531249	0.530807	0.0135938	3	0.00964943	11	0	16.1808	7.21567e-06	39047.8
2	1	0	0	0	0	450.988	0.545732	0.545226	0.0130493	3	0.0096874	11	0	19.0774	7.11484e-06	41781.9
2	1	0	1	0	0	453.884	0.560215	0.559702	0.0127471	3	0.00972634	11	0	21.974	7.13455e-06	43908.4
2	1	0	1	0	0	456.781	0.574697	0.574201	0.0133733	3	0.00976693	11	0	24.8705	7.67899e-06	42936.2
2	1	0	1	0	0	459.677	0.58918	0.588722	0.0155802	3	0.00981091	11	0	27.7671	9.17242e-06	37786.5
2	1	0	1	0	0	462.574	0.603664	0.603225	0.0198637	3	0.00986191	11	0	30.6637	1.19823e-05	30368.2
2	1	0	0	0	0	465.471	0.618146	0.617713	0.0262277	3	0.00992624	11	0	33.5602	1.62012e-05	23551.9
2	1	0	1	0	0	468.367	0.632629	0.632158	0.0381756	3	0.0100156	11	0	36.4568	2.4133e-05	16559.2
2	1	0	0	0	0	471.264	0.647112	0.646705	0.0609752	3	0.0101539	11	0	39.3534	3.9433e-05	10606
2	1	0	1	0	0	474.16	0.661594	0.661162	0.106173	3	0.010388	11	0	42.2499	7.01977e-05	6227.21
2	1	0	1	0	0	477.057	0.676077	0.675632	0.189955	3	0.0108043	11	0	45.1465	0.00012834	3556.8
2	1	0	1	0	0	479.953	0.690561	0.690096	0.335055	3	0.0115477	11	0	48.0431	0.00023122	2059.65
2	1	0	1	0	0	482.591	0.696253	0.695811	0.394379	3	0.012624	11	0	50.6803	0.000274413	1764.32
2	1	0	1	0	0	485.487	0.681771	0.681311	0.213335	3	0.0134769	11	0	53.5768	0.000145347	3193.63
2	1	0	0	0	0	488.384	0.667288	0.666854	0.109159	3	0.0139271	11	0	56.4734	7.27929e-05	6109.02
2	1	0	1	0	0	491.28	0.652805	0.652327	0.0526662	3	0.0141518	11	0	59.37	3.43556e-05	12386
2	1	0	1	0	0	494.177	0.638323	0.637876	0.0226575	3	0.0142567	11	0	62.2665	1.44527e-05	28153
2	1	0	1	0	0	497.073	0.623839	0.623393	0.00718638	3	0.0142993	11	0	65.1631	4.47994e-06	86746.5
2	1	0	1	0	0	499.97	0.609356	0.608854	-0.000902318	3	0.0143093	11	0	0.0999	-5.4938e-07	674766
2	0	0	0	0	0	502.867	0.594874	0.594353	-0.00505192	3	0.0143023	11	0	2.9964	-3.00262e-06	117649
2	0	0	1	0	0	505.763	0.580391	0.579922	-0.00655986	3	0.0142859	11	0	5.893	-3.8042e-06	88404.6
2	0	0	0	0	0	508.66	0.565908	0.56545	-0.00737413	3	0.0142638	11	0	8.7896	-4.1697e-06	76680.1
2	0	0	1	0	0	511.556	0.551426	0.550929	-0.00814785	3	0.0142385	11	0	11.6861	-4.48889e-06	67616.6
2	0	0	1	0	0	514.453	0.536942	0.53647	-0.00977566	3	0.0142112	11	0	14.5827	-5.24434e-06	54878.1
2	1	0	1	0	0	517.349	0.522459	0.521993	-0.0110006	3	0.0141826	11	0	17.4793	-5.74222e-06	47451.5
2	0	0	1	0	0	520.246	0.507977	0.507489	-0.011227	3	0.0141527	11	0	20.3758	-5.69756e-06	45202.7
2	0	0	0	0	0	523.143	0.493494	0.49298	-0.0102896	3	0.0141215	11	0	23.2724	-5.07256e-06	47910.6
2	0	0	1	0	0	526.039	0.479011	0.478586	-0.0100907	3	0.0140894	11	0	26.169	-4.82926e-06	47428.5
2	1	0	1	0	0	528.936	0.464529	0.464067	-0.0122275	3	0.0140559	11	0	29.0655	-5.67436e-06	37952.8
2	0	0	1	0	0	531.807	0.45017	0.449728	-0.0158719	3	0.0140215	11	0	31.9372	-7.13804e-06	28334.8
2	1	0	1	0	1	534.498	0.463329	0.462865	0.0125711	4	0.0140534	11	0	2.5969	5.81873e-06	36819.8
2	1	0	1	0	1	537.395	0.477812	0.477381	0.0133915	4	0.0140909	11	0	5.4935	6.39284e-06	35648.2
2	1	0	1	0	1	540.291	0.492296	0.491755	0.0120891	4	0.0141289	11	0	8.3901	5.94488e-06	40677.5
2	1	0	0	0	1	543.188	0.506778	0.506344	0.0136728	4	0.0141665	11	0	11.2866	6.92316e-06	37032.9
2	1	0	1	0	1	546.085	0.521261	0.520782	0.0123734	4	0.014204	11	0	14.1832	6.44384e-06	42088.9
2	1	0	0	0	1	548.981	0.535744	0.535296	0.0121743	4	0.0142419	11	0	17.0798	6.51685e-06	43969.5
2	1	0	1	0	1	551.878	0.550226	0.54977	0.0140356	4	0.0142798	11	0	19.9763	7.71633e-06	39169.8
2	1	0	1	0	1	554.774	0.564709	0.564254	0.013087	4	0.0143186	11	0	22.8729	7.38441e-06	43115.5
2	1	0	1	0	1	557.671	0.579193	0.578737	0.0147276	4	0.01436	11	0	25.7695	8.52338e-06	39296.2
2	1	0	1	0	1	560.567	0.593675	0.593193	0.0169338	4	0.0144051	11	0	28.666	1.0045e-05	35030.1
2	1	0	0	0	1	563.464	0.608158	0.607677	0.0201044	4	0.0144586	11	0	31.5626	1.2217e-05	30226.1
2	1	0	1	0	1	566.361	0.622641	0.622167	0.0274939	4	0.0145282	11	0	34.4592	1.71058e-05	22629.3
2	1	0	1	0	1	569.257	0.637123	0.636697	0.0432776	4	0.0146282	11	0	37.3557	2.75547e-05	14711.9
2	1	0	1	0	1	572.154	0.651606	0.651163	0.0696644	4	0.0147874	11	0	40.2523	4.53629e-05	9347.14
2	1	0	1	0	1	575.05	0.66609	0.665613	0.125744	4	0.0150628	11	0	43.1489	8.3697e-05	5293.39
2	1	0	0	0	1	577.947	0.680572	0.680116	0.224955	4	0.0155572	11	0	46.0454	0.000152996	3023.34
2	1	0	1	0	1	580.843	0.695055	0.694607	0.3932	4	0.0164355	11	0	48.942	0.000273119	1766.55
2	1	0	1	0	1	583.481	0.691759	0.691248	0.324547	4	0.0174984	11	0	51.5792	0.000224343	2129.88
2	1	0	0	0	1	586.377	0.677276	0.676798	0.173819	4	0.0181974	11	0	54.4758	0.00011764	3893.7
2	1	0	1	0	1	589.274	0.662794	0.662333	0.0873853	4	0.0185608	11	0	57.3723	5.78782e-05	7579.46
2	1	0	1	0	1	592.17	0.64831	0.647869	0.0400917	4	0.018738	11	0	60.2689	2.59742e-05	16159.7
2	1	0	1	0	1	595.067	0.633827	0.633372	0.0176938	4	0.0188173	11	0	63.1655	1.12068e-05	35796.3
2	1	0	1	0	1	597.963	0.619345	0.618879	0.00387272	4	0.0188467	11	0	66.062	2.39674e-06	159805
2	0	0	0	0	1	600.86	0.604862	0.604431	-0.00153594	4	0.01885	11	0	0.799	-9.28372e-07	393524
2	0	0	1	0	1	603.757	0.590379	0.589891	-0.00443911	4	0.0188391	11	0	3.6956	-2.61859e-06	132885
2	0	0	1	0	1	606.653	0.575897	0.575412	-0.0067772	4	0.0188205	11	0	6.5921	-3.89968e-06	84904.1
2	0	0	1	0	1	609.55	0.561413	0.560952	-0.00920379	4	0.0187978	11	0	9.4887	-5.16288e-06	60947.9
2	0	0	1	0	1	612.446	0.54693	0.546439	-0.00829698	4	0.0187719	11	0	12.3853	-4.5338e-06	65860
2	1	0	0	0	1	615.343	0.532448	0.531953	-0.00979204	4	0.018744	11	0	15.2818	-5.2089e-06	54325
2	0	0	1	0	1	618.239	0.517965	0.517447	-0.0103386	4	0.0187153	11	0	18.1784	-5.34967e-06	50050
2	0	0	0	0	1	621.136	0.503482	0.503023	-0.00952049	4	0.0186851	11	0	21.075	-4.78902e-06	52835.8
2	0	0	1	0	1	624.032	0.489	0.488506	-0.0112414	4	0.0186537	11	0	23.9715	-5.49151e-06	43455.8
2	0	0	1	0	1	626.929	0.474516	0.474042	-0.0122922	4	0.0186215	11	0	26.8681	-5.827e-06	38564.5
2	0	0	1	0	1	629.826	0.460033	0.459531	-0.0126868	4	0.018588	11	0	29.7647	-5.82996e-06	36221.4
2	1	0	1	0	0	632.492	0.453341	0.452862	0.0108914	5	0.018571	11	0	0.6543	4.93231e-06	41579.8
2	1	0	1	0	0	635.388	0.467825	0.467365	0.0119698	5	0.0186078	11	0	3.5509	5.59428e-06	39045.2
2	1	0	1	0	0	638.285	0.482307	0.481816	0.0127175	5	0.0186457	11	0	6.4474	6.12748e-06	37886.1
2	1	0	0	0	0	641.181	0.49679	0.496326	0.0134883	5	0.0186834	11	0	9.344	6.6946e-06	36796.7
2	1	0	1	0	0	644.078	0.511273	0.510816	0.0121181	5	0.0187211	11	0	12.2406	6.19013e-06	42153
2	0	0	1	0	0	646.974	0.525755	0.525305	0.0136161	5	0.0187586	11	0	15.1371	7.1526e-06	38579.8
2	1	0	1	0	0	649.871	0.540238	0.539819	0.0138744	5	0.0187963	11	0	18.0337	7.48968e-06	38907.4
2	1	0	1	0	0	652.768	0.554722	0.554328	0.0124407	5	0.0188345	11	0	20.9303	6.89622e-06	44557.7
2	1	0	0	0	0	655.664	0.569204	0.568776	0.0141361	5	0.0188738	11	0	23.8268	8.04027e-06	40235.8
2	1	0	1	0	0	658.561	0.583687	0.583215	0.015659	5	0.0189157	11	0	26.7234	9.13255e-06	37244.8
2	1	0	0	0	0	661.457	0.59817	0.597734	0.016604	5	0.0189631	11	0	29.62	9.92478e-06	35999.4
2	1	0	1	0	0	664.354	0.612652	0.612184	0.0227837	5	0.0190201	11	0	32.5165	1.39478e-05	26869.4
2	1	0	1	0	0	667.25	0.627135	0.626669	0.0317874	5	0.0190962	11	0	35.4131	1.99202e-05	19714.4
2	1	0	1	0	0	670.147	0.641619	0.641219	0.0483559	5	0.0192097	11	0	38.3097	3.10067e-05	13260.4
2	1	0	1	0	0	673.044	0.656101	0.655676	0.0837495	5	0.0193953	11	0	41.2062	5.49125e-05	7829.02
2	1	0	0	0	0	675.94	0.670584	0.670097	0.148147	5	0.0197221	11	0	44.1028	9.92727e-05	4523.2
2	1	0	1	0	0	678.837	0.685067	0.684666	0.267359	5	0.0203095	11	0	46.9994	0.000183052	2560.85
2	1	0	1	0	0	681.733	0.699549	0.699081	0.459775	5	0.0213413	11	0	49.8959	0.00032142	1520.49
2	1	0	1	0	0	684.37	0.687265	0.686851	0.26505	5	0.0222785	11	0	52.5331	0.00018205	2591.4
2	1	0	1	0	0	687.267	0.672781	0.672302	0.137693	5	0.0228455	11	0	55.4297	9.25711e-05	4882.63
2	1	0	1	0	0	690.164	0.658298	0.657827	0.068347	5	0.0231337	11	0	58.3263	4.49605e-05	9624.82
2	1	0	0	0	0	693.06	0.643816	0.643389	0.0310038	5	0.0232703	11	0	61.2228	1.99475e-05	20751.9
2	1	0	1	0	0	695.957	0.629333	0.62889	0.0110504	5	0.0233287	11	0	64.1194	6.94946e-06	56911.2
2	0	0	0	0	0	698.853	0.61485	0.614424	0.00250519	5	0.0233472	11	0	67.016	1.53925e-06	245261
2	0	0	1	0	0	701.75	0.600367	0.599888	-0.0020887	5	0.0233447	11	0	1.8977	-1.25299e-06	287206
2	0	0	1	0	0	704.646	0.585884	0.585409	-0.00517579	5	0.0233307	11	0	4.7943	-3.02995e-06	113105
2	0	0	1	0	0	707.543	0.571401	0.57092	-0.00758043	5	0.0233102	11	0	7.6909	-4.32782e-06	75315
2	1	0	1	0	0	710.44	0.556919	0.556464	-0.00885053	5	0.0232861	11	0	10.5874	-4.925e-06	62873.6
2	0	0	0	0	0	713.336	0.542436	0.54199	-0.00930173	5	0.0232597	11	0	13.484	-5.04145e-06	58267.7
2	0	0	1	0	0	716.233	0.527953	0.527508	-0.00971563	5	0.0232315	11	0	16.3806	-5.12507e-06	54294.7
2	0	0	1	0	0	719.129	0.513471	0.512994	-0.010003	5	0.023202	11	0	19.2771	-5.13147e-06	51284.1
2	0	0	1	0	0	722.026	0.498988	0.498529	-0.0100187	5	0.0231715	11	0	22.1737	-4.99462e-06	49759.8
2	1	0	1	0	0	724.922	0.484504	0.483994	-0.0114606	5	0.0231399	11	0	25.0703	-5.54686e-06	42231.2
2	0	0	0	0	0	727.819	0.470022	0.469566	-0.0108841	5	0.0231069	11	0	27.9668	-5.11081e-06	43142.3
2	0	0	1	0	0	730.716	0.455539	0.455052	-0.0108712	5	0.0230729	11	0	30.8634	-4.94695e-06	41858.5
2	1	0	0	0	1	733.382	0.457836	0.457364	0.0120361	6	0.023078	11	0	1.5532	5.50488e-06	37999.4
2	1	0	1	0	1	736.278	0.472319	0.471883	0.0118601	6	0.0231151	11	0	4.4498	5.59657e-06	39787.5
2	1	0	0	0	1	739.175	0.486802	0.486382	0.0120321	6	0.0231527	11	0	7.3464	5.85221e-06	40423.7
2	1	0	1	0	1	742.071	0.501284	0.500882	0.0129837	6	0.0231904	11	0	10.2429	6.50332e-06	38577.6
2	1	0	1	0	1	744.968	0.515768	0.515332	0.0138216	6	0.0232281	11	0	13.1395	7.12273e-06	37284.4
2	1	0	1	0	1	747.864	0.530251	0.529842	0.0135175	6	0.0232655	11	0	16.0361	7.16216e-06	39196.6
2	1	0	1	0	1	750.761	0.544733	0.544327	0.0125305	6	0.0233031	11	0	18.9326	6.82069e-06	43440.2
2	1	0	0	0	1	753.658	0.559216	0.558777	0.0124645	6	0.0233415	11	0	21.8292	6.96487e-06	44829.5
2	1	0	1	0	1	756.554	0.573699	0.573264	0.0133065	6	0.0233812	11	0	24.7258	7.62814e-06	43081.4
2	1	0	1	0	1	759.451	0.588181	0.587728	0.0146402	6	0.023424	11	0	27.6223	8.60443e-06	40144.9
2	1	0	1	0	1	762.347	0.602664	0.602171	0.0175334	6	0.0234731	11	0	30.5189	1.05581e-05	34344.2
2	1	0	1	0	1	765.244	0.617148	0.61669	0.0238885	6	0.0235343	11	0	33.4155	1.47318e-05	25815.4
2	1	0	0	0	1	768.14	0.63163	0.631195	0.035729	6	0.0236185	11	0	36.312	2.2552e-05	17666.2
2	1	0	1	0	1	771.037	0.646113	0.645654	0.0569431	6	0.0237477	11	0	39.2086	3.67655e-05	11338.6
2	1	0	0	0	1	773.934	0.660596	0.660198	0.09797	6	0.0239656	11	0	42.1052	6.46796e-05	6738.78
2	1	0	1	0	1	776.83	0.675078	0.67459	0.177153	6	0.0243539	11	0	45.0017	0.000119506	3807.96
2	1	0	1	0	1	779.727	0.689561	0.689089	0.314342	6	0.0250509	11	0	47.8983	0.00021661	2192.16
2	1	0	1	0	1	782.364	0.697252	0.696828	0.400747	6	0.0260889	11	0	50.5355	0.000279252	1738.82
2	1	0	1	0	1	785.26	0.682769	0.682304	0.216887	6	0.026957	11	0	53.4321	0.000147983	3145.9
2	1	0	1	0	1	788.157	0.668287	0.667809	0.109571	6	0.027415	11	0	56.3286	7.31724e-05	6094.76
2	1	0	0	0	1	791.054	0.653804	0.653299	0.0539008	6	0.0276425	11	0	59.2252	3.52133e-05	12120.4
2	1	0	1	0	1	793.95	0.639321	0.638908	0.0220649	6	0.0277477	11	0	62.1218	1.40975e-05	28955.8
2	1	0	1	0	1	796.847	0.624839	0.624366	0.00790858	6	0.0277896	11	0	65.0183	4.93784e-06	78947.9
2	0	0	1	0	1	799.743	0.610355	0.609894	0.000645301	6	0.0277994	11	0	67.9149	3.93565e-07	945132
2	0	0	1	0	1	802.64	0.595872	0.595408	-0.00508711	6	0.0277924	11	0	2.7967	-3.02891e-06	117043
2	0	0	0	0	1	805.536	0.58139	0.580934	-0.00607769	6	0.0277758	11	0	5.6932	-3.53073e-06	95584.6
2	0	0	1	0	1	808.433	0.566907	0.566468	-0.00803521	6	0.0277543	11	0	8.5898	-4.55169e-06	70498.3
2	1	0	0	0	1	811.33	0.552424	0.55192	-0.00894757	6	0.0277291	11	0	11.4864	-4.93834e-06	61683.8
2	0	0	1	0	1	814.226	0.537942	0.537471	-0.0092512	6	0.0277022	11	0	14.3829	-4.97225e-06	58097.4
2	1	0	1	0	1	817.123	0.523458	0.52302	-0.0107785	6	0.0276735	11	0	17.2795	-5.63739e-06	48524.1
2	0	0	1	0	1	820.019	0.508975	0.508506	-0.0098762	6	0.0276438	11	0	20.1761	-5.02211e-06	51488.1
2	0	0	1	0	1	822.916	0.494493	0.494029	-0.0111488	6	0.0276128	11	0	23.0726	-5.50783e-06	44312.3
2	0	0	0	0	1	825.812	0.48001	0.479542	-0.0114193	6	0.0275811	11	0	25.9692	-5.47604e-06	41994
2	0	0	1	0	1	828.709	0.465527	0.465075	-0.0115303	6	0.0275476	11	0	28.8658	-5.36244e-06	40335.1
2	0	0	1	0	1	831.605	0.451045	0.450592	-0.0121183	6	0.0275133	11	0	31.7623	-5.46041e-06	37182.8
2	1	0	1	0	0	834.272	0.462331	0.461898	0.0136326	7	0.0275403	11	0	2.3972	6.29689e-06	33881.8
2	1	0	1	0	0	837.168	0.476813	0.476306	0.0117094	7	0.027578	11	0	5.2937	5.57728e-06	40677.1
2	1	0	1	0	0	840.065	0.491297	0.490815	0.0139588	7	0.0276154	11	0	8.1903	6.85119e-06	35161.6
2	1	0	1	0	0	842.961	0.50578	0.505314	0.0118215	7	0.0276529	11	0	11.0869	5.97355e-06	42745.5
2	1	0	0	0	0	845.858	0.520262	0.519833	0.0139861	7	0.0276904	11	0	13.9834	7.27044e-06	37167.7
2	1	0	1	0	0	848.754	0.534745	0.534301	0.0118197	7	0.0277279	11	0	16.88	6.31527e-06	45204.4
2	1	0	0	0	0	851.651	0.549228	0.548776	0.014077	7	0.0277654	11	0	19.7766	7.72513e-06	38983.9
2	1	0	1	0	0	854.547	0.56371	0.563272	0.013101	7	0.0278042	11	0	22.6731	7.37941e-06	42994.7
2	1	0	1	0	0	857.444	0.578193	0.577756	0.0140339	7	0.0278446	11	0	25.5697	8.10817e-06	41168.6
2	1	0	1	0	0	860.341	0.592676	0.59223	0.0170231	7	0.027889	11	0	28.4663	1.00816e-05	34789.8
2	1	0	1	0	0	863.237	0.607159	0.606684	0.018782	7	0.0279409	11	0	31.3628	1.13947e-05	32301.3
2	1	0	0	0	0	866.134	0.621642	0.621153	0.0275906	7	0.0280076	11	0	34.2594	1.7138e-05	22513.2
2	1	0	1	0	0	869.03	0.636125	0.635665	0.0391654	7	0.0281024	11	0	37.156	2.48961e-05	16230.3
2	1	0	1	0	0	871.927	0.650607	0.650165	0.0666751	7	0.0282521	11	0	40.0525	4.33498e-05	9751.24
2	1	0	1	0	0	874.823	0.665091	0.664615	0.117079	7	0.0285105	11	0	42.9491	7.78122e-05	5676.66
2	1	0	1	0	0	877.72	0.679574	0.679156	0.211864	7	0.0289743	11	0	45.8457	0.000143889	3205.63
2	1	0	0	0	0	880.617	0.694056	0.693597	0.371115	7	0.0298011	11	0	48.7422	0.000257404	1868.96
2	1	0	0	0	0	883.254	0.692758	0.692314	0.330728	7	0.030853	11	0	51.3794	0.000228967	2093.31
2	1	0	1	0	0	886.15	0.678275	0.67782	0.175773	7	0.0315653	11	0	54.276	0.000119142	3856.22
2	1	0	0	0	0	889.047	0.663792	0.663338	0.0882578	7	0.0319349	11	0	57.1726	5.85448e-05	7515.92
2	1	0	1	0	0	891.943	0.64931	0.648823	0.0414821	7	0.0321151	11	0	60.0691	2.69145e-05	15641.1
2	1	0	1	0	0	894.84	0.634826	0.634394	0.0170398	7	0.0321962	11	0	62.9657	1.08099e-05	37230.1
2	1	0	1	0	0	897.737	0.620343	0.619926	0.00473385	7	0.0322264	11	0	65.8623	2.93464e-06	130956
2	0	0	1	0	0	900.633	0.605861	0.605406	-0.00114279	7	0.0322301	11	0	0.9988	-6.91853e-07	529761
2	0	0	0	0	0	903.53	0.591378	0.590881	-0.00419474	7	0.0322196	11	0	3.8954	-2.47859e-06	140863
2	0	0	1	0	0	906.426	0.576895	0.576432	-0.00649164	7	0.0322013	11	0	6.792	-3.74199e-06	88795.9
2	1	0	1	0	0	909.323	0.562413	0.561949	-0.00916942	7	0.0321786	11	0	9.6885	-5.15275e-06	61285.1
2	1	0	1	0	0	912.219	0.547929	0.547503	-0.0101345	7	0.032153	11	0	12.5851	-5.54867e-06	54023.6
2	0	0	1	0	0	915.116	0.533446	0.532968	-0.00880507	7	0.0321256	11	0	15.4817	-4.69282e-06	60529.7
2	0	0	0	0	0	918.013	0.518964	0.518521	-0.0090389	7	0.0320972	11	0	18.3782	-4.68685e-06	57365.5
2	0	0	1	0	0	920.909	0.504481	0.504014	-0.0106983	7	0.0320674	11	0	21.2748	-5.39207e-06	47111.7
2	1	0	0	0	0	923.806	0.489998	0.489547	-0.011741	7	0.0320362	11	0	24.1714	-5.74778e-06	41695.4
2	0	0	1	0	0	926.702	0.475516	0.47504	-0.0103334	7	0.032004	11	0	27.0679	-4.90879e-06	45971.3
2	0	0	1	0	0	929.599	0.461032	0.460563	-0.0108708	7	0.0319708	11	0	29.9645	-5.00667e-06	42367.1
2	1	0	1	0	1	932.265	0.452342	0.451896	0.0105138	8	0.0319494	11	0	0.3995	4.75115e-06	42981.2
2	1	0	1	0	1	935.161	0.466825	0.46636	0.0140042	8	0.0319856	11	0	3.2961	6.53101e-06	33301.4
2	1	0	1	0	1	938.058	0.481309	0.480826	0.0115465	8	0.0320236	11	0	6.1927	5.55184e-06	41642.7
2	1	0	1	0	1	940.955	0.495791	0.49536	0.0131222	8	0.0320615	11	0	9.0892	6.50023e-06	37749.7
2	1	0	0	0	1	943.851	0.510274	0.509809	0.0125678	8	0.0320989	11	0	11.9858	6.40718e-06	40564.7
2	1	0	1	0	1	946.748	0.524757	0.524307	0.0115753	8	0.0321365	11	0	14.8824	6.06902e-06	45295.3
2	1	0	1	0	1	949.644	0.539239	0.538776	0.0133816	8	0.032174	11	0	17.7789	7.20968e-06	40262.5
2	1	0	1	0	1	952.541	0.553722	0.553273	0.0136578	8	0.0322119	11	0	20.6755	7.55649e-06	40509.7
2	1	0	1	0	1	955.437	0.568206	0.567721	0.0143913	8	0.032251	11	0	23.5721	8.17026e-06	39448.8
2	1	0	0	0	1	958.334	0.582688	0.582249	0.0145843	8	0.0322927	11	0	26.4686	8.49169e-06	39923
2	1	0	1	0	1	961.231	0.597171	0.596735	0.0168741	8	0.0323388	11	0	29.3652	1.00693e-05	35364
2	1	0	0	0	1	964.127	0.611654	0.611172	0.0223444	8	0.0323942	11	0	32.2618	1.36563e-05	27352.3
2	1	0	1	0	1	967.024	0.626136	0.625664	0.0286961	8	0.0324674	11	0	35.1583	1.79541e-05	21803.1
2	1	0	1	0	1	969.92	0.640619	0.640189	0.0470143	8	0.0325752	11	0	38.0549	3.0098e-05	13616.9
2	1	0	1	0	1	972.817	0.655103	0.654643	0.0771054	8	0.0327503	11	0	40.9515	5.04765e-05	8490.23
2	1	0	1	0	1	975.713	0.669585	0.669115	0.14041	8	0.0330571	11	0	43.848	9.39507e-05	4765.43
2	1	0	0	0	1	978.61	0.684068	0.683625	0.251813	8	0.0336102	11	0	46.7446	0.000172146	2714.82
2	1	0	1	0	1	981.507	0.698551	0.698101	0.434065	8	0.034586	11	0	49.6412	0.000303021	1608.29
2	1	0	1	0	1	984.144	0.688263	0.687822	0.270399	8	0.0355399	11	0	52.2784	0.000185987	2543.73
2	1	0	1	0	1	987.04	0.673781	0.673333	0.141346	8	0.0361191	11	0	55.1749	9.51728e-05	4763.72
2	1	0	1	0	1	989.937	0.659297	0.658842	0.0700243	8	0.0364134	11	0	58.0715	4.61349e-05	9408.76
2	1	0	1	0	1	992.833	0.644814	0.644332	0.0305323	8	0.0365534	11	0	60.9681	1.9673e-05	21103.3
2	1	0	0	0	1	995.73	0.630332	0.629886	0.0125417	8	0.0366134	11	0	63.8646	7.89982e-06	50223.5
2	0	0	1	0	1	998.627	0.615849	0.615413	0.00292167	8	0.0366329	11	0	66.7612	1.79803e-06	210637
2	1	0	0	0	1	1001.52	0.601366	0.600929	-0.00382461	8	0.0366309	11	0	1.8978	-2.29832e-06	157122
2	0	0	1	0	1	1004.42	0.586884	0.586438	-0.00464944	8	0.0366173	11	0	4.7943	-2.7266e-06	126131
2	0	0	1	0	1	1007.32	0.5724	0.571915	-0.00843327	8	0.0365973	11	0	7.6909	-4.82311e-06	67816.4
2	1	0	1	0	1	1010.21	0.557917	0.557487	-0.00882939	8	0.0365733	11	0	10.5875	-4.92227e-06	63139.9
2	0	0	1	0	1	1013.11	0.543434	0.542986	-0.00848673	8	0.0365472	11	0	13.4841	-4.60818e-06	63980.6
2	0	0	0	0	1	1016.01	0.528952	0.528501	-0.010966	8	0.0365193	11	0	16.3806	-5.79552e-06	48194.7
2	0	0	1	0	1	1018.9	0.514469	0.514013	-0.00951159	8	0.03649	11	0	19.2772	-4.88908e-06	54040.7
2	0	0	1	0	1	1021.8	0.499987	0.499515	-0.0105779	8	0.0364601	11	0	22.1737	-5.28381e-06	47222.6
2	0	0	1	0	1	1024.7	0.485503	0.485039	-0.0119732	8	0.0364285	11	0	25.0703	-5.80746e-06	40510.4
2	0	0	1	0	1	1027.59	0.47102	0.470527	-0.0103823	8	0.0363958	11	0	27.9669	-4.88514e-06	45320.3
2	0	0	0	0	1	1030.49	0.456538	0.456032	-0.0115913	8	0.0363622	11	0	30.8634	-5.28599e-06	39342.7
2	1	0	1	0	0	1033.15	0.456838	0.456336	0.0125398	9	0.0363621	11	0	1.2985	5.72239e-06	36390.9
2	1	0	0	0	0	1036.05	0.47132	0.470854	0.013646	9	0.0363993	11	0	4.195	6.42525e-06	34505
2	1	0	1	0	0	1038.95	0.485803	0.485378	0.0124227	9	0.036437	11	0	7.0916	6.0297e-06	39071.8
2	1	0	0	0	0	1041.84	0.500286	0.499826	0.0117373	9	0.0364746	11	0	9.9882	5.86663e-06	42584.3
2	1	0	1	0	0	1044.74	0.514768	0.514311	0.0127543	9	0.0365119	11	0	12.8847	6.55968e-06	40324.5
2	1	0	1	0	0	1047.64	0.529252	0.5288	0.0138599	9	0.0365492	11	0	15.7813	7.32912e-06	38153.2
2	1	0	1	0	0	1050.53	0.543735	0.543271	0.0120054	9	0.0365868	11	0	18.6779	6.5222e-06	45252.1
2	1	0	1	0	0	1053.43	0.558217	0.557739	0.0131365	9	0.0366251	11	0	21.5744	7.32672e-06	42457.4
2	1	0	0	0	0	1056.33	0.5727	0.572272	0.0146241	9	0.0366644	11	0	24.471	8.36896e-06	39132.1
2	1	0	1	0	0	1059.22	0.587183	0.586683	0.0144152	9	0.0367068	11	0	27.3676	8.45715e-06	40699
2	1	0	1	0	0	1062.12	0.601665	0.601198	0.0184253	9	0.0367551	11	0	30.2641	1.10773e-05	32628.9
2	1	0	1	0	0	1065.02	0.616148	0.61568	0.0243588	9	0.0368146	11	0	33.1607	1.49972e-05	25275.4
2	1	0	1	0	0	1067.91	0.630632	0.630157	0.0329299	9	0.0368956	11	0	36.0573	2.0751e-05	19136.4
2	1	0	0	0	0	1070.81	0.645114	0.644675	0.0525574	9	0.0370184	11	0	38.9538	3.38824e-05	12266.1
2	1	0	1	0	0	1073.71	0.659597	0.659132	0.0922655	9	0.037224	11	0	41.8504	6.08151e-05	7143.86
2	1	0	0	0	0	1076.6	0.67408	0.673638	0.167037	9	0.0375897	11	0	44.747	0.000112523	4032.86
2	1	0	1	0	0	1079.5	0.688562	0.688099	0.299148	9	0.0382479	11	0	47.6435	0.000205844	2300.19
2	1	0	1	0	0	1082.14	0.698252	0.697784	0.410709	9	0.0392502	11	0	50.2807	0.000286586	1698.97
2	1	0	1	0	0	1085.03	0.683768	0.683298	0.221067	9	0.0401404	11	0	53.1773	0.000151055	3090.91
2	1	0	1	0	0	1087.93	0.669285	0.668798	0.113321	9	0.0406084	11	0	56.0739	7.57889e-05	5901.81
2	1	0	1	0	0	1090.83	0.654802	0.654346	0.0549023	9	0.0408405	11	0	58.9705	3.59251e-05	11918.4
2	1	0	0	0	0	1093.72	0.64032	0.639863	0.0247251	9	0.0409477	11	0	61.867	1.58207e-05	25879.1
2	1	0	1	0	0	1096.62	0.625837	0.625373	0.00884558	9	0.0409909	11	0	64.7636	5.53179e-06	70698.9
2	0	0	1	0	0	1099.52	0.611355	0.610869	0.000871891	9	0.0410014	11	0	67.6601	5.32611e-07	700625
2	1	0	1	0	0	1102.41	0.596871	0.596379	-0.00520354	9	0.0409949	11	0	2.6968	-3.10328e-06	114610
2	1	0	1	0	0	1105.31	0.582388	0.581909	-0.00751955	9	0.040979	11	0	5.5934	-4.3757e-06	77386.2
2	0	0	0	0	0	1108.21	0.567906	0.56747	-0.00718782	9	0.0409574	11	0	8.4899	-4.07887e-06	78948.7
2	0	0	1	0	0	1111.1	0.553423	0.552986	-0.0090305	9	0.040933	11	0	11.3865	-4.99374e-06	61235.4
2	0	0	0	0	0	1114	0.53894	0.538469	-0.0098238	9	0.0409064	11	0	14.2831	-5.28981e-06	54812.7
2	0	0	1	0	0	1116.9	0.524458	0.524003	-0.0108761	9	0.0408783	11	0	17.1796	-5.69912e-06	48179.3
2	0	0	1	0	0	1119.79	0.509974	0.509494	-0.0112186	9	0.0408487	11	0	20.0762	-5.71584e-06	45414.9
2	1	0	1	0	0	1122.69	0.495491	0.495042	-0.0115927	9	0.0408182	11	0	22.9728	-5.7389e-06	42702.7
2	0	0	1	0	0	1125.59	0.481009	0.480533	-0.0112255	9	0.0407869	11	0	25.8693	-5.39425e-06	42807.1
2	0	0	0	0	0	1128.48	0.466526	0.466044	-0.0111901	9	0.0407538	11	0	28.7659	-5.21508e-06	41647.9
2	0	0	1	0	0	1131.38	0.452043	0.451552	-0.0123833	9	0.0407198	11	0	31.6625	-5.59169e-06	36464.7
2	1	0	0	0	1	1134.04	0.461332	0.460925	0.013583	10	0.040742	11	0	2.1974	6.26077e-06	33933.9
2	1	0	1	0	1	1136.94	0.475815	0.475349	0.0122755	10	0.0407795	11	0	5.094	5.83515e-06	38723.3
2	1	0	1	0	1	1139.84	0.490297	0.489824	0.0121377	10	0.0408171	11	0	7.9905	5.94535e-06	40355.6
2	1	0	1	0	1	1142.73	0.504781	0.504329	0.0118492	10	0.0408547	11	0	10.8871	5.97592e-06	42562.2
2	1	0	1	0	1	1145.63	0.519264	0.518794	0.0138778	10	0.0408923	11	0	13.7837	7.1997e-06	37383.1
2	1	0	0	0	1	1148.53	0.533746	0.533292	0.0121503	10	0.0409298	11	0	16.6802	6.47966e-06	43891.3
2	1	0	1	0	1	1151.42	0.548229	0.547732	0.0120125	10	0.0409673	11	0	19.5768	6.57966e-06	45596.7
2	1	0	0	0	1	1154.32	0.562712	0.562225	0.0125493	10	0.0410057	11	0	22.4734	7.05554e-06	44801.1
2	1	0	1	0	1	1157.22	0.577194	0.576761	0.0137567	10	0.0410459	11	0	25.3699	7.93432e-06	41925.8
2	1	0	1	0	1	1160.11	0.591677	0.591206	0.015986	10	0.0410895	11	0	28.2665	9.45101e-06	36982.8
2	1	0	1	0	1	1163.01	0.606161	0.605672	0.0200419	10	0.0411403	11	0	31.1631	1.21388e-05	30220.3
2	1	0	1	0	1	1165.91	0.620643	0.62022	0.0263597	10	0.0412047	11	0	34.0596	1.63488e-05	23529.1
2	1	0	0	0	1	1168.8	0.635126	0.634725	0.0380913	10	0.0412953	11	0	36.9562	2.41775e-05	16663.3
2	1	0	1	0	1	1171.7	0.649609	0.649126	0.0619508	10	0.041437	11	0	39.8528	4.02139e-05	10478.1
2	1	0	1	0	1	1174.6	0.664091	0.663614	0.109316	10	0.0416799	11	0	42.7493	7.25436e-05	6070.61
2	1	0	1	0	1	1177.49	0.678574	0.678123	0.198681	10	0.0421163	11	0	45.6459	0.00013473	3413.12
2	1	0	1	0	1	1180.39	0.693058	0.692595	0.350796	10	0.0428971	11	0	48.5425	0.00024296	1974.35
2	1	0	1	0	1	1183.03	0.693756	0.693278	0.337762	10	0.0439362	11	0	51.1797	0.000234163	2052.56
2	1	0	0	0	1	1185.92	0.679274	0.678795	0.180463	10	0.0446649	11	0	54.0762	0.000122498	3761.4
2	1	0	1	0	1	1188.82	0.664791	0.664385	0.0897073	10	0.045042	11	0	56.9728	5.96002e-05	7406.15
2	1	0	0	0	1	1191.72	0.650308	0.64988	0.0417715	10	0.0452253	11	0	59.8694	2.71464e-05	15558
2	1	0	1	0	1	1194.61	0.635826	0.635346	0.0183498	10	0.0453076	11	0	62.7659	1.16585e-05	34624.1
2	1	0	1	0	1	1197.51	0.621342	0.620885	0.00465949	10	0.0453382	11	0	65.6625	2.89301e-06	133252
2	1	0	1	0	1	1200.41	0.606859	0.606407	-0.00119559	10	0.0453422	11	0	0.7991	-7.25017e-07	507202
2	1	0	1	0	1	1203.3	0.592377	0.591895	-0.00512972	10	0.045332	11	0	3.6956	-3.03626e-06	115386
2	0	0	0	0	1	1206.2	0.577894	0.577476	-0.00642211	10	0.0453142	11	0	6.5922	-3.70862e-06	89920.1
2	1	0	1	0	1	1209.1	0.563411	0.562982	-0.0090603	10	0.0452918	11	0	9.4888	-5.10079e-06	62137.3
2	0	0	1	0	1	1211.99	0.548929	0.548491	-0.00911028	10	0.0452662	11	0	12.3853	-4.9969e-06	60205.7
2	0	0	1	0	1	1214.89	0.534445	0.534027	-0.009161	10	0.0452392	11	0	15.2819	-4.89222e-06	58293.5
2	0	0	1	0	1	1217.79	0.519962	0.519505	-0.0103423	10	0.0452106	11	0	18.1785	-5.37287e-06	50231.1
2	0	0	0	0	1	1220.68	0.50548	0.505044	-0.00946098	10	0.0451811	11	0	21.075	-4.77821e-06	53381.8
2	0	0	1	0	1	1223.58	0.490997	0.490551	-0.01141	10	0.0451503	11	0	23.9716	-5.59717e-06	42993.2
2	0	0	0	0	1	1226.48	0.476514	0.476077	-0.011112	10	0.0451182	11	0	26.8682	-5.29018e-06	42843.4
2	0	0	1	0	1	1229.37	0.462032	0.461587	-0.0106464	10	0.0450853	11	0	29.7647	-4.91425e-06	43356
2	1	0	0	0	0	1232.04	0.451344	0.450892	0.0102055	11	0.0450591	11	0	0.2548	4.60157e-06	44181.4
2	1	0	1	0	0	1234.93	0.465826	0.465353	0.0134004	11	0.045095	11	0	3.1513	6.2359e-06	34726.9
2	1	0	1	0	0	1237.83	0.480309	0.479839	0.0134991	11	0.0451329	11	0	6.0479	6.47738e-06	35546.1
2	1	0	1	0	0	1240.73	0.494793	0.494305	0.0120952	11	0.0451706	11	0	8.9445	5.97873e-06	40867.8
2	1	0	1	0	0	1243.62	0.509275	0.508799	0.0121256	11	0.0452081	11	0	11.841	6.16948e-06	41960.8
2	1	0	0	0	0	1246.52	0.523758	0.523301	0.0136149	11	0.0452453	11	0	14.7376	7.1247e-06	38435.9
2	1	0	1	0	0	1249.42	0.538241	0.537779	0.0118893	11	0.0452828	11	0	17.6342	6.39381e-06	45232.2
2	1	0	1	0	0	1252.31	0.552723	0.552247	0.0134086	11	0.0453205	11	0	20.5307	7.40484e-06	41186.1
2	1	0	1	0	0	1255.21	0.567206	0.566748	0.0140238	11	0.0453594	11	0	23.4273	7.94796e-06	40413.2
2	1	0	1	0	0	1258.11	0.58169	0.581227	0.0138331	11	0.0454004	11	0	26.3239	8.04019e-06	42017.1
2	1	0	0	0	0	1261	0.596172	0.595711	0.016715	11	0.0454457	11	0	29.2204	9.95729e-06	35639.4
2	1	0	1	0	0	1263.9	0.610655	0.610197	0.0215495	11	0.0454998	11	0	32.117	1.31494e-05	28316.1
2	1	0	0	0	0	1266.8	0.625138	0.624681	0.0280443	11	0.0455704	11	0	35.0136	1.75187e-05	22274.8
2	1	0	1	0	0	1269.69	0.63962	0.639215	0.0431599	11	0.0456728	11	0	37.9101	2.75885e-05	14810.4
2	1	0	1	0	0	1272.59	0.654103	0.653652	0.0738106	11	0.045838	11	0	40.8067	4.82465e-05	8855.81
2	1	0	1	0	0	1275.49	0.668587	0.668123	0.130828	11	0.0461272	11	0	43.7033	8.74092e-05	5106.87
2	1	0	1	0	0	1278.38	0.68307	0.682634	0.237087	11	0.0466487	11	0	46.5999	0.000161844	2879.26
2	1	0	0	0	0	1281.28	0.697552	0.697102	0.413467	11	0.0475727	11	0	49.4964	0.000288229	1685.99
2	1	0	0	0	0	1283.92	0.689262	0.688779	0.278831	11	0.0485402	11	0	52.1336	0.000192053	2470.24
2	1	0	1	0	0	1286.81	0.674779	0.674302	0.144402	11	0.0491337	11	0	55.0302	9.73705e-05	4669.62
2	1	0	1	0	0	1289.71	0.660297	0.659878	0.0711074	11	0.049434	11	0	57.9267	4.69222e-05	9280.03
2	1	0	1	0	0	1292.61	0.645813	0.645377	0.0327133	11	0.049577	11	0	60.8233	2.11124e-05	19728.3
2	1	0	1	0	0	1295.5	0.63133	0.630923	0.0119675	11	0.0496386	11	0	63.7199	7.55059e-06	52719.6
2	1	0	0	0	0	1298.4	0.616848	0.616403	0.00202967	11	0.0496589	11	0	66.6164	1.2511e-06	303696
2	0	0	1	0	0	1301.3	0.602365	0.601902	-0.00218149	11	0.0496574	11	0	1.698	-1.31304e-06	275913
2	0	0	0	0	0	1304.19	0.587882	0.587431	-0.00535353	11	0.0496442	11	0	4.5946	-3.14483e-06	109728
2	1	0	1	0	0	1307.09	0.5734	0.572924	-0.00829478	11	0.0496247	11	0	7.4911	-4.75228e-06	69070.5
2	0	0	1	0	0	1309.99	0.558916	0.558481	-0.00794532	11	0.0496013	11	0	10.3877	-4.43731e-06	70290.6
2	0	0	1	0	0	1312.88	0.544433	0.544014	-0.00866082	11	0.0495753	11	0	13.2843	-4.71161e-06	62813.3
2	0	0	1	0	0	1315.78	0.52995	0.529516	-0.00860313	11	0.0495478	11	0	16.1809	-4.55549e-06	61549.2
2	0	0	0	0	0	1318.68	0.515468	0.515024	-0.00995941	11	0.0495191	11	0	19.0774	-5.12934e-06	51712.3
2	0	0	1	0	0	1321.57	0.500985	0.50056	-0.0112693	11	0.0494891	11	0	21.974	-5.64094e-06	44418.1
2	0	0	1	0	0	1324.47	0.486503	0.486029	-0.0119252	11	0.0494579	11	0	24.8705	-5.796e-06	40756.4
2	0	0	1	0	0	1327.37	0.472019	0.471546	-0.0110893	11	0.0494255	11	0	27.7671	-5.22911e-06	42522.6
2	0	0	1	0	0	1330.26	0.457536	0.45707	-0.0108338	11	0.049392	11	0	30.6637	-4.95182e-06	42189.1
2	1	0	1	0	1	1332.93	0.455838	0.455375	0.0118413	12	0.0493876	11	0	1.0987	5.39224e-06	38456.4
2	1	0	1	0	1	1335.82	0.470322	0.469862	0.0119329	12	0.0494245	11	0	3.9953	5.60681e-06	39375.4
2	1	0	0	0	1	1338.72	0.484804	0.484289	0.0120184	12	0.0494619	11	0	6.8918	5.82037e-06	40295.7
2	1	0	1	0	1	1341.62	0.499287	0.49881	0.0127482	12	0.0494995	11	0	9.7884	6.35894e-06	39127.8
2	0	0	0	0	1	1344.51	0.51377	0.513276	0.0139542	12	0.0495373	11	0	12.685	7.16236e-06	36783
2	1	0	1	0	1	1347.41	0.528252	0.527819	0.0132437	12	0.0495746	11	0	15.5815	6.9903e-06	39854.2
2	1	0	1	0	1	1350.31	0.542735	0.542249	0.012813	12	0.0496121	11	0	18.4781	6.94781e-06	42320.4
2	1	0	1	0	1	1353.2	0.557219	0.556756	0.0125695	12	0.0496501	11	0	21.3747	6.99815e-06	44294.2
2	1	0	1	0	1	1356.1	0.571702	0.571177	0.0133356	12	0.0496892	11	0	24.2713	7.61696e-06	42831.2
2	1	0	0	0	1	1359	0.586184	0.585711	0.0142762	12	0.0497311	11	0	27.1678	8.36173e-06	41027.1
2	1	0	1	0	1	1361.89	0.600667	0.600209	0.0179814	12	0.0497784	11	0	30.0644	1.07926e-05	33379.4
2	1	0	1	0	1	1364.79	0.615149	0.614698	0.0220116	12	0.0498364	11	0	32.9609	1.35305e-05	27926.1
2	1	0	1	0	1	1367.69	0.629632	0.629178	0.0320913	12	0.0499143	11	0	35.8575	2.01911e-05	19605.9
2	1	0	1	0	1	1370.58	0.644116	0.643618	0.0514799	12	0.050031	11	0	38.7541	3.31334e-05	12502.3
2	1	0	0	0	1	1373.48	0.658598	0.658144	0.0871605	12	0.0502253	11	0	41.6506	5.73642e-05	7550.94
2	1	0	1	0	1	1376.38	0.673081	0.67263	0.157183	12	0.0505701	11	0	44.5472	0.000105726	4279.27
2	1	0	0	0	1	1379.27	0.687564	0.687081	0.282894	12	0.0511913	11	0	47.4438	0.000194371	2428.76
2	1	0	0	0	1	1381.91	0.69925	0.698795	0.421515	12	0.0521524	11	0	50.081	0.000294553	1657.82
2	1	0	1	0	1	1384.81	0.684768	0.684355	0.227053	12	0.0530657	11	0	52.9775	0.000155385	3014.08
2	1	0	1	0	1	1387.7	0.670284	0.669809	0.116835	12	0.0535471	11	0	55.8741	7.8257e-05	5732.95
2	1	0	1	0	1	1390.6	0.655801	0.655375	0.0559538	12	0.0537863	11	0	58.7707	3.66707e-05	11712.8
2	1	0	1	0	1	1393.5	0.641318	0.640865	0.0238218	12	0.0538969	11	0	61.6673	1.52666e-05	26902.5
2	1	0	0	0	1	1396.39	0.626836	0.626367	0.0089678	12	0.053942	11	0	64.5638	5.61714e-06	69846.2
2	1	0	1	0	1	1399.29	0.612353	0.61192	0.000384291	12	0.0539536	11	0	67.4604	2.35155e-07	1.59233e+06
2	0	0	0	0	1	1402.19	0.59787	0.597432	-0.00317568	12	0.0539473	11	0	2.6969	-1.89725e-06	188127
2	0	0	1	0	1	1405.08	0.583388	0.582947	-0.00655291	12	0.0539315	11	0	5.5934	-3.81999e-06	88960
2	0	0	1	0	1	1407.98	0.568904	0.56841	-0.00790747	12	0.0539103	11	0	8.49	-4.49468e-06	71882.6
2	0	0	1	0	1	1410.88	0.554421	0.553932	-0.00973436	12	0.0538857	11	0	11.3866	-5.39217e-06	56904.8
2	0	0	1	0	1	1413.77	0.539939	0.539463	-0.00832682	12	0.0538588	11	0	14.2831	-4.49201e-06	64786.2
2	0	0	0	0	1	1416.67	0.525456	0.525035	-0.00878686	12	0.0538308	11	0	17.1797	-4.61341e-06	59752.3
2	0	0	1	0	1	1419.57	0.510974	0.510471	-0.00941409	12	0.0538014	11	0	20.0762	-4.80562e-06	54224.2
2	0	0	1	0	1	1422.46	0.49649	0.495998	-0.00951058	12	0.0537707	11	0	22.9728	-4.71723e-06	52152.2
2	0	0	1	0	1	1425.36	0.482007	0.481517	-0.0105782	12	0.0537394	11	0	25.8694	-5.0936e-06	45519.5
2	0	0	1	0	1	1428.26	0.467524	0.467086	-0.0125847	12	0.0537067	11	0	28.766	-5.87816e-06	37115.2
2	0	0	0	0	1	1431.15	0.453042	0.452575	-0.0118081	12	0.0536726	11	0	31.6625	-5.34406e-06	38327.4
2	1	0	1	0	0	1433.82	0.460334	0.459846	0.0130734	13	0.0536894	11	0	2.0527	6.01173e-06	35174.3
2	1	0	0	0	0	1436.71	0.474816	0.474328	0.0123136	13	0.0537269	11	0	4.9492	5.84067e-06	38520.7
2	1	0	1	0	0	1439.61	0.489299	0.488802	0.0130248	13	0.0537641	11	0	7.8458	6.36653e-06	37528.7
2	1	0	1	0	0	1442.51	0.503781	0.503322	0.0131407	13	0.0538016	11	0	10.7423	6.61399e-06	38302.7
2	1	0	1	0	0	1445.4	0.518265	0.517792	0.0117751	13	0.0538387	11	0	13.6389	6.09704e-06	43973.6
2	1	0	1	0	0	1448.3	0.532748	0.532296	0.0134833	13	0.0538758	11	0	16.5355	7.17712e-06	39478.1
2	1	0	0	0	0	1451.2	0.54723	0.546728	0.0120077	13	0.053913	11	0	19.432	6.56492e-06	45531.6
2	1	0	1	0	0	1454.09	0.561713	0.56123	0.0132086	13	0.053951	11	0	22.3286	7.41305e-06	42489.9
2	1	0	0	0	0	1456.99	0.576196	0.575774	0.0151781	13	0.0539906	11	0	25.2252	8.73916e-06	37934.5
2	1	0	1	0	0	1459.89	0.590678	0.590203	0.016015	13	0.0540337	11	0	28.1217	9.45209e-06	36853.1
2	1	0	1	0	0	1462.78	0.605161	0.604705	0.0185562	13	0.0540831	11	0	31.0183	1.1221e-05	32587.8
2	1	0	1	0	0	1465.68	0.619645	0.61921	0.0244698	13	0.0541451	11	0	33.9149	1.51519e-05	25305.1
2	1	0	1	0	0	1468.58	0.634127	0.633698	0.0366828	13	0.0542319	11	0	36.8114	2.32458e-05	17275.1
2	1	0	0	0	0	1471.47	0.64861	0.648182	0.058757	13	0.0543666	11	0	39.708	3.80852e-05	11031.6
2	1	0	1	0	0	1474.37	0.663093	0.662614	0.103103	13	0.054596	11	0	42.6046	6.83178e-05	6426.7
2	1	0	1	0	0	1477.27	0.677575	0.677095	0.187545	13	0.0550079	11	0	45.5011	0.000126986	3610.3
2	1	0	1	0	0	1480.16	0.692058	0.69164	0.333025	13	0.0557478	11	0	48.3977	0.000230334	2076.84
2	1	0	1	0	0	1482.8	0.694755	0.694334	0.349501	13	0.0567736	11	0	51.0349	0.000242671	1986.64
2	1	0	1	0	0	1485.7	0.680272	0.679818	0.185274	13	0.0575229	11	0	53.9315	0.000125953	3669.25
2	1	0	1	0	0	1488.59	0.665789	0.665379	0.0928145	13	0.0579102	11	0	56.8281	6.17568e-05	7168.91
2	1	0	1	0	0	1491.49	0.651307	0.650856	0.0433754	13	0.0580984	11	0	59.7246	2.82311e-05	15005.2
2	1	0	0	0	0	1494.39	0.636824	0.636379	0.0181415	13	0.0581826	11	0	62.6212	1.15449e-05	35078.6
2	1	0	1	0	0	1497.28	0.622342	0.621885	0.00543103	13	0.058214	11	0	65.5177	3.37748e-06	114506
2	1	0	1	0	0	1500.18	0.607859	0.607451	-0.0023316	13	0.0582184	11	0	0.4994	-1.41633e-06	260529
2	0	0	1	0	0	1503.08	0.593375	0.59292	-0.00401187	13	0.0582084	11	0	3.396	-2.37872e-06	147791
2	0	0	1	0	0	1505.97	0.578892	0.578467	-0.00694243	13	0.0581907	11	0	6.2926	-4.01596e-06	83323.5
2	0	0	0	0	0	1508.87	0.56441	0.563931	-0.00890629	13	0.0581682	11	0	9.1891	-5.02253e-06	63318.3
2	0	0	1	0	0	1511.77	0.549927	0.549499	-0.00815154	13	0.058143	11	0	12.0857	-4.47927e-06	67410.5
2	0	0	1	0	0	1514.66	0.535445	0.534981	-0.00923331	13	0.058116	11	0	14.9822	-4.93965e-06	57940.3
2	1	0	1	0	0	1517.56	0.520961	0.520492	-0.0110899	13	0.0580873	11	0	17.8788	-5.77223e-06	46933.7
2	0	0	1	0	0	1520.46	0.506478	0.506021	-0.00968032	13	0.0580577	11	0	20.7754	-4.89844e-06	52273.2
2	0	0	1	0	0	1523.35	0.491995	0.491512	-0.00971905	13	0.0580271	11	0	23.672	-4.77703e-06	50572
2	0	0	1	0	0	1526.25	0.477513	0.477009	-0.0120762	13	0.0579952	11	0	26.5685	-5.76045e-06	39500
2	0	0	0	0	0	1529.15	0.46303	0.462557	-0.0116997	13	0.0579619	11	0	29.4651	-5.41177e-06	39536
2	0	0	1	0	1	1531.81	0.450345	0.449901	0.00779297	14	0.0579318	11	0	0.000000000000000E+000	3.50607e-06	57731.6
2	1	0	0	0	1	1534.71	0.464828	0.464395	0.0114211	14	0.0579672	11	0	2.8966	5.30389e-06	40661.2
2	1	0	1	0	1	1537.6	0.47931	0.478808	0.0124255	14	0.0580044	11	0	5.7931	5.94944e-06	38534.3
2	1	0	1	0	1	1540.5	0.493793	0.493334	0.0132628	14	0.0580419	11	0	8.6897	6.54298e-06	37196.8
2	1	0	1	0	1	1543.4	0.508277	0.507847	0.0139573	14	0.0580794	11	0	11.5863	7.08817e-06	36385.8
2	1	0	1	0	1	1546.29	0.522759	0.522302	0.0131688	14	0.0581165	11	0	14.4828	6.87807e-06	39662.2
2	1	0	0	0	1	1549.19	0.537242	0.536783	0.0124223	14	0.0581536	11	0	17.3794	6.66806e-06	43211.4
2	1	0	1	0	1	1552.09	0.551725	0.551232	0.0119864	14	0.0581912	11	0	20.276	6.6073e-06	45988.1
2	1	0	1	0	1	1554.98	0.566207	0.565734	0.0124394	14	0.0582294	11	0	23.1725	7.03739e-06	45479.2
2	1	0	1	0	1	1557.88	0.58069	0.58023	0.0145193	14	0.0582696	11	0	26.0691	8.42452e-06	39962.7
2	1	0	1	0	1	1560.78	0.595174	0.59469	0.0174004	14	0.0583142	11	0	28.9657	1.03479e-05	34176.7
2	1	0	0	0	1	1563.67	0.609656	0.609217	0.0201465	14	0.058367	11	0	31.8622	1.22736e-05	30239.3
2	1	0	1	0	1	1566.57	0.624139	0.623735	0.0269712	14	0.0584347	11	0	34.7588	1.68229e-05	23126
2	1	0	0	0	1	1569.47	0.638622	0.63816	0.0423086	14	0.0585325	11	0	37.6554	2.69997e-05	15083.4
2	1	0	1	0	1	1572.36	0.653104	0.652679	0.0687924	14	0.0586893	11	0	40.5519	4.48993e-05	9487.67
2	1	0	1	0	1	1575.26	0.667587	0.667151	0.125133	14	0.0589627	11	0	43.4485	8.34826e-05	5331.54
2	1	0	1	0	1	1578.16	0.682071	0.681635	0.224407	14	0.0594558	11	0	46.3451	0.000152963	3037.5
2	1	0	1	0	1	1581.05	0.696554	0.696116	0.394604	14	0.0603342	11	0	49.2417	0.00027469	1764.09
2	1	0	1	0	1	1583.69	0.69026	0.689857	0.287248	14	0.0613152	11	0	51.8789	0.00019816	2401.61
2	1	0	0	0	1	1586.59	0.675778	0.675366	0.149344	14	0.0619277	11	0	54.7754	0.000100862	4522.22
2	1	0	1	0	1	1589.48	0.661295	0.660867	0.0727178	14	0.0622379	11	0	57.672	4.80568e-05	9088.1
2	1	0	1	0	1	1592.38	0.646813	0.646373	0.0345971	14	0.0623856	11	0	60.5685	2.23627e-05	18682.8
2	1	0	1	0	1	1595.28	0.632329	0.631913	0.0128744	14	0.0624496	11	0	63.4651	8.13553e-06	49082.8
2	1	0	1	0	1	1598.17	0.617846	0.617388	0.00213731	14	0.0624705	11	0	66.3617	1.31955e-06	288862
2	0	0	1	0	1	1601.07	0.603363	0.602934	-0.00180199	14	0.0624695	11	0	1.4983	-1.08648e-06	334594
2	0	0	1	0	1	1603.97	0.588881	0.588401	-0.00552601	14	0.0624569	11	0	4.3948	-3.25151e-06	106479
2	1	0	0	0	1	1606.86	0.574398	0.573943	-0.00843513	14	0.0624373	11	0	7.2914	-4.84129e-06	68042
2	0	0	1	0	1	1609.76	0.559916	0.559458	-0.00762223	14	0.0624138	11	0	10.1879	-4.26431e-06	73398.2
2	0	0	1	0	1	1612.66	0.545432	0.544992	-0.00920939	14	0.062388	11	0	13.0845	-5.01904e-06	59177.8
2	0	0	1	0	1	1615.55	0.530949	0.530492	-0.0106921	14	0.0623606	11	0	15.9811	-5.67205e-06	49615.6
2	0	0	1	0	1	1618.45	0.516466	0.516023	-0.0100691	14	0.0623315	11	0	18.8777	-5.19589e-06	51248.2
2	0	0	0	0	1	1621.35	0.501984	0.501531	-0.00938134	14	0.0623015	11	0	21.7742	-4.70504e-06	53460.5
2	0	0	1	0	1	1624.24	0.487501	0.487	-0.0114309	14	0.0622707	11	0	24.6708	-5.56687e-06	42603.7
2	0	0	1	0	1	1627.14	0.473019	0.472599	-0.0113689	14	0.0622386	11	0	27.5673	-5.37292e-06	41569.5
2	0	0	1	0	1	1630.04	0.458535	0.458081	-0.0111029	14	0.0622052	11	0	30.4639	-5.08604e-06	41257.7
2	1	0	1	0	0	1632.7	0.454839	0.454373	0.0127937	15	0.0621954	11	0	0.9539	5.8131e-06	35515.4
2	1	0	1	0	0	1635.6	0.469322	0.468847	0.0119699	15	0.0622325	11	0	3.8505	5.61206e-06	39168.8
2	1	0	1	0	0	1638.49	0.483806	0.4834	0.0137538	15	0.0622701	11	0	6.7471	6.64858e-06	35146.7
2	1	0	0	0	0	1641.39	0.498288	0.497796	0.0117237	15	0.0623077	11	0	9.6436	5.83601e-06	42460.6
2	1	0	1	0	0	1644.29	0.512771	0.512291	0.0135932	15	0.062345	11	0	12.5402	6.96367e-06	37687.3
2	1	0	0	0	0	1647.18	0.527254	0.526797	0.0120264	15	0.0623827	11	0	15.4368	6.33545e-06	43803.4
2	1	0	1	0	0	1650.08	0.541736	0.541244	0.0138248	15	0.0624199	11	0	18.3333	7.48259e-06	39150.2
2	1	0	1	0	0	1652.98	0.556219	0.555741	0.0124447	15	0.0624576	11	0	21.2299	6.91601e-06	44657
2	1	0	1	0	0	1655.87	0.570703	0.570262	0.014468	15	0.0624969	11	0	24.1265	8.25054e-06	39415.5
2	1	0	1	0	0	1658.77	0.585186	0.584725	0.0153551	15	0.0625384	11	0	27.0231	8.97851e-06	38080.2
2	1	0	0	0	0	1661.67	0.599668	0.599234	0.0177016	15	0.062585	11	0	29.9196	1.06074e-05	33852
2	1	0	1	0	0	1664.56	0.614151	0.613681	0.0219473	15	0.0626411	11	0	32.8162	1.34686e-05	27961.6
2	1	0	1	0	0	1667.46	0.628633	0.628176	0.0302519	15	0.0627165	11	0	35.7127	1.90035e-05	20764.9
2	1	0	1	0	0	1670.36	0.643116	0.642672	0.0483894	15	0.0628282	11	0	38.6093	3.10986e-05	13281.3
2	1	0	1	0	0	1673.25	0.657599	0.657133	0.0830588	15	0.0630125	11	0	41.5059	5.45807e-05	7911.66
2	1	0	1	0	0	1676.15	0.672083	0.671694	0.14893	15	0.0633384	11	0	44.4025	0.000100035	4510.13
2	1	0	1	0	0	1679.05	0.686565	0.686174	0.267155	15	0.0639276	11	0	47.299	0.000183315	2568.45
2	1	0	0	0	0	1681.73	0.700024	0.699556	0.450664	15	0.0648669	11	0	49.9814	0.000315264	1552.28
2	1	0	0	0	0	1684.58	0.685766	0.685295	0.235673	15	0.0657901	11	0	52.8328	0.000161506	2907.81
2	1	0	1	0	0	1687.48	0.671284	0.670844	0.119828	15	0.0662887	11	0	55.7293	8.0386e-05	5598.37
2	1	0	1	0	0	1690.37	0.6568	0.656394	0.0568739	15	0.0665373	11	0	58.6259	3.73317e-05	11541.2
2	1	0	1	0	0	1693.27	0.642317	0.641893	0.0258286	15	0.0666533	11	0	61.5225	1.65792e-05	24852
2	1	0	1	0	0	1696.17	0.627834	0.627416	0.0104696	15	0.0667012	11	0	64.4191	6.5688e-06	59927.4
2	1	0	0	0	0	1699.06	0.613352	0.612894	0.00105015	15	0.0667145	11	0	67.3156	6.43629e-07	583626
2	1	0	1	0	0	1701.96	0.598869	0.598425	-0.00402697	15	0.066709	11	0	2.4971	-2.40984e-06	148604
2	1	0	0	0	0	1704.86	0.584386	0.58392	-0.00555669	15	0.0666937	11	0	5.3937	-3.24467e-06	105084
2	0	0	1	0	0	1707.75	0.569903	0.569443	-0.00746217	15	0.066673	11	0	8.2902	-4.24928e-06	76310.7
2	1	0	1	0	0	1710.65	0.55542	0.555037	-0.00971674	15	0.0666489	11	0	11.1868	-5.39315e-06	57121.7
2	0	0	1	0	0	1713.55	0.540937	0.540499	-0.0083616	15	0.0666224	11	0	14.0834	-4.51943e-06	64640.6
2	1	0	1	0	0	1716.44	0.526455	0.526009	-0.0109065	15	0.0665944	11	0	16.9799	-5.73692e-06	48228.9
2	0	0	0	0	0	1719.34	0.511972	0.511518	-0.00938716	15	0.0665653	11	0	19.8765	-4.8017e-06	54491.3
2	0	0	1	0	0	1722.24	0.49749	0.497082	-0.0109804	15	0.0665354	11	0	22.773	-5.45818e-06	45269.7
2	1	0	1	0	0	1725.13	0.483006	0.482561	-0.011751	15	0.0665037	11	0	25.6696	-5.67059e-06	41065.3
2	0	0	1	0	0	1728.03	0.468523	0.468063	-0.0105309	15	0.0664712	11	0	28.5662	-4.92914e-06	44446.5
2	0	0	1	0	0	1730.93	0.45404	0.453653	-0.0117308	15	0.0664377	11	0	31.4628	-5.32172e-06	38672
2	0	0	0	0	0	1731.73	0.450021	0.44963	-0.0175213	15	0.066428	11	0	32.2659	-7.87812e-06	25661.8