File: ACS_Catal_2026/Figures_Na_K/main_figures/data/EC/20251112_2-148_alpha_reproducibility/20251112_2-148_003_alpha_Na_first_1_K1_01_CVA_C01.mpt
EC-Lab ASCII FILE
Nb header lines : 66

Cyclic Voltammetry Advanced

Run on channel : 1 (SN 69187)
User :
CE vs. WE compliance from -10 V to 10 V
Electrode connection : standard
Potential control : Ewe
Ewe ctrl range : min = -1.00 V, max = 1.00 V
Safety Limits :
	Do not start on E overload
Acquisition started on : 11/12/2025 16:18:27.289
Loaded Setting File :  C:\Users\User\Documents\EC-Lab\Data\Yatsuzuka\20251030_2-147_gamma_reproducibility\20251030_2-147_001_gamma1_K_1.mps
Saved on :
	File : 20251112_2-148_003_alpha_Na_first_1_K1_01_CVA_C01.mpr
	Directory : C:\Users\User\Documents\EC-Lab\Data\Yatsuzuka\20251112_2-148_alpha_reproducibility\
	Host : 192.109.209.127
Device : SP-150e (SN .003883)
Address : 192.109.209.128
EC-Lab for windows v11.52 (software)
Internet server v11.52 (firmware)
Command interpretor v11.50 (firmware)
Electrode material :
Initial state :
Electrolyte :
Comments :
Electrode surface area : 0.001 cm2
Characteristic mass : 0.001 g
Equivalent Weight : 0.000 g/eq.
Density : 0.000 g/cm3
Volume (V) : 0.001 cm3
Cycle Definition : Charge/Discharge alternance
Ei (V)              0.350
vs.                 Ref
ti (h:m:s)          0:00:10.0000
dti (s)             0.0000
dE/dt               10.000
dE/dt unit          mV/s
E1 (V)              0.450
vs.                 Ref
t1 (h:m:s)          0:00:0.0000
dt1 (s)             0.1000
Step percent        50
N                   10
E range min (V)     -1.000
E range max (V)     1.000
I Range             Auto
I Range min         Unset
I Range max         Unset
I Range init        Unset
Bandwidth           5
E2 (V)              0.350
vs.                 Ref
t2 (h:m:s)          0:00:0.0000
dt2 (s)             0.1000
nc cycles           9
nr                  1
Reverse Scan        0
Ef (V)              0.000
vs.                 Eoc
tf (h:m:s)          0:00:0.0000
dtf (s)             0.1000

mode	ox/red	error	control changes	Ns changes	counter inc.	time/s	control/V	Ewe/V	<I>/mA	cycle number	(Q-Qo)/C	I Range	Ns	step time/s	P/W
2	1	0	0	0	0	0.000000000000000E+000	0.34995	0.349685	0.00810235	1	0.0000000E+000	13	0	0.000000000000000E+000	2.83327e-06
2	1	0	1	0	0	0.3269	0.35322	0.352969	0.0321206	1	1.06522e-05	13	0	0.2996	1.13376e-05
2	1	0	1	0	0	0.6765	0.356715	0.356463	0.0404823	1	2.33775e-05	13	0	0.6492	1.44304e-05
2	1	0	1	0	0	1.026	0.360211	0.359998	0.0448119	1	3.60848e-05	13	0	0.9987	1.61322e-05
2	1	0	1	0	0	1.3755	0.363705	0.363499	0.0440027	1	4.87077e-05	13	0	1.3482	1.5995e-05
2	1	0	1	0	0	1.725	0.3672	0.367	0.0384334	1	6.11989e-05	13	0	1.6977	1.4105e-05
2	1	0	1	0	0	2.0745	0.370696	0.370504	0.0317627	1	7.35603e-05	13	0	2.0472	1.17682e-05
2	1	0	1	0	0	2.4241	0.374191	0.373976	0.0271225	1	8.57667e-05	13	0	2.3968	1.01432e-05
2	1	0	1	0	0	2.7735	0.377686	0.377434	0.0252386	1	9.77884e-05	13	0	2.7462	9.5259e-06
2	1	0	1	0	0	3.1231	0.381181	0.380913	0.0274363	1	0.000109666	13	0	3.0958	1.04509e-05
2	1	0	1	0	0	3.4726	0.384677	0.384424	0.0326994	1	0.00012134	13	0	3.4453	1.25704e-05
2	1	0	1	0	0	3.8221	0.388172	0.387881	0.037618	1	0.000132866	13	0	3.7948	1.45913e-05
2	1	0	1	0	0	4.1716	0.391666	0.391401	0.0407322	1	0.000144192	13	0	4.1443	1.59426e-05
2	1	0	1	0	0	4.5211	0.395162	0.394942	0.0393501	1	0.000155369	13	0	4.4938	1.5541e-05
2	1	0	1	0	0	4.8707	0.398657	0.398422	0.0330232	1	0.000166375	13	0	4.8434	1.31572e-05
2	1	0	1	0	0	5.2201	0.402152	0.401931	0.0267206	1	0.000177253	13	0	5.1928	1.07398e-05
2	1	0	1	0	0	5.5697	0.405647	0.405434	0.0219287	1	0.000187971	13	0	5.5424	8.89065e-06
2	1	0	1	0	0	5.9192	0.409142	0.408911	0.0224695	1	0.000198627	13	0	5.8919	9.18804e-06
2	1	0	1	0	0	6.2687	0.412638	0.412423	0.0264047	1	0.000209046	13	0	6.2414	1.08899e-05
2	1	0	1	0	0	6.6182	0.416132	0.415934	0.032456	1	0.000219325	13	0	6.5909	1.34995e-05
2	1	0	1	0	0	6.9677	0.419628	0.419366	0.0366513	1	0.000229466	13	0	6.9404	1.53703e-05
2	1	0	1	0	0	7.3173	0.423123	0.422902	0.0358198	1	0.000239474	13	0	7.29	1.51482e-05
2	1	0	1	0	0	7.6668	0.426619	0.426381	0.0294141	1	0.000249367	13	0	7.6395	1.25416e-05
2	1	0	1	0	0	8.0163	0.430113	0.429917	0.0233589	1	0.000259156	13	0	7.989	1.00424e-05
2	1	0	1	0	0	8.3658	0.433608	0.433422	0.0192354	1	0.000268841	13	0	8.3385	8.33702e-06
2	1	0	1	0	0	8.7153	0.437104	0.43686	0.0208466	1	0.000278411	13	0	8.688	9.10705e-06
2	1	0	1	0	0	9.0649	0.440599	0.440337	0.026963	1	0.000287893	13	0	9.0376	1.18728e-05
2	1	0	1	0	0	9.4143	0.444094	0.443906	0.0323333	1	0.000297239	13	0	9.387	1.43529e-05
2	1	0	1	0	0	9.7639	0.447589	0.447412	0.0345904	1	0.000306512	13	0	9.7366	1.54761e-05
2	1	0	1	0	0	10.0302	0.449737	0.449528	4.40432e-05	1	0.000312757	13	0	10.0029	1.97986e-08
2	0	0	1	0	0	10.4397	0.445642	0.445374	-0.0132725	1	0.000304704	13	0	0.3446	-5.91124e-06
2	0	0	1	0	0	10.7892	0.442146	0.441872	-0.0170512	1	0.00029694	13	0	0.6941	-7.53442e-06
2	0	0	1	0	0	11.1387	0.438652	0.438422	-0.0246784	1	0.000288863	13	0	1.0436	-1.08195e-05
2	0	0	1	0	0	11.4882	0.435156	0.434896	-0.0314948	1	0.000280553	13	0	1.3931	-1.3697e-05
2	0	0	1	0	0	11.8377	0.431661	0.431434	-0.0319597	1	0.000272016	13	0	1.7426	-1.37885e-05
2	0	0	1	0	0	12.1873	0.428166	0.427927	-0.0265936	1	0.000263266	13	0	2.0922	-1.13801e-05
2	0	0	1	0	0	12.5367	0.424671	0.424348	-0.0198582	1	0.000254294	13	0	2.4416	-8.4268e-06
2	0	0	1	0	0	12.8863	0.421176	0.420977	-0.0183262	1	0.000245135	13	0	2.7912	-7.71491e-06
2	0	0	1	0	0	13.2358	0.41768	0.417421	-0.0228598	1	0.000235771	13	0	3.1407	-9.54217e-06
2	0	0	1	0	0	13.5853	0.414185	0.413991	-0.0305702	1	0.000226242	13	0	3.4902	-1.26558e-05
2	0	0	1	0	0	13.9348	0.41069	0.410454	-0.0368892	1	0.000216526	13	0	3.8397	-1.51413e-05
2	0	0	1	0	0	14.2843	0.407195	0.406933	-0.0352101	1	0.000206632	13	0	4.1892	-1.43281e-05
2	0	0	1	0	0	14.6339	0.4037	0.403392	-0.0296263	1	0.000196443	13	0	4.5388	-1.1951e-05
2	0	0	1	0	0	14.9833	0.400205	0.399915	-0.0235613	1	0.000186117	13	0	4.8882	-9.42249e-06
2	0	0	1	0	0	15.3329	0.39671	0.396433	-0.021778	1	0.000175551	13	0	5.2378	-8.6335e-06
2	0	0	1	0	0	15.6824	0.393214	0.392952	-0.0262792	1	0.000164793	13	0	5.5873	-1.03265e-05
2	0	0	1	0	0	16.0319	0.389719	0.38947	-0.0347568	1	0.000153816	13	0	5.9368	-1.35367e-05
2	0	0	1	0	0	16.3814	0.386225	0.385927	-0.0406676	1	0.000142622	13	0	6.2863	-1.56947e-05
2	0	0	1	0	0	16.7309	0.382729	0.382453	-0.0404808	1	0.000131211	13	0	6.6358	-1.5482e-05
2	0	0	1	0	0	17.0805	0.379234	0.378973	-0.0334508	1	0.000119528	13	0	6.9854	-1.2677e-05
2	0	0	1	0	0	17.4299	0.375739	0.375495	-0.0271174	1	0.000107597	13	0	7.3348	-1.01824e-05
2	0	0	1	0	0	17.7795	0.372244	0.371997	-0.0272367	1	9.53887e-05	13	0	7.6844	-1.0132e-05
2	0	0	1	0	0	18.129	0.368748	0.368542	-0.0328726	1	8.29365e-05	13	0	8.0339	-1.21149e-05
2	0	0	1	0	0	18.4785	0.365253	0.364974	-0.0429976	1	7.02189e-05	13	0	8.3834	-1.5693e-05
2	0	0	1	0	0	18.828	0.361759	0.361514	-0.0463427	1	5.72618e-05	13	0	8.7329	-1.67535e-05
2	0	0	1	0	0	19.1775	0.358263	0.35794	-0.0425519	1	4.39827e-05	13	0	9.0824	-1.5231e-05
2	0	0	1	0	0	19.5271	0.354768	0.354483	-0.0345871	1	3.04274e-05	13	0	9.432	-1.22605e-05
2	0	0	1	0	0	19.8766	0.351272	0.351007	-0.0311979	1	1.65482e-05	13	0	9.7815	-1.09507e-05
2	1	0	1	0	1	20.1638	0.351623	0.351386	0.0236203	2	1.48515e-05	12	0	0.1299	8.29985e-06
2	1	0	1	0	1	20.5433	0.355417	0.355168	0.042581	2	2.74159e-05	13	0	0.5094	1.51234e-05
2	1	0	1	0	1	20.8927	0.358912	0.358699	0.0420205	2	3.95183e-05	13	0	0.8588	1.50727e-05
2	1	0	1	0	1	21.2423	0.362407	0.362171	0.0329878	2	5.168e-05	13	0	1.2084	1.19473e-05
2	1	0	1	0	1	21.5918	0.365903	0.365715	0.0259226	2	6.38651e-05	13	0	1.5579	9.48028e-06
2	1	0	1	0	1	21.9413	0.369398	0.369156	0.0284074	2	7.59379e-05	13	0	1.9074	1.04868e-05
2	1	0	1	0	1	22.2908	0.372892	0.37264	0.0368118	2	8.78823e-05	13	0	2.2569	1.37175e-05
2	1	0	1	0	1	22.6403	0.376388	0.376139	0.0420642	2	9.96707e-05	13	0	2.6064	1.5822e-05
2	1	0	1	0	1	22.9899	0.379883	0.379673	0.0387704	2	0.000111312	13	0	2.956	1.47201e-05
2	1	0	1	0	1	23.3393	0.383378	0.383159	0.0286456	2	0.00012282	13	0	3.3054	1.09758e-05
2	1	0	1	0	1	23.6889	0.386873	0.386617	0.0237138	2	0.000134212	13	0	3.655	9.16814e-06
2	1	0	1	0	1	24.0384	0.390368	0.39011	0.0277556	2	0.000145428	13	0	4.0045	1.08277e-05
2	1	0	1	0	1	24.3879	0.393864	0.393628	0.0363474	2	0.000156483	13	0	4.354	1.43074e-05
2	1	0	1	0	1	24.7374	0.397358	0.397182	0.0398089	2	0.000167365	13	0	4.7035	1.58114e-05
2	1	0	1	0	1	25.0869	0.400854	0.400593	0.0322332	2	0.000178091	13	0	5.053	1.29124e-05
2	1	0	1	0	1	25.4365	0.404349	0.404127	0.0228248	2	0.000188729	13	0	5.4026	9.22411e-06
2	1	0	1	0	1	25.786	0.407845	0.40758	0.0226884	2	0.000199278	13	0	5.7521	9.24733e-06
2	1	0	1	0	1	26.1355	0.411339	0.411141	0.0304513	2	0.000209626	13	0	6.1016	1.25198e-05
2	1	0	1	0	1	26.485	0.414834	0.414649	0.0371706	2	0.000219796	13	0	6.4511	1.54128e-05
2	1	0	1	0	1	26.8345	0.41833	0.418136	0.0343825	2	0.00022985	13	0	6.8006	1.43766e-05
2	1	0	1	0	1	27.1841	0.421825	0.421562	0.0240982	2	0.000239791	13	0	7.1502	1.01589e-05
2	1	0	1	0	1	27.5335	0.42532	0.425097	0.0201076	2	0.000249643	13	0	7.4996	8.54767e-06
2	1	0	1	0	1	27.8831	0.428815	0.428559	0.0242446	2	0.000259362	13	0	7.8492	1.03902e-05
2	1	0	1	0	1	28.2326	0.432311	0.432052	0.0333067	2	0.000268959	13	0	8.1987	1.43902e-05
2	1	0	1	0	1	28.5821	0.435805	0.435582	0.0350129	2	0.000278436	13	0	8.5482	1.5251e-05
2	1	0	1	0	1	28.9316	0.4393	0.439122	0.0259108	2	0.000287823	13	0	8.8977	1.1378e-05
2	1	0	1	0	1	29.2811	0.442796	0.442629	0.0187583	2	0.000297164	13	0	9.2472	8.30298e-06
2	1	0	1	0	1	29.6307	0.446291	0.446123	0.021805	2	0.000306402	13	0	9.5968	9.7277e-06
2	1	0	1	0	1	29.9776	0.449761	0.449582	0.02973	2	0.000315449	13	0	9.9437	1.33661e-05
2	0	0	1	0	1	30.3364	0.44664	0.446377	-0.0152146	2	0.000310015	13	0	0.2946	-6.79144e-06
2	0	0	1	0	1	30.6859	0.443145	0.442926	-0.0251017	2	0.000302358	13	0	0.6441	-1.11182e-05
2	0	0	1	0	1	31.0354	0.439651	0.439425	-0.0314923	2	0.000294366	13	0	0.9936	-1.38385e-05
2	0	0	1	0	1	31.3849	0.436155	0.435855	-0.0286905	2	0.000286104	13	0	1.3431	-1.25049e-05
2	0	0	1	0	1	31.7345	0.43266	0.432364	-0.0192931	2	0.000277586	13	0	1.6927	-8.34164e-06
2	0	0	1	0	1	32.084	0.429164	0.428925	-0.017524	2	0.000268863	13	0	2.0422	-7.51646e-06
2	0	0	1	0	1	32.4335	0.425669	0.425396	-0.0245288	2	0.000259927	13	0	2.3917	-1.04345e-05
2	0	0	1	0	1	32.783	0.422174	0.421913	-0.0332342	2	0.000250856	13	0	2.7412	-1.4022e-05
2	0	0	1	0	1	33.1325	0.418679	0.418427	-0.0341358	2	0.000241585	13	0	3.0907	-1.42833e-05
2	0	0	1	0	1	33.482	0.415185	0.414951	-0.0256497	2	0.000232126	13	0	3.4402	-1.06434e-05
2	0	0	1	0	1	33.8315	0.411689	0.411455	-0.0198212	2	0.000222434	13	0	3.7897	-8.15553e-06
2	0	0	1	0	1	34.1811	0.408194	0.407977	-0.0236716	2	0.000212567	13	0	4.1393	-9.65748e-06
2	0	0	1	0	1	34.5306	0.404698	0.404465	-0.0336272	2	0.000202448	13	0	4.4888	-1.3601e-05
2	0	0	1	0	1	34.8801	0.401203	0.400963	-0.0381049	2	0.000192225	13	0	4.8383	-1.52786e-05
2	0	0	1	0	1	35.2296	0.397709	0.397413	-0.0322665	2	0.000181779	13	0	5.1878	-1.28231e-05
2	0	0	1	0	1	35.5791	0.394213	0.393926	-0.0231954	2	0.000171085	13	0	5.5373	-9.13728e-06
2	0	0	1	0	1	35.9287	0.390718	0.390454	-0.0247532	2	0.000160169	13	0	5.8869	-9.66496e-06
2	0	0	1	0	1	36.2781	0.387223	0.386915	-0.0346495	2	0.000149041	13	0	6.2363	-1.34064e-05
2	0	0	1	0	1	36.6277	0.383728	0.383434	-0.0412976	2	0.000137726	13	0	6.5859	-1.58349e-05
2	0	0	1	0	1	36.9772	0.380232	0.379947	-0.0373949	2	0.000126147	13	0	6.9354	-1.42081e-05
2	0	0	1	0	1	37.3267	0.376737	0.376459	-0.0273507	2	0.000114319	13	0	7.2849	-1.02964e-05
2	0	0	1	0	1	37.6762	0.373243	0.372995	-0.0273683	2	0.000102195	13	0	7.6344	-1.02083e-05
2	0	0	1	0	1	38.0257	0.369747	0.3695	-0.0364868	2	8.98509e-05	13	0	7.9839	-1.34819e-05
2	0	0	1	0	1	38.3753	0.366252	0.366007	-0.0449461	2	7.72496e-05	13	0	8.3335	-1.64506e-05
2	0	0	1	0	1	38.7247	0.362757	0.362456	-0.042424	2	6.43895e-05	13	0	8.6829	-1.53768e-05
2	0	0	1	0	1	39.0743	0.359262	0.359035	-0.031919	2	5.12047e-05	13	0	9.0325	-1.146e-05
2	0	0	1	0	1	39.4238	0.355766	0.355552	-0.0306164	2	3.77148e-05	13	0	9.382	-1.08857e-05
2	0	0	1	0	1	39.7733	0.352271	0.352002	-0.0411843	2	2.39434e-05	13	0	9.7315	-1.4497e-05
2	0	0	1	0	0	40.0305	0.350324	0.350091	-0.00173545	3	1.47788e-05	13	0	9.9887	-6.07565e-07
2	1	0	1	0	0	40.44	0.354419	0.354194	0.0326315	3	2.68347e-05	13	0	0.3445	1.15579e-05
2	1	0	1	0	0	40.7895	0.357913	0.357661	0.025641	3	3.89177e-05	13	0	0.694	9.1708e-06
2	1	0	1	0	0	41.139	0.361408	0.361162	0.0310214	3	5.10739e-05	13	0	1.0435	1.12037e-05
2	1	0	1	0	0	41.4885	0.364904	0.364671	0.0414467	3	6.32084e-05	13	0	1.393	1.51144e-05
2	1	0	1	0	0	41.8381	0.368399	0.368189	0.0416472	3	7.52385e-05	13	0	1.7426	1.5334e-05
2	1	0	1	0	0	42.1875	0.371894	0.371715	0.0324435	3	8.71762e-05	13	0	2.092	1.20597e-05
2	1	0	1	0	0	42.5371	0.375389	0.375176	0.0244963	3	9.903e-05	13	0	2.4416	9.19042e-06
2	1	0	1	0	0	42.8866	0.378885	0.378638	0.0316493	3	0.000110726	13	0	2.7911	1.19836e-05
2	1	0	1	0	0	43.2361	0.38238	0.382117	0.0404987	3	0.000122241	13	0	3.1406	1.54753e-05
2	1	0	1	0	0	43.5856	0.385874	0.385658	0.0384697	3	0.000133582	13	0	3.4901	1.48362e-05
2	1	0	1	0	0	43.9351	0.38937	0.389172	0.0282911	3	0.000144805	13	0	3.8396	1.10101e-05
2	1	0	1	0	0	44.2847	0.392865	0.392669	0.0226895	3	0.000155898	13	0	4.1892	8.90946e-06
2	1	0	1	0	0	44.6342	0.396361	0.396104	0.0285366	3	0.000166836	13	0	4.5387	1.13034e-05
2	1	0	1	0	0	44.9837	0.399855	0.399621	0.0379774	3	0.000177578	13	0	4.8882	1.51766e-05
2	1	0	1	0	0	45.3332	0.40335	0.40313	0.0374027	3	0.000188173	13	0	5.2377	1.50781e-05
2	1	0	1	0	0	45.6827	0.406846	0.406694	0.0284144	3	0.000198692	13	0	5.5872	1.1556e-05
2	1	0	1	0	0	46.0323	0.410341	0.410142	0.0212967	3	0.00020907	13	0	5.9368	8.73469e-06
2	1	0	1	0	0	46.3817	0.413836	0.413637	0.0243667	3	0.000219286	13	0	6.2862	1.00789e-05
2	1	0	1	0	0	46.7313	0.417331	0.417092	0.0343981	3	0.000229367	13	0	6.6358	1.43472e-05
2	1	0	1	0	0	47.0808	0.420827	0.420616	0.03621	3	0.000239282	13	0	6.9853	1.52305e-05
2	1	0	1	0	0	47.4303	0.424321	0.4241	0.028698	3	0.000249114	13	0	7.3348	1.21709e-05
2	1	0	1	0	0	47.7798	0.427816	0.427558	0.0200704	3	0.000258855	13	0	7.6843	8.58124e-06
2	1	0	1	0	0	48.1293	0.431312	0.431103	0.0218208	3	0.00026849	13	0	8.0338	9.40701e-06
2	1	0	1	0	0	48.4789	0.434807	0.434555	0.0312171	3	0.000277994	13	0	8.3834	1.35656e-05
2	1	0	1	0	0	48.8283	0.438302	0.438121	0.0351292	3	0.000287379	13	0	8.7328	1.53908e-05
2	1	0	1	0	0	49.1779	0.441797	0.441646	0.0275641	3	0.000296687	13	0	9.0824	1.21736e-05
2	1	0	1	0	0	49.5274	0.445293	0.445101	0.0197949	3	0.000305931	13	0	9.4319	8.81072e-06
2	1	0	1	0	0	49.8769	0.448787	0.448615	0.0195142	3	0.000315106	13	0	9.7814	8.75438e-06
2	0	0	1	0	0	50.2331	0.447639	0.4474	-0.0148871	3	0.000314248	13	0	0.2097	-6.6605e-06
2	0	0	1	0	0	50.5827	0.444144	0.443868	-0.015904	3	0.000306683	13	0	0.5593	-7.05926e-06
2	0	0	1	0	0	50.9321	0.440649	0.440432	-0.0254213	3	0.000298771	13	0	0.9087	-1.11964e-05
2	0	0	1	0	0	51.2817	0.437154	0.436889	-0.0324293	3	0.000290588	13	0	1.2583	-1.4168e-05
2	0	0	1	0	0	51.6312	0.433658	0.433377	-0.0265542	3	0.000282179	13	0	1.6078	-1.1508e-05
2	0	0	1	0	0	51.9807	0.430163	0.429916	-0.0180175	3	0.00027351	13	0	1.9573	-7.74601e-06
2	0	0	1	0	0	52.3302	0.426669	0.426426	-0.0193759	3	0.000264653	13	0	2.3068	-8.26238e-06
2	0	0	1	0	0	52.6797	0.423173	0.422966	-0.0292823	3	0.000255612	13	0	2.6563	-1.23854e-05
2	0	0	1	0	0	53.0293	0.419678	0.419401	-0.0348899	3	0.000246427	13	0	3.0059	-1.46328e-05
2	0	0	1	0	0	53.3788	0.416182	0.415909	-0.0298052	3	0.000237033	13	0	3.3554	-1.23963e-05
2	0	0	1	0	0	53.7283	0.412688	0.41246	-0.0205819	3	0.000227425	13	0	3.7049	-8.48923e-06
2	0	0	1	0	0	54.0778	0.409192	0.408957	-0.0212307	3	0.000217614	13	0	4.0544	-8.68244e-06
2	0	0	1	0	0	54.4273	0.405697	0.405413	-0.0316057	3	0.000207572	13	0	4.4039	-1.28134e-05
2	0	0	1	0	0	54.7769	0.402202	0.401908	-0.0378974	3	0.000197392	13	0	4.7535	-1.52313e-05
2	0	0	1	0	0	55.1263	0.398707	0.398403	-0.0339006	3	0.000187014	13	0	5.1029	-1.35061e-05
2	0	0	1	0	0	55.4759	0.395212	0.394971	-0.0239895	3	0.000176416	13	0	5.4525	-9.47516e-06
2	0	0	1	0	0	55.8254	0.391716	0.391497	-0.0236088	3	0.000165557	13	0	5.802	-9.24278e-06
2	0	0	1	0	0	56.1749	0.388221	0.387932	-0.0335771	3	0.000154528	13	0	6.1515	-1.30256e-05
2	0	0	1	0	0	56.5244	0.384727	0.384422	-0.0412241	3	0.000143271	13	0	6.501	-1.58475e-05
2	0	0	1	0	0	56.8739	0.381231	0.38092	-0.0369462	3	0.000131806	13	0	6.8505	-1.40735e-05
2	0	0	1	0	0	57.2235	0.377736	0.37749	-0.0274394	3	0.000120043	13	0	7.2001	-1.03581e-05
2	0	0	1	0	0	57.5729	0.374241	0.373994	-0.0265978	3	0.000108042	13	0	7.5495	-9.9474e-06
2	0	0	1	0	0	57.9225	0.370746	0.370525	-0.0376793	3	9.57785e-05	13	0	7.8991	-1.39611e-05
2	0	0	1	0	0	58.272	0.36725	0.366979	-0.0448082	3	8.33082e-05	13	0	8.2486	-1.64437e-05
2	0	0	1	0	0	58.6215	0.363755	0.363489	-0.041143	3	7.05417e-05	13	0	8.5981	-1.4955e-05
2	0	0	1	0	0	58.971	0.360261	0.359976	-0.030939	3	5.74846e-05	13	0	8.9476	-1.11373e-05
2	0	0	1	0	0	59.3205	0.356765	0.356517	-0.0304961	3	4.4107e-05	13	0	9.2971	-1.08724e-05
2	0	0	1	0	0	59.6701	0.35327	0.353013	-0.0410687	3	3.04679e-05	13	0	9.6467	-1.44978e-05
2	0	0	0	0	0	59.9946	0.35	0.349819	-0.0381636	3	1.77752e-05	13	0	9.9712	-1.33503e-05
2	1	0	1	0	1	60.3367	0.35342	0.353202	0.0312063	4	2.6388e-05	13	0	0.2446	1.10221e-05
2	1	0	1	0	1	60.6863	0.356915	0.356652	0.0256774	4	3.83578e-05	13	0	0.5942	9.1579e-06
2	1	0	1	0	1	61.0357	0.36041	0.360168	0.0324455	4	5.05005e-05	13	0	0.9436	1.16858e-05
2	1	0	1	0	1	61.3853	0.363905	0.363703	0.0429787	4	6.26109e-05	13	0	1.2932	1.56315e-05
2	1	0	1	0	1	61.7348	0.367401	0.367216	0.0407141	4	7.46523e-05	13	0	1.6427	1.49508e-05
2	1	0	1	0	1	62.0843	0.370895	0.370713	0.0298243	4	8.66062e-05	13	0	1.9922	1.10563e-05
2	1	0	1	0	1	62.4338	0.37439	0.37419	0.0251477	4	9.84727e-05	13	0	2.3417	9.41003e-06
2	1	0	1	0	1	62.7833	0.377886	0.377653	0.0318463	4	0.000110176	13	0	2.6912	1.20268e-05
2	1	0	1	0	1	63.1329	0.381381	0.381115	0.0414383	4	0.000121712	13	0	3.0408	1.57927e-05
2	1	0	1	0	1	63.4823	0.384876	0.384671	0.0381442	4	0.000133061	13	0	3.3902	1.4673e-05
2	1	0	1	0	1	63.8319	0.388371	0.38813	0.0274574	4	0.000144327	13	0	3.7398	1.0657e-05
2	1	0	1	0	1	64.1814	0.391867	0.391609	0.0232145	4	0.000155423	13	0	4.0893	9.09101e-06
2	1	0	1	0	1	64.5309	0.395362	0.395132	0.0300359	4	0.000166387	13	0	4.4388	1.18681e-05
2	1	0	1	0	1	64.8804	0.398856	0.398643	0.0386989	4	0.000177141	13	0	4.7883	1.5427e-05
2	1	0	1	0	1	65.2299	0.402352	0.402155	0.0363067	4	0.000187758	13	0	5.1378	1.46009e-05
2	1	0	1	0	1	65.5795	0.405847	0.405643	0.0247792	4	0.00019825	13	0	5.4874	1.00515e-05
2	1	0	1	0	1	65.929	0.409343	0.409109	0.0215691	4	0.000208711	13	0	5.8369	8.82413e-06
2	1	0	1	0	1	66.2785	0.412837	0.412602	0.028852	4	0.00021894	13	0	6.1864	1.19044e-05
2	1	0	1	0	1	66.628	0.416332	0.416148	0.0370106	4	0.000229028	13	0	6.5359	1.54019e-05
2	1	0	1	0	1	66.9775	0.419828	0.419643	0.0332717	4	0.000238971	13	0	6.8854	1.39623e-05
2	1	0	1	0	1	67.327	0.423322	0.423081	0.022545	4	0.00024884	13	0	7.2349	9.53835e-06
2	1	0	1	0	1	67.6765	0.426818	0.426546	0.020071	4	0.000258605	13	0	7.5844	8.56119e-06
2	1	0	1	0	1	68.0261	0.430313	0.430107	0.0290828	4	0.000268243	13	0	7.934	1.25087e-05
2	1	0	1	0	1	68.3756	0.433809	0.433552	0.0351435	4	0.000277746	13	0	8.2835	1.52365e-05
2	1	0	1	0	1	68.7251	0.437303	0.437079	0.0302907	4	0.00028715	13	0	8.633	1.32394e-05
2	1	0	1	0	1	69.0746	0.440798	0.440558	0.0197956	4	0.000296498	13	0	8.9825	8.72112e-06
2	1	0	1	0	1	69.4241	0.444294	0.44406	0.0195414	4	0.000305768	13	0	9.332	8.67754e-06
2	1	0	1	0	1	69.7737	0.447789	0.447584	0.0288394	4	0.000314933	13	0	9.6816	1.29081e-05
2	0	0	1	0	1	70.0999	0.448937	0.448712	-0.018427	4	0.000319993	12	0	0.0799	-8.26844e-06
2	0	0	1	0	1	70.4794	0.445142	0.444905	-0.0245953	4	0.00031152	13	0	0.4594	-1.09426e-05
2	0	0	1	0	1	70.8289	0.441647	0.44141	-0.0308526	4	0.000303732	13	0	0.8089	-1.36187e-05
2	0	0	1	0	1	71.1784	0.438153	0.437883	-0.025512	4	0.000295613	13	0	1.1584	-1.11713e-05
2	0	0	1	0	1	71.5279	0.434657	0.434386	-0.0169946	4	0.000287237	13	0	1.5079	-7.3822e-06
2	0	0	1	0	1	71.8775	0.431162	0.430951	-0.018965	4	0.000278615	13	0	1.8575	-8.17299e-06
2	0	0	1	0	1	72.2269	0.427667	0.427449	-0.0296743	4	0.000269843	13	0	2.2069	-1.26842e-05
2	0	0	1	0	1	72.5765	0.424172	0.423877	-0.0342648	4	0.00026089	13	0	2.5565	-1.4524e-05
2	0	0	1	0	1	72.926	0.420676	0.420382	-0.0255038	4	0.000251749	13	0	2.906	-1.07213e-05
2	0	0	1	0	1	73.2755	0.417181	0.416944	-0.0189917	4	0.000242371	13	0	3.2555	-7.91846e-06
2	0	0	1	0	1	73.625	0.413687	0.41352	-0.0248179	4	0.00023282	13	0	3.605	-1.02627e-05
2	0	0	1	0	1	73.9745	0.410191	0.410016	-0.035517	4	0.000223097	13	0	3.9545	-1.45625e-05
2	0	0	1	0	1	74.3241	0.406696	0.406496	-0.0347999	4	0.000213211	13	0	4.3041	-1.4146e-05
2	0	0	1	0	1	74.6736	0.4032	0.402948	-0.0247849	4	0.000203022	13	0	4.6536	-9.987e-06
2	0	0	1	0	1	75.0231	0.399705	0.399425	-0.0213374	4	0.000192681	13	0	5.0031	-8.52267e-06
2	0	0	1	0	1	75.3726	0.39621	0.395986	-0.0304668	4	0.000182141	13	0	5.3526	-1.20644e-05
2	0	0	1	0	1	75.7221	0.392715	0.392488	-0.0388922	4	0.000171432	13	0	5.7021	-1.52647e-05
2	0	0	1	0	1	76.0717	0.38922	0.388967	-0.0367023	4	0.000160498	13	0	6.0517	-1.4276e-05
2	0	0	1	0	1	76.4211	0.385725	0.38544	-0.0259349	4	0.000149312	13	0	6.4011	-9.99634e-06
2	0	0	1	0	1	76.7707	0.38223	0.381949	-0.0253392	4	0.000137864	13	0	6.7507	-9.67828e-06
2	0	0	1	0	1	77.1202	0.378734	0.378483	-0.0364278	4	0.000126202	13	0	7.1002	-1.37873e-05
2	0	0	1	0	1	77.4697	0.375239	0.374958	-0.043197	4	0.000114345	13	0	7.4497	-1.61971e-05
2	0	0	1	0	1	77.8192	0.371745	0.371504	-0.0373765	4	0.000102208	13	0	7.7992	-1.38855e-05
2	0	0	1	0	1	78.1687	0.368249	0.367994	-0.0283985	4	8.97915e-05	13	0	8.1487	-1.04505e-05
2	0	0	1	0	1	78.5183	0.364754	0.364495	-0.0301161	4	7.70729e-05	13	0	8.4983	-1.09772e-05
2	0	0	1	0	1	78.8677	0.361259	0.360965	-0.0425302	4	6.4137e-05	13	0	8.8477	-1.53519e-05
2	0	0	1	0	1	79.2173	0.357764	0.357461	-0.0466798	4	5.09223e-05	13	0	9.1973	-1.66862e-05
2	0	0	1	0	1	79.5668	0.354268	0.353996	-0.0379669	4	3.74121e-05	13	0	9.5468	-1.34401e-05
2	0	0	1	0	1	79.9163	0.350773	0.350516	-0.0314431	4	2.35506e-05	13	0	9.8963	-1.10213e-05
2	1	0	1	0	0	80.2185	0.352271	0.352091	0.0345194	5	2.53839e-05	12	0	0.1948	1.2154e-05
2	1	0	1	0	0	80.583	0.355917	0.355673	0.0439835	5	3.75846e-05	13	0	0.5593	1.56437e-05
2	1	0	1	0	0	80.9325	0.359411	0.359231	0.0359264	5	4.96315e-05	13	0	0.9088	1.29059e-05
2	1	0	1	0	0	81.282	0.362906	0.362679	0.0269664	5	6.17953e-05	13	0	1.2583	9.78012e-06
2	1	0	1	0	0	81.6315	0.366402	0.366181	0.0289093	5	7.39011e-05	13	0	1.6078	1.0586e-05
2	1	0	1	0	0	81.9811	0.369897	0.369688	0.0393938	5	8.58825e-05	13	0	1.9574	1.45634e-05
2	1	0	1	0	0	82.3305	0.373392	0.373222	0.041921	5	9.76958e-05	13	0	2.3068	1.56459e-05
2	1	0	1	0	0	82.6801	0.376887	0.376653	0.0316143	5	0.000109411	13	0	2.6564	1.19076e-05
2	1	0	1	0	0	83.0296	0.380383	0.380137	0.0238371	5	0.00012101	13	0	3.0059	9.06135e-06
2	1	0	1	0	0	83.3791	0.383877	0.383615	0.0309943	5	0.000132465	13	0	3.3554	1.18899e-05
2	1	0	1	0	0	83.7286	0.387372	0.387124	0.0399582	5	0.000143704	13	0	3.7049	1.54688e-05
2	1	0	1	0	0	84.0781	0.390868	0.390662	0.0370662	5	0.000154796	13	0	4.0544	1.44804e-05
2	1	0	1	0	0	84.4277	0.394363	0.394144	0.0257754	5	0.000165761	13	0	4.404	1.01592e-05
2	1	0	1	0	0	84.7771	0.397858	0.397585	0.0229271	5	0.00017661	13	0	4.7534	9.11549e-06
2	1	0	1	0	0	85.1267	0.401353	0.401108	0.032188	5	0.000187288	13	0	5.103	1.29109e-05
2	1	0	1	0	0	85.4762	0.404849	0.4046	0.0386509	5	0.000197781	13	0	5.4525	1.56382e-05
2	1	0	1	0	0	85.8257	0.408344	0.408142	0.0304622	5	0.000208207	13	0	5.802	1.24329e-05
2	1	0	1	0	0	86.1752	0.411838	0.411667	0.0212529	5	0.000218471	13	0	6.1515	8.7491e-06
2	1	0	1	0	0	86.5247	0.415334	0.415109	0.0250938	5	0.000228613	13	0	6.501	1.04167e-05
2	1	0	1	0	0	86.8743	0.418829	0.418627	0.0358538	5	0.000238579	13	0	6.8506	1.50094e-05
2	1	0	1	0	0	87.2238	0.422325	0.422114	0.0339281	5	0.000248417	13	0	7.2001	1.43215e-05
2	1	0	1	0	0	87.5733	0.425819	0.42562	0.0225969	5	0.000258168	13	0	7.5496	9.61771e-06
2	1	0	1	0	0	87.9228	0.429314	0.429127	0.0201152	5	0.000267834	13	0	7.8991	8.63199e-06
2	1	0	1	0	0	88.2723	0.43281	0.432571	0.0284831	5	0.000277372	13	0	8.2486	1.2321e-05
2	1	0	1	0	0	88.6219	0.436305	0.436056	0.0349891	5	0.000286786	13	0	8.5982	1.52572e-05
2	1	0	1	0	0	88.9713	0.4398	0.439614	0.0302449	5	0.000296095	13	0	8.9476	1.32961e-05
2	1	0	1	0	0	89.3209	0.443295	0.44307	0.0197149	5	0.000305362	13	0	9.2972	8.73507e-06
2	1	0	1	0	0	89.6704	0.446791	0.446547	0.0194051	5	0.000314545	13	0	9.6467	8.6653e-06
2	1	0	0	0	0	89.9892	0.450011	0.449754	0.0139928	5	0.000322872	13	0	9.9655	6.29332e-06
2	0	0	1	0	0	90.3761	0.446141	0.445901	-0.0134544	5	0.000315998	13	0	0.3595	-5.99932e-06
2	0	0	1	0	0	90.7257	0.442646	0.442411	-0.0225004	5	0.00030826	13	0	0.7091	-9.9544e-06
2	0	0	1	0	0	91.0751	0.439151	0.438912	-0.0306298	5	0.000300248	13	0	1.0585	-1.34438e-05
2	0	0	1	0	0	91.4247	0.435656	0.435371	-0.0303123	5	0.000291955	13	0	1.4081	-1.31971e-05
2	0	0	1	0	0	91.7742	0.43216	0.43188	-0.0222326	5	0.000283449	13	0	1.7576	-9.6018e-06
2	0	0	1	0	0	92.1237	0.428665	0.428418	-0.0168437	5	0.000274701	13	0	2.1071	-7.21612e-06
2	0	0	1	0	0	92.4732	0.425171	0.424893	-0.0230365	5	0.000265775	13	0	2.4566	-9.78805e-06
2	0	0	1	0	0	92.8227	0.421675	0.421433	-0.0329308	5	0.000256691	13	0	2.8061	-1.38781e-05
2	0	0	1	0	0	93.1723	0.41818	0.417884	-0.0339268	5	0.000247439	13	0	3.1557	-1.41775e-05
2	0	0	1	0	0	93.5217	0.414685	0.41445	-0.0269563	5	0.00023799	13	0	3.5051	-1.1172e-05
2	0	0	1	0	0	93.8713	0.41119	0.41097	-0.0194186	5	0.000228319	13	0	3.8547	-7.98046e-06
2	0	0	1	0	0	94.2208	0.407694	0.407454	-0.0231224	5	0.00021845	13	0	4.2042	-9.42132e-06
2	0	0	1	0	0	94.5703	0.404199	0.403973	-0.0332717	5	0.000208341	13	0	4.5537	-1.34409e-05
2	0	0	1	0	0	94.9198	0.400705	0.40048	-0.0380154	5	0.000198124	13	0	4.9032	-1.52244e-05
2	0	0	1	0	0	95.2693	0.397209	0.396951	-0.0333353	5	0.000187691	13	0	5.2527	-1.32325e-05
2	0	0	1	0	0	95.6189	0.393714	0.393448	-0.0242108	5	0.000177025	13	0	5.6023	-9.52568e-06
2	0	0	1	0	0	95.9684	0.390218	0.389967	-0.0235283	5	0.000166112	13	0	5.9518	-9.17525e-06
2	0	0	1	0	0	96.3179	0.386724	0.386476	-0.0335952	5	0.000155015	13	0	6.3013	-1.29837e-05
2	0	0	1	0	0	96.6674	0.383229	0.382964	-0.041147	5	0.000143713	13	0	6.6508	-1.57578e-05
2	0	0	1	0	0	97.0169	0.379733	0.379499	-0.0391435	5	0.000132173	13	0	7.0003	-1.48549e-05
2	0	0	1	0	0	97.3665	0.376238	0.375963	-0.0305729	5	0.000120373	13	0	7.3499	-1.14943e-05
2	0	0	1	0	0	97.7159	0.372743	0.372523	-0.0258525	5	0.000108299	13	0	7.6993	-9.63064e-06
2	0	0	1	0	0	98.0655	0.369248	0.369061	-0.0322813	5	9.59588e-05	13	0	8.0489	-1.19138e-05
2	0	0	1	0	0	98.415	0.365752	0.365501	-0.042561	5	8.33994e-05	13	0	8.3984	-1.55561e-05
2	0	0	1	0	0	98.7645	0.362257	0.362021	-0.0454457	5	7.05716e-05	13	0	8.7479	-1.64523e-05
2	0	0	1	0	0	99.114	0.358762	0.358477	-0.0387394	5	5.74663e-05	13	0	9.0974	-1.38872e-05
2	0	0	1	0	0	99.4635	0.355267	0.355006	-0.0301426	5	4.40233e-05	13	0	9.4469	-1.07008e-05
2	0	0	1	0	0	99.8131	0.351772	0.351519	-0.0342611	5	3.03007e-05	13	0	9.7965	-1.20434e-05
2	1	0	1	0	1	100.085	0.350973	0.350722	0.0286729	6	2.46711e-05	13	0	0.000000000000000E+000	1.00562e-05
2	1	0	1	0	1	100.48	0.354918	0.354697	0.0395173	6	3.75134e-05	13	0	0.3944	1.40167e-05
2	1	0	1	0	1	100.829	0.358413	0.358222	0.0301277	6	4.95478e-05	13	0	0.744	1.07924e-05
2	1	0	1	0	1	101.179	0.361908	0.361691	0.0254479	6	6.16872e-05	13	0	1.0934	9.20427e-06
2	1	0	1	0	1	101.528	0.365403	0.365196	0.0328292	6	7.37899e-05	13	0	1.443	1.19891e-05
2	1	0	1	0	1	101.878	0.368899	0.368645	0.0415899	6	8.57629e-05	13	0	1.7925	1.53319e-05
2	1	0	1	0	1	102.227	0.372393	0.372209	0.0412537	6	9.76171e-05	13	0	2.142	1.5355e-05
2	1	0	1	0	1	102.577	0.375888	0.375688	0.0316727	6	0.000109351	13	0	2.4915	1.18991e-05
2	1	0	1	0	1	102.926	0.379384	0.379161	0.0241502	6	0.000120976	13	0	2.841	9.15682e-06
2	1	0	1	0	1	103.276	0.382879	0.382655	0.0278169	6	0.000132446	13	0	3.1906	1.06443e-05
2	1	0	1	0	1	103.625	0.386374	0.386108	0.0375908	6	0.000143724	13	0	3.54	1.45141e-05
2	1	0	1	0	1	103.975	0.389869	0.389644	0.0397835	6	0.000154852	13	0	3.8896	1.55014e-05
2	1	0	1	0	1	104.324	0.393365	0.393168	0.0328185	6	0.000165814	13	0	4.2391	1.29032e-05
2	1	0	1	0	1	104.674	0.396859	0.396654	0.0230814	6	0.000176673	13	0	4.5886	9.15534e-06
2	1	0	1	0	1	105.023	0.400354	0.400117	0.0232453	6	0.000187377	13	0	4.9381	9.30085e-06
2	1	0	1	0	1	105.373	0.40385	0.403615	0.0322009	6	0.000197934	13	0	5.2876	1.29968e-05
2	1	0	1	0	1	105.722	0.407345	0.407163	0.0379304	6	0.000208373	13	0	5.6372	1.54438e-05
2	1	0	1	0	1	106.072	0.41084	0.410622	0.0339589	6	0.000218623	13	0	5.9866	1.39443e-05
2	1	0	1	0	1	106.421	0.414335	0.414156	0.0236362	6	0.000228758	13	0	6.3362	9.78906e-06
2	1	0	1	0	1	106.771	0.417831	0.417568	0.0200839	6	0.000238804	13	0	6.6857	8.38638e-06
2	1	0	1	0	1	107.12	0.421326	0.42113	0.0271902	6	0.000248697	13	0	7.0352	1.14506e-05
2	1	0	1	0	1	107.47	0.42482	0.424602	0.0351047	6	0.000258455	13	0	7.3847	1.49055e-05
2	1	0	1	0	1	107.819	0.428316	0.428106	0.0338493	6	0.000268086	13	0	7.7342	1.44911e-05
2	1	0	1	0	1	108.169	0.431811	0.431669	0.0245397	6	0.000277643	13	0	8.0838	1.0593e-05
2	1	0	1	0	1	108.519	0.435307	0.435081	0.0183913	6	0.000287111	13	0	8.4333	8.00172e-06
2	1	0	1	0	1	108.868	0.438801	0.438621	0.0234824	6	0.000296497	13	0	8.7828	1.02999e-05
2	1	0	1	0	1	109.218	0.442296	0.442058	0.0324499	6	0.000305741	13	0	9.1323	1.43447e-05
2	1	0	1	0	1	109.567	0.445792	0.445588	0.0332998	6	0.000314916	13	0	9.4818	1.4838e-05
2	1	0	1	0	1	109.917	0.449287	0.449105	0.0255401	6	0.00032399	13	0	9.8314	1.14702e-05
2	0	0	1	0	1	110.273	0.44714	0.446902	-0.0288539	6	0.000320696	13	0	0.2597	-1.28949e-05
2	0	0	1	0	1	110.622	0.443644	0.443414	-0.0240203	6	0.000313121	13	0	0.6092	-1.06509e-05
2	0	0	1	0	1	110.972	0.440149	0.439914	-0.0163971	6	0.000305155	13	0	0.9587	-7.21333e-06
2	0	0	1	0	1	111.321	0.436654	0.436402	-0.0171053	6	0.000296894	13	0	1.3082	-7.4648e-06
2	0	0	1	0	1	111.671	0.433159	0.432923	-0.027378	6	0.000288439	13	0	1.6577	-1.18526e-05
2	0	0	1	0	1	112.02	0.429664	0.429408	-0.033199	6	0.000279807	13	0	2.0073	-1.42559e-05
2	0	0	1	0	1	112.37	0.426169	0.425835	-0.0287795	6	0.000270977	13	0	2.3567	-1.22553e-05
2	0	0	1	0	1	112.719	0.422674	0.422386	-0.0200445	6	0.000261925	13	0	2.7063	-8.46653e-06
2	0	0	1	0	1	113.069	0.419178	0.418913	-0.0193555	6	0.000252694	13	0	3.0558	-8.10828e-06
2	0	0	1	0	1	113.418	0.415683	0.415443	-0.0285239	6	0.000243269	13	0	3.4053	-1.185e-05
2	0	0	1	0	1	113.768	0.412189	0.411967	-0.0359288	6	0.000233719	13	0	3.7548	-1.48015e-05
2	0	0	1	0	1	114.117	0.408693	0.408458	-0.0334428	6	0.00022396	13	0	4.1043	-1.366e-05
2	0	0	1	0	1	114.467	0.405198	0.404931	-0.0248105	6	0.000213929	13	0	4.4539	-1.00466e-05
2	0	0	1	0	1	114.816	0.401703	0.401467	-0.0210721	6	0.000203731	13	0	4.8033	-8.45977e-06
2	0	0	1	0	1	115.166	0.398208	0.397964	-0.0269351	6	0.000193343	13	0	5.1529	-1.07192e-05
2	0	0	1	0	1	115.516	0.394712	0.394434	-0.0377856	6	0.000182763	13	0	5.5024	-1.49039e-05
2	0	0	1	0	1	115.865	0.391217	0.390923	-0.0389358	6	0.000172001	13	0	5.8519	-1.52209e-05
2	0	0	1	0	1	116.215	0.387723	0.387446	-0.0314461	6	0.000160989	13	0	6.2014	-1.21837e-05
2	0	0	1	0	1	116.564	0.384227	0.383926	-0.0247787	6	0.000149732	13	0	6.5509	-9.51319e-06
2	0	0	1	0	1	116.914	0.380732	0.380523	-0.0261788	6	0.000138224	13	0	6.9005	-9.96162e-06
2	0	0	1	0	1	117.263	0.377236	0.376993	-0.0351483	6	0.000126515	13	0	7.25	-1.32506e-05
2	0	0	1	0	1	117.613	0.373741	0.373506	-0.0429771	6	0.000114566	13	0	7.5995	-1.60522e-05
2	0	0	1	0	1	117.962	0.370246	0.370009	-0.0416513	6	0.000102377	13	0	7.949	-1.54114e-05
2	0	0	1	0	1	118.312	0.366751	0.366502	-0.0349648	6	8.98948e-05	13	0	8.2985	-1.28147e-05
2	0	0	1	0	1	118.661	0.363256	0.362994	-0.0279057	6	7.71377e-05	13	0	8.6481	-1.01296e-05
2	0	0	1	0	1	119.011	0.359761	0.359513	-0.0312592	6	6.40862e-05	13	0	8.9975	-1.12381e-05
2	0	0	1	0	1	119.36	0.356266	0.355943	-0.0406955	6	5.07814e-05	13	0	9.3471	-1.44853e-05
2	0	0	1	0	1	119.71	0.35277	0.352529	-0.0479529	6	3.72066e-05	13	0	9.6966	-1.69048e-05
2	0	0	0	0	0	119.989	0.35005	0.349647	-0.0336389	7	2.59551e-05	13	0	9.9762	-1.17617e-05
2	1	0	1	0	0	120.376	0.353919	0.353703	0.0258579	7	3.66893e-05	13	0	0.3596	9.14603e-06
2	1	0	1	0	0	120.726	0.357414	0.357147	0.0266944	7	4.8676e-05	13	0	0.709	9.53381e-06
2	1	0	1	0	0	121.075	0.360909	0.360666	0.0335589	7	6.07738e-05	13	0	1.0586	1.21036e-05
2	1	0	1	0	0	121.425	0.364405	0.364169	0.0422285	7	7.28605e-05	13	0	1.4081	1.53783e-05
2	1	0	1	0	0	121.774	0.3679	0.367665	0.0421739	7	8.48447e-05	13	0	1.7576	1.55059e-05
2	1	0	1	0	0	122.124	0.371394	0.371194	0.0336709	7	9.67355e-05	13	0	2.1071	1.24984e-05
2	1	0	1	0	0	122.473	0.37489	0.374703	0.0255713	7	0.000108526	13	0	2.4566	9.58165e-06
2	1	0	1	0	0	122.823	0.378385	0.378143	0.0260374	7	0.000120178	13	0	2.8062	9.84586e-06
2	1	0	1	0	0	123.173	0.381881	0.381598	0.0331388	7	0.000131658	13	0	3.1557	1.26457e-05
2	1	0	1	0	0	123.522	0.385375	0.385098	0.0405332	7	0.000142971	13	0	3.5052	1.56092e-05
2	1	0	1	0	0	123.872	0.38887	0.388689	0.0388385	7	0.000154115	13	0	3.8547	1.50961e-05
2	1	0	1	0	0	124.221	0.392366	0.392144	0.0298595	7	0.000165126	13	0	4.2042	1.17092e-05
2	1	0	1	0	0	124.571	0.395861	0.395633	0.0226603	7	0.000176021	13	0	4.5538	8.96515e-06
2	1	0	1	0	0	124.92	0.399356	0.399138	0.0241426	7	0.000186747	13	0	4.9032	9.63624e-06
2	1	0	1	0	0	125.27	0.402851	0.402618	0.0324893	7	0.000197327	13	0	5.2528	1.30808e-05
2	1	0	1	0	0	125.619	0.406347	0.406155	0.0392692	7	0.000207768	13	0	5.6023	1.59494e-05
2	1	0	1	0	0	125.969	0.409841	0.409683	0.0347142	7	0.000218079	13	0	5.9518	1.42218e-05
2	1	0	1	0	0	126.318	0.413336	0.413135	0.0260678	7	0.000228227	13	0	6.3013	1.07695e-05
2	1	0	1	0	0	126.668	0.416832	0.416621	0.0201299	7	0.000238286	13	0	6.6508	8.38656e-06
2	1	0	1	0	0	127.017	0.420327	0.420101	0.0231758	7	0.000248207	13	0	7.0004	9.73619e-06
2	1	0	1	0	0	127.367	0.423822	0.423569	0.0324659	7	0.000258	13	0	7.3498	1.37516e-05
2	1	0	1	0	0	127.716	0.427317	0.427102	0.0354054	7	0.000267653	13	0	7.6994	1.51217e-05
2	1	0	1	0	0	128.066	0.430813	0.430616	0.0310196	7	0.000277214	13	0	8.0489	1.33576e-05
2	1	0	1	0	0	128.415	0.434308	0.434081	0.021434	7	0.000286673	13	0	8.3984	9.30409e-06
2	1	0	1	0	0	128.765	0.437802	0.437615	0.0187748	7	0.000296077	13	0	8.7479	8.21612e-06
2	1	0	1	0	0	129.114	0.441298	0.441117	0.0246917	7	0.000305364	13	0	9.0974	1.08919e-05
2	1	0	1	0	0	129.464	0.444793	0.444604	0.0327364	7	0.00031454	13	0	9.447	1.45547e-05
2	1	0	1	0	0	129.813	0.448289	0.448111	0.033004	7	0.000323625	13	0	9.7965	1.47895e-05
2	0	0	1	0	0	130.14	0.448438	0.44823	-0.0123823	7	0.000325569	12	0	0.1299	-5.5501e-06
2	0	0	1	0	0	130.519	0.444643	0.444381	-0.0299227	7	0.000317549	13	0	0.5093	-1.32971e-05
2	0	0	1	0	0	130.869	0.441148	0.440873	-0.0260689	7	0.000309711	13	0	0.8589	-1.14931e-05
2	0	0	1	0	0	131.218	0.437653	0.437398	-0.0186286	7	0.000301543	13	0	1.2083	-8.14813e-06
2	0	0	1	0	0	131.568	0.434158	0.433932	-0.0160673	7	0.000293136	13	0	1.5579	-6.97212e-06
2	0	0	1	0	0	131.917	0.430662	0.430382	-0.0237288	7	0.000284511	13	0	1.9074	-1.02125e-05
2	0	0	1	0	0	132.267	0.427167	0.426946	-0.0313342	7	0.000275747	13	0	2.2569	-1.3378e-05
2	0	0	1	0	0	132.616	0.423673	0.4234	-0.0342764	7	0.000266782	13	0	2.6064	-1.45126e-05
2	0	0	1	0	0	132.966	0.420177	0.419886	-0.0285563	7	0.00025764	13	0	2.9559	-1.19904e-05
2	0	0	1	0	0	133.315	0.416682	0.416443	-0.0202285	7	0.000248278	13	0	3.3055	-8.42402e-06
2	0	0	1	0	0	133.665	0.413187	0.412976	-0.0201559	7	0.000238736	13	0	3.6549	-8.32392e-06
2	0	0	1	0	0	134.014	0.409692	0.409485	-0.027335	7	0.000229011	13	0	4.0045	-1.11933e-05
2	0	0	1	0	0	134.364	0.406196	0.405932	-0.0361714	7	0.000219103	13	0	4.354	-1.46831e-05
2	0	0	1	0	0	134.713	0.402701	0.402478	-0.0368011	7	0.000208976	13	0	4.7035	-1.48116e-05
2	0	0	1	0	0	135.063	0.399207	0.398933	-0.0293832	7	0.000198671	13	0	5.053	-1.17219e-05
2	0	0	1	0	0	135.412	0.395711	0.395415	-0.022412	7	0.000188156	13	0	5.4025	-8.86203e-06
2	0	0	1	0	0	135.762	0.392216	0.391984	-0.0250587	7	0.000177395	13	0	5.7521	-9.82263e-06
2	0	0	1	0	0	136.111	0.388721	0.388463	-0.0340515	7	0.000166471	13	0	6.1015	-1.32278e-05
2	0	0	1	0	0	136.461	0.385226	0.384986	-0.0412298	7	0.00015532	13	0	6.4511	-1.58729e-05
2	0	0	1	0	0	136.81	0.38173	0.381443	-0.0378116	7	0.000143959	13	0	6.8006	-1.4423e-05
2	0	0	1	0	0	137.16	0.378235	0.378002	-0.0290497	7	0.000132319	13	0	7.1501	-1.09808e-05
2	0	0	1	0	0	137.509	0.374741	0.374507	-0.0256885	7	0.000120437	13	0	7.4996	-9.62053e-06
2	0	0	1	0	0	137.859	0.371245	0.370983	-0.0321291	7	0.000108283	13	0	7.8491	-1.19193e-05
2	0	0	1	0	0	138.208	0.36775	0.367501	-0.0424029	7	9.59203e-05	13	0	8.1987	-1.55831e-05
2	0	0	1	0	0	138.558	0.364254	0.36398	-0.0449208	7	8.33025e-05	13	0	8.5482	-1.63503e-05
2	0	0	1	0	0	138.907	0.36076	0.360473	-0.0367733	7	7.03933e-05	13	0	8.8977	-1.32558e-05
2	0	0	1	0	0	139.257	0.357265	0.356979	-0.0300433	7	5.71778e-05	13	0	9.2472	-1.07248e-05
2	0	0	1	0	0	139.606	0.353769	0.353555	-0.0319891	7	4.36553e-05	13	0	9.5967	-1.13099e-05
2	0	0	1	0	0	139.956	0.350274	0.350074	-0.0415833	7	2.98787e-05	13	0	9.9463	-1.45572e-05
2	1	0	1	0	1	140.243	0.352621	0.352388	0.0334493	8	3.45791e-05	12	0	0.2298	1.17871e-05
2	1	0	1	0	1	140.623	0.356416	0.356153	0.0336491	8	4.77542e-05	13	0	0.6092	1.19842e-05
2	1	0	1	0	1	140.972	0.35991	0.359694	0.0266733	8	5.9845e-05	13	0	0.9587	9.59422e-06
2	1	0	1	0	1	141.322	0.363406	0.363145	0.0272887	8	7.19602e-05	13	0	1.3082	9.90978e-06
2	1	0	1	0	1	141.671	0.366901	0.366633	0.036144	8	8.39928e-05	13	0	1.6578	1.32516e-05
2	1	0	1	0	1	142.021	0.370397	0.37019	0.0426026	8	9.59046e-05	13	0	2.0073	1.57711e-05
2	1	0	1	0	1	142.37	0.373891	0.373669	0.0402253	8	0.000107684	13	0	2.3568	1.50309e-05
2	1	0	1	0	1	142.72	0.377386	0.377121	0.0308469	8	0.00011934	13	0	2.7063	1.1633e-05
2	1	0	1	0	1	143.069	0.380882	0.38062	0.0240372	8	0.000130872	13	0	3.0558	9.14905e-06
2	1	0	1	0	1	143.419	0.384376	0.384097	0.0270133	8	0.000142244	13	0	3.4053	1.03757e-05
2	1	0	1	0	1	143.768	0.387872	0.387601	0.0366459	8	0.000153444	13	0	3.7548	1.4204e-05
2	1	0	1	0	1	144.118	0.391367	0.391117	0.0397233	8	0.000164474	13	0	4.1044	1.55364e-05
2	1	0	1	0	1	144.467	0.394863	0.394627	0.0337201	8	0.000175342	13	0	4.4539	1.33068e-05
2	1	0	1	0	1	144.817	0.398357	0.398149	0.0240718	8	0.000186108	13	0	4.8034	9.58418e-06
2	1	0	1	0	1	145.166	0.401852	0.401623	0.0222014	8	0.000196727	13	0	5.1529	8.91658e-06
2	1	0	1	0	1	145.516	0.405348	0.405102	0.0306306	8	0.000207203	13	0	5.5024	1.24085e-05
2	1	0	1	0	1	145.865	0.408843	0.408652	0.0373945	8	0.000217552	13	0	5.852	1.52813e-05
2	1	0	1	0	1	146.215	0.412338	0.412199	0.0339937	8	0.000227726	13	0	6.2014	1.40122e-05
2	1	0	1	0	1	146.564	0.415833	0.415668	0.0246922	8	0.00023777	13	0	6.551	1.02637e-05
2	1	0	1	0	1	146.914	0.419329	0.419113	0.0199104	8	0.000247739	13	0	6.9005	8.3447e-06
2	1	0	1	0	1	147.263	0.422823	0.422531	0.024038	8	0.000257556	13	0	7.25	1.01568e-05
2	1	0	1	0	1	147.613	0.426318	0.426113	0.0325972	8	0.000267255	13	0	7.5995	1.38901e-05
2	1	0	1	0	1	147.962	0.429814	0.429588	0.0352647	8	0.000276827	13	0	7.949	1.51493e-05
2	1	0	1	0	1	148.312	0.433309	0.433073	0.0309001	8	0.000286298	13	0	8.2986	1.3382e-05
2	1	0	1	0	1	148.661	0.436804	0.436629	0.0214348	8	0.000295683	13	0	8.648	9.35903e-06
2	1	0	1	0	1	149.011	0.440299	0.440062	0.0185604	8	0.000305016	13	0	8.9976	8.16775e-06
2	1	0	1	0	1	149.361	0.443795	0.443533	0.0246911	8	0.000314236	13	0	9.3471	1.09513e-05
2	1	0	1	0	1	149.71	0.44729	0.447056	0.032114	8	0.000323355	13	0	9.6966	1.43567e-05
2	1	0	1	0	1	150.006	0.449737	0.44953	-0.0118066	8	0.000330261	13	0	0.000000000000000E+000	-5.30741e-06
2	0	0	1	0	1	150.416	0.445642	0.445401	-0.0228502	8	0.000322106	13	0	0.4095	-1.01775e-05
2	0	0	1	0	1	150.765	0.442146	0.441874	-0.0301505	8	0.000314356	13	0	0.759	-1.33227e-05
2	0	0	1	0	1	151.115	0.438652	0.438383	-0.031076	8	0.000306317	13	0	1.1085	-1.36232e-05
2	0	0	1	0	1	151.464	0.435156	0.4349	-0.0265306	8	0.000298011	13	0	1.458	-1.15382e-05
2	0	0	1	0	1	151.814	0.431661	0.431386	-0.0199745	8	0.000289492	13	0	1.8075	-8.61674e-06
2	0	0	1	0	1	152.163	0.428166	0.427892	-0.0170581	8	0.00028077	13	0	2.1571	-7.29903e-06
2	0	0	1	0	1	152.513	0.424671	0.424433	-0.0188607	8	0.000271853	13	0	2.5065	-8.00511e-06
2	0	0	1	0	1	152.862	0.421176	0.420957	-0.0264276	8	0.000262746	13	0	2.8561	-1.11249e-05
2	0	0	1	0	1	153.212	0.41768	0.417425	-0.0333148	8	0.000253476	13	0	3.2056	-1.39064e-05
2	0	0	1	0	1	153.561	0.414185	0.413964	-0.0356844	8	0.000244035	13	0	3.5551	-1.4772e-05
2	0	0	1	0	1	153.911	0.41069	0.410425	-0.0325079	8	0.000234386	13	0	3.9046	-1.33421e-05
2	0	0	1	0	1	154.26	0.407195	0.406899	-0.0251573	8	0.000224559	13	0	4.2541	-1.02365e-05
2	0	0	1	0	1	154.61	0.4037	0.403457	-0.0206388	8	0.000214432	13	0	4.6037	-8.32685e-06
2	0	0	1	0	1	154.959	0.400205	0.39994	-0.022959	8	0.000204192	13	0	4.9531	-9.18222e-06
2	0	0	1	0	1	155.309	0.39671	0.396437	-0.0298499	8	0.000193736	13	0	5.3027	-1.18336e-05
2	0	0	1	0	1	155.659	0.393214	0.392924	-0.0378784	8	0.000183117	13	0	5.6522	-1.48833e-05
2	0	0	1	0	1	156.008	0.389719	0.389452	-0.0398397	8	0.000172264	13	0	6.0017	-1.55157e-05
2	0	0	1	0	1	156.358	0.386225	0.385935	-0.0343909	8	0.000161203	13	0	6.3512	-1.32727e-05
2	0	0	1	0	1	156.707	0.382729	0.382451	-0.0271618	8	0.000149877	13	0	6.7007	-1.03881e-05
2	0	0	1	0	1	157.057	0.379234	0.378952	-0.0244962	8	0.000138319	13	0	7.0503	-9.28288e-06
2	0	0	1	0	1	157.406	0.375739	0.375482	-0.0322387	8	0.000126518	13	0	7.3997	-1.2105e-05
2	0	0	1	0	1	157.756	0.372244	0.372014	-0.0417895	8	0.000114502	13	0	7.7493	-1.55463e-05
2	0	0	1	0	1	158.105	0.368748	0.368481	-0.0436012	8	0.000102234	13	0	8.0988	-1.60662e-05
2	0	0	1	0	1	158.455	0.365253	0.365	-0.0362787	8	8.96928e-05	13	0	8.4483	-1.32417e-05
2	0	0	1	0	1	158.804	0.361759	0.361519	-0.0290939	8	7.68571e-05	13	0	8.7978	-1.0518e-05
2	0	0	1	0	1	159.154	0.358263	0.35798	-0.0304677	8	6.37323e-05	13	0	9.1473	-1.09068e-05
2	0	0	1	0	1	159.503	0.354768	0.354504	-0.0410636	8	5.03409e-05	13	0	9.4969	-1.45572e-05
2	0	0	1	0	1	159.853	0.351272	0.350974	-0.0483165	8	3.66931e-05	13	0	9.8464	-1.69578e-05
2	1	0	1	0	0	160.14	0.351623	0.351385	0.0388664	9	3.49355e-05	12	0	0.0649	1.36571e-05
2	1	0	1	0	0	160.519	0.355417	0.355161	0.0255966	9	4.72214e-05	13	0	0.4444	9.09093e-06
2	1	0	1	0	0	160.869	0.358912	0.358685	0.0276661	9	5.92507e-05	13	0	0.7938	9.92343e-06
2	1	0	1	0	0	161.218	0.362407	0.362149	0.0375948	9	7.13387e-05	13	0	1.1434	1.36149e-05
2	1	0	1	0	0	161.568	0.365903	0.365694	0.0430033	9	8.33413e-05	13	0	1.4929	1.5726e-05
2	1	0	1	0	0	161.917	0.369398	0.36917	0.0387592	9	9.52645e-05	13	0	1.8424	1.43088e-05
2	1	0	1	0	0	162.267	0.372892	0.37269	0.0282328	9	0.000107079	13	0	2.1919	1.05221e-05
2	1	0	1	0	0	162.616	0.376388	0.376147	0.0247103	9	0.000118798	13	0	2.5414	9.29469e-06
2	1	0	1	0	0	162.966	0.379883	0.379607	0.0307579	9	0.00013034	13	0	2.891	1.16759e-05
2	1	0	1	0	0	163.315	0.383378	0.383098	0.0393549	9	0.000141716	13	0	3.2404	1.50768e-05
2	1	0	1	0	0	163.665	0.386873	0.386635	0.0394621	9	0.000152911	13	0	3.59	1.52574e-05
2	1	0	1	0	0	164.015	0.390368	0.390173	0.0304925	9	0.000163979	13	0	3.9395	1.18974e-05
2	1	0	1	0	0	164.364	0.393864	0.393649	0.0223819	9	0.000174921	13	0	4.289	8.81061e-06
2	1	0	1	0	0	164.714	0.397358	0.397107	0.0255324	9	0.000185709	13	0	4.6385	1.01391e-05
2	1	0	1	0	0	165.063	0.400854	0.400623	0.0341157	9	0.000196338	13	0	4.988	1.36675e-05
2	1	0	1	0	0	165.413	0.404349	0.404111	0.0383511	9	0.00020679	13	0	5.3376	1.54981e-05
2	1	0	1	0	0	165.762	0.407845	0.407685	0.0320649	9	0.000217187	13	0	5.6871	1.30724e-05
2	1	0	1	0	0	166.112	0.411339	0.411159	0.0219552	9	0.000227404	13	0	6.0366	9.02706e-06
2	1	0	1	0	0	166.461	0.414834	0.414656	0.0212604	9	0.000237514	13	0	6.3861	8.81574e-06
2	1	0	1	0	0	166.811	0.41833	0.418065	0.0293671	9	0.000247462	13	0	6.7356	1.22773e-05
2	1	0	1	0	0	167.16	0.421825	0.421625	0.035804	9	0.000257285	13	0	7.0852	1.50959e-05
2	1	0	1	0	0	167.51	0.42532	0.425103	0.0335576	9	0.000266966	13	0	7.4346	1.42655e-05
2	1	0	1	0	0	167.859	0.428815	0.428587	0.0226545	9	0.00027658	13	0	7.7842	9.70944e-06
2	1	0	1	0	0	168.209	0.432311	0.432062	0.0188418	9	0.000286109	13	0	8.1337	8.14081e-06
2	1	0	1	0	0	168.558	0.435805	0.435589	0.0252892	9	0.00029553	13	0	8.4832	1.10157e-05
2	1	0	1	0	0	168.908	0.4393	0.4391	0.033252	9	0.000304817	13	0	8.8327	1.4601e-05
2	1	0	1	0	0	169.257	0.442796	0.442615	0.0328591	9	0.000314018	13	0	9.1822	1.45439e-05
2	1	0	1	0	0	169.607	0.446291	0.446073	0.0231162	9	0.000323146	13	0	9.5318	1.03115e-05
2	1	0	1	0	0	169.954	0.449761	0.449572	0.0165821	9	0.000332163	13	0	9.8787	7.45486e-06
2	0	0	1	0	0	170.313	0.44664	0.446405	-0.0199887	9	0.000326958	13	0	0.2447	-8.92307e-06
2	0	0	1	0	0	170.662	0.443145	0.442884	-0.0144202	9	0.000319297	13	0	0.5942	-6.38646e-06
2	0	0	1	0	0	171.012	0.439651	0.439454	-0.0179506	9	0.000311297	13	0	0.9437	-7.88846e-06
2	0	0	1	0	0	171.361	0.436155	0.435884	-0.0280513	9	0.00030305	13	0	1.2932	-1.22271e-05
2	0	0	1	0	0	171.711	0.43266	0.432413	-0.0324342	9	0.000294605	13	0	1.6428	-1.4025e-05
2	0	0	1	0	0	172.06	0.429164	0.428892	-0.0285162	9	0.000285953	13	0	1.9923	-1.22304e-05
2	0	0	1	0	0	172.41	0.425669	0.425364	-0.0196444	9	0.000277094	13	0	2.3418	-8.35602e-06
2	0	0	1	0	0	172.759	0.422174	0.421985	-0.0181045	9	0.00026803	13	0	2.6913	-7.6398e-06
2	0	0	1	0	0	173.109	0.418679	0.418423	-0.0266936	9	0.000258787	13	0	3.0408	-1.11692e-05
2	0	0	1	0	0	173.458	0.415185	0.414939	-0.0348136	9	0.000249411	13	0	3.3903	-1.44455e-05
2	0	0	1	0	0	173.808	0.411689	0.411398	-0.0339869	9	0.000239831	13	0	3.7398	-1.39821e-05
2	0	0	1	0	0	174.157	0.408194	0.40796	-0.0254918	9	0.000230066	13	0	4.0894	-1.03996e-05
2	0	0	1	0	0	174.507	0.404698	0.404399	-0.0201795	9	0.000219999	13	0	4.4389	-8.16057e-06
2	0	0	1	0	0	174.856	0.401203	0.40095	-0.0258114	9	0.000209818	13	0	4.7884	-1.03491e-05
2	0	0	1	0	0	175.206	0.397709	0.397422	-0.035912	9	0.000199449	13	0	5.1379	-1.42722e-05
2	0	0	1	0	0	175.555	0.394213	0.393938	-0.0382913	9	0.000188914	13	0	5.4874	-1.50844e-05
2	0	0	1	0	0	175.905	0.390718	0.390416	-0.0317457	9	0.000178129	13	0	5.837	-1.2394e-05
2	0	0	1	0	0	176.254	0.387223	0.386923	-0.023948	9	0.000167128	13	0	6.1864	-9.26604e-06
2	0	0	1	0	0	176.604	0.383728	0.383455	-0.0256385	9	0.000155858	13	0	6.536	-9.83123e-06
2	0	0	1	0	0	176.953	0.380232	0.379981	-0.0354976	9	0.000144404	13	0	6.8855	-1.34884e-05
2	0	0	1	0	0	177.303	0.376737	0.376471	-0.0424192	9	0.000132726	13	0	7.235	-1.59696e-05
2	0	0	1	0	0	177.652	0.373243	0.373002	-0.039209	9	0.00012081	13	0	7.5845	-1.46251e-05
2	0	0	1	0	0	178.002	0.369747	0.369476	-0.0299066	9	0.000108594	13	0	7.934	-1.10498e-05
2	0	0	1	0	0	178.351	0.366252	0.365982	-0.0271119	9	9.61113e-05	13	0	8.2836	-9.92246e-06
2	0	0	1	0	0	178.701	0.362757	0.362498	-0.0371446	9	8.3373e-05	13	0	8.633	-1.34648e-05
2	0	0	1	0	0	179.05	0.359262	0.358988	-0.0455519	9	7.03889e-05	13	0	8.9826	-1.63526e-05
2	0	0	1	0	0	179.4	0.355766	0.355447	-0.0451193	9	5.71208e-05	13	0	9.3321	-1.60375e-05
2	0	0	1	0	0	179.749	0.352271	0.351955	-0.0354998	9	4.35485e-05	13	0	9.6816	-1.24943e-05
2	0	0	1	0	1	180.007	0.350324	0.350067	0.011661	10	3.45016e-05	13	0	0.000000000000000E+000	4.08212e-06
2	1	0	1	0	1	180.416	0.354419	0.354158	0.037702	10	4.67515e-05	13	0	0.4095	1.33524e-05
2	1	0	1	0	1	180.766	0.357913	0.357656	0.0431905	10	5.86957e-05	13	0	0.759	1.54474e-05
2	1	0	1	0	1	181.115	0.361408	0.361207	0.0372622	10	7.07493e-05	13	0	1.1085	1.34594e-05
2	1	0	1	0	1	181.465	0.364904	0.36469	0.0266716	10	8.27944e-05	13	0	1.458	9.72686e-06
2	1	0	1	0	1	181.814	0.368399	0.368188	0.0272439	10	9.48026e-05	13	0	1.8076	1.00309e-05
2	1	0	1	0	1	182.164	0.371894	0.371681	0.0376143	10	0.000106637	13	0	2.157	1.39805e-05
2	1	0	1	0	1	182.513	0.375389	0.375181	0.0420514	10	0.000118336	13	0	2.5066	1.57769e-05
2	1	0	1	0	1	182.863	0.378885	0.378663	0.0348681	10	0.000129877	13	0	2.8561	1.32033e-05
2	1	0	1	0	1	183.212	0.38238	0.382138	0.025086	10	0.00014132	13	0	3.2056	9.58631e-06
2	1	0	1	0	1	183.562	0.385874	0.385606	0.0251951	10	0.000152608	13	0	3.5551	9.71539e-06
2	1	0	1	0	1	183.911	0.38937	0.389111	0.0353205	10	0.000163739	13	0	3.9046	1.37436e-05
2	1	0	1	0	1	184.261	0.392865	0.392617	0.0394553	10	0.000174669	13	0	4.2542	1.54908e-05
2	1	0	1	0	1	184.61	0.396361	0.396108	0.0330107	10	0.000185464	13	0	4.6037	1.30758e-05
2	1	0	1	0	1	184.96	0.399855	0.39965	0.0228833	10	0.000196125	13	0	4.9532	9.1453e-06
2	1	0	1	0	1	185.309	0.40335	0.403127	0.0234875	10	0.000206673	13	0	5.3027	9.46844e-06
2	1	0	1	0	1	185.659	0.406846	0.406623	0.0334186	10	0.000217107	13	0	5.6522	1.35888e-05
2	1	0	1	0	1	186.008	0.410341	0.410163	0.0375988	10	0.000227333	13	0	6.0018	1.54217e-05
2	1	0	1	0	1	186.358	0.413836	0.413668	0.0292459	10	0.000237423	13	0	6.3512	1.20981e-05
2	1	0	1	0	1	186.707	0.417331	0.417114	0.0207544	10	0.000247433	13	0	6.7008	8.65695e-06
2	1	0	1	0	1	187.057	0.420827	0.420634	0.0228234	10	0.000257311	13	0	7.0503	9.60029e-06
2	1	0	1	0	1	187.406	0.424321	0.424039	0.0327937	10	0.000267053	13	0	7.3998	1.39058e-05
2	1	0	1	0	1	187.756	0.427816	0.427601	0.0356663	10	0.000276657	13	0	7.7493	1.52509e-05
2	1	0	1	0	1	188.105	0.431312	0.431127	0.0271531	10	0.000286169	13	0	8.0988	1.17064e-05
2	1	0	1	0	1	188.455	0.434807	0.434543	0.0186124	10	0.000295614	13	0	8.4484	8.08788e-06
2	1	0	1	0	1	188.804	0.438302	0.43812	0.0222677	10	0.000304961	13	0	8.7978	9.75592e-06
2	1	0	1	0	1	189.154	0.441797	0.441584	0.0315566	10	0.000314189	13	0	9.1474	1.39349e-05
2	1	0	1	0	1	189.504	0.445293	0.445071	0.0339411	10	0.000323313	13	0	9.4969	1.51062e-05
2	1	0	1	0	1	189.853	0.448787	0.44859	0.0245191	10	0.00033237	13	0	9.8464	1.0999e-05
2	0	0	1	0	1	190.194	0.447788	0.44759	-0.0221347	10	0.000331706	12	0	0.1299	-9.90727e-06
2	0	0	1	0	1	190.559	0.444144	0.443857	-0.0220339	10	0.000324216	13	0	0.4944	-9.7799e-06
2	0	0	1	0	1	190.908	0.440649	0.440403	-0.0148489	10	0.000316305	13	0	0.8438	-6.53949e-06
2	0	0	1	0	1	191.258	0.437154	0.436883	-0.019667	10	0.000308092	13	0	1.1934	-8.59218e-06
2	0	0	1	0	1	191.607	0.433658	0.433436	-0.0297463	10	0.000299704	13	0	1.5429	-1.28931e-05
2	0	0	1	0	1	191.957	0.430163	0.429883	-0.0322993	10	0.000291111	13	0	1.8924	-1.38849e-05
2	0	0	1	0	1	192.306	0.426669	0.426405	-0.0242293	10	0.000282333	13	0	2.2419	-1.03315e-05
2	0	0	1	0	1	192.656	0.423173	0.422889	-0.0177569	10	0.000273314	13	0	2.5914	-7.5092e-06
2	0	0	1	0	1	193.005	0.419678	0.419417	-0.0233383	10	0.000264139	13	0	2.941	-9.78846e-06
2	0	0	1	0	1	193.355	0.416182	0.415957	-0.0344872	10	0.000254802	13	0	3.2905	-1.43452e-05
2	0	0	1	0	1	193.704	0.412688	0.412453	-0.0330286	10	0.000245316	13	0	3.64	-1.36227e-05
2	0	0	1	0	1	194.054	0.409192	0.408923	-0.0235259	10	0.000235589	13	0	3.9895	-9.62031e-06
2	0	0	1	0	1	194.403	0.405697	0.405412	-0.021201	10	0.000225627	13	0	4.339	-8.59512e-06
2	0	0	1	0	1	194.753	0.402202	0.401964	-0.030666	10	0.000215477	13	0	4.6886	-1.23266e-05
2	0	0	1	0	1	195.102	0.398707	0.398437	-0.0385514	10	0.000205218	13	0	5.038	-1.53603e-05
2	0	0	1	0	1	195.452	0.395212	0.394933	-0.0329272	10	0.00019473	13	0	5.3876	-1.3004e-05
2	0	0	1	0	1	195.802	0.391716	0.391411	-0.0232474	10	0.000184005	13	0	5.7371	-9.09929e-06
2	0	0	1	0	1	196.151	0.388221	0.387907	-0.0261518	10	0.000173044	13	0	6.0866	-1.01445e-05
2	0	0	1	0	1	196.501	0.384727	0.384479	-0.0373345	10	0.000161894	13	0	6.4361	-1.43543e-05
2	0	0	1	0	1	196.85	0.381231	0.380944	-0.0414557	10	0.000150539	13	0	6.7856	-1.57923e-05
2	0	0	1	0	1	197.2	0.377736	0.377454	-0.0319529	10	0.000138937	13	0	7.1352	-1.20607e-05
2	0	0	1	0	1	197.549	0.374241	0.373988	-0.025412	10	0.00012704	13	0	7.4846	-9.50379e-06
2	0	0	1	0	1	197.899	0.370746	0.370495	-0.0321034	10	0.000114903	13	0	7.8342	-1.18941e-05
2	0	0	1	0	1	198.248	0.36725	0.366995	-0.0430121	10	0.000102553	13	0	8.1837	-1.57853e-05
2	0	0	1	0	1	198.598	0.363755	0.363516	-0.0434706	10	8.99566e-05	13	0	8.5332	-1.58023e-05
2	0	0	1	0	1	198.947	0.360261	0.359969	-0.033641	10	7.70432e-05	13	0	8.8827	-1.21097e-05
2	0	0	1	0	1	199.297	0.356765	0.356499	-0.0290995	10	6.38264e-05	13	0	9.2322	-1.03739e-05
2	0	0	1	0	1	199.646	0.35327	0.353025	-0.0396984	10	5.0324e-05	13	0	9.5818	-1.40145e-05
2	0	0	1	0	1	199.971	0.35	0.349819	-0.0350871	10	3.7779e-05	13	0	9.9063	-1.22741e-05