File: ACS_Catal_2026/Figures_Na_K/main_figures/data/EC/20251112_2-148_alpha_reproducibility/20251112_2-148_004_Na_first_2_Na1_03_CVA_C02.mpt
EC-Lab ASCII FILE
Nb header lines : 66

Cyclic Voltammetry Advanced

Run on channel : 2 (SN 69290)
User :
CE vs. WE compliance from -10 V to 10 V
Electrode connection : standard
Potential control : Ewe
Ewe ctrl range : min = -1.00 V, max = 1.00 V
Safety Limits :
	Do not start on E overload
Acquisition started on : 11/12/2025 15:49:31.265
Loaded Setting File :  C:\Users\User\Documents\EC-Lab\Data\Yatsuzuka\20251112_2-148_alpha_reproducibility\20251112_2-148_002_alpha_reproducibility_2_K1.mps
Saved on :
	File : 20251112_2-148_004_Na_first_2_Na1_03_CVA_C02.mpr
	Directory : C:\Users\User\Documents\EC-Lab\Data\Yatsuzuka\20251112_2-148_alpha_reproducibility\
	Host : 192.109.209.127
Device : SP-150e (SN .003883)
Address : 192.109.209.128
EC-Lab for windows v11.52 (software)
Internet server v11.52 (firmware)
Command interpretor v11.50 (firmware)
Electrode material :
Initial state :
Electrolyte :
Comments :
Electrode surface area : 0.001 cm2
Characteristic mass : 0.001 g
Equivalent Weight : 0.000 g/eq.
Density : 0.000 g/cm3
Volume (V) : 0.001 cm3
Cycle Definition : Charge/Discharge alternance
Ei (V)              0.450
vs.                 Ref
ti (h:m:s)          0:00:10.0000
dti (s)             0.0000
dE/dt               5.000
dE/dt unit          mV/s
E1 (V)              0.700
vs.                 Ref
t1 (h:m:s)          0:00:0.0000
dt1 (s)             0.1000
Step percent        50
N                   10
E range min (V)     -1.000
E range max (V)     1.000
I Range             10 mA
I Range min         Unset
I Range max         Unset
I Range init        Unset
Bandwidth           5
E2 (V)              0.450
vs.                 Ref
t2 (h:m:s)          0:00:0.0000
dt2 (s)             0.1000
nc cycles           14
nr                  1
Reverse Scan        0
Ef (V)              0.000
vs.                 Eoc
tf (h:m:s)          0:00:0.0000
dtf (s)             0.1000

mode	ox/red	error	control changes	Ns changes	counter inc.	time/s	control/V	Ewe/V	<I>/mA	cycle number	(Q-Qo)/C	I Range	Ns	step time/s	P/W
2	0	0	1	0	0	231.863	0.450021	0.449458	-0.00447789	1	0.0000000E+000	11	0	0.000000000000000E+000	-2.01262e-06
2	1	0	1	0	0	234.415	0.462781	0.462289	0.0235394	1	5.16141e-05	11	0	2.4971	1.0882e-05
2	1	0	1	0	0	237.012	0.475765	0.475302	0.0201937	1	0.000107847	11	0	5.094	9.5981e-06
2	1	0	1	0	0	239.609	0.488749	0.488272	0.0265104	1	0.000169188	11	0	7.6909	1.29443e-05
2	1	0	0	0	0	242.206	0.501734	0.501274	0.0269504	1	0.000236382	11	0	10.2878	1.35095e-05
2	1	0	1	0	0	244.803	0.514718	0.514236	0.0288178	1	0.000311806	11	0	12.8847	1.48192e-05
2	1	0	1	0	0	247.4	0.527704	0.52725	0.0320752	1	0.000396497	11	0	15.4817	1.69117e-05
2	1	0	0	0	0	249.997	0.540688	0.540243	0.0411285	1	0.000492202	11	0	18.0786	2.22194e-05
2	1	0	1	0	0	252.594	0.553672	0.553206	0.0436306	1	0.000601142	11	0	20.6755	2.41368e-05
2	1	0	1	0	0	255.191	0.566657	0.566188	0.0506386	1	0.000726868	11	0	23.2724	2.8671e-05
2	1	0	0	0	0	257.788	0.579642	0.579234	0.0625599	1	0.000872956	11	0	25.8694	3.62368e-05
2	1	0	1	0	0	260.385	0.592626	0.592186	0.0716361	1	0.00104661	11	0	28.4663	4.24219e-05
2	1	0	1	0	0	262.982	0.605611	0.605163	0.0921595	1	0.00125804	11	0	31.0632	5.57716e-05
2	1	0	1	0	0	265.578	0.618595	0.618145	0.112885	1	0.00152343	11	0	33.6601	6.97791e-05
2	1	0	1	0	0	268.175	0.631581	0.631163	0.148215	1	0.00186605	11	0	36.2571	9.35482e-05
2	1	0	1	0	0	270.772	0.644565	0.644124	0.200056	1	0.0023207	11	0	38.854	0.000128861
2	1	0	1	0	0	273.369	0.657549	0.657093	0.27733	1	0.00294054	11	0	41.4509	0.000182232
2	1	0	0	0	0	275.966	0.670534	0.670115	0.392954	1	0.00380649	11	0	44.0478	0.000263324
2	1	0	1	0	0	278.563	0.683518	0.683093	0.559508	1	0.00503418	11	0	46.6447	0.000382196
2	1	0	1	0	0	281.16	0.696504	0.69607	0.787461	1	0.00677299	11	0	49.2417	0.000548128
2	1	0	1	0	0	283.508	0.691759	0.691285	0.613107	1	0.0085407	11	0	51.5892	0.000423832
2	1	0	1	0	0	286.104	0.678774	0.678305	0.377097	1	0.00980412	11	0	54.1861	0.000255787
2	1	0	1	0	0	288.701	0.665789	0.665313	0.230895	1	0.0105834	11	0	56.7831	0.000153617
2	1	0	1	0	0	291.298	0.652805	0.652354	0.140429	1	0.0110597	11	0	59.38	9.16097e-05
2	1	0	1	0	0	293.895	0.63982	0.639409	0.0846173	1	0.0113468	11	0	61.9769	5.41051e-05
2	1	0	0	0	0	296.492	0.626836	0.62637	0.0499601	1	0.0115178	11	0	64.5738	3.12935e-05
2	1	0	1	0	0	299.089	0.613852	0.613441	0.0284134	1	0.0116165	11	0	67.1707	1.74299e-05
2	1	0	1	0	0	301.686	0.600866	0.600425	0.0154688	1	0.0116703	11	0	69.7677	9.28787e-06
2	1	0	0	0	0	304.283	0.587882	0.587418	0.00690055	1	0.0116967	11	0	72.3646	4.05351e-06
2	0	0	1	0	0	306.88	0.574897	0.574447	0.000466444	1	0.0117061	11	0	0.000000000000000E+000	2.67948e-07
2	1	0	1	0	0	309.477	0.561913	0.561473	-0.00227833	1	0.011705	11	0	0.1997	-1.27922e-06
2	1	0	1	0	0	312.074	0.548929	0.548489	-0.00348724	1	0.0116965	11	0	2.7966	-1.91271e-06
2	1	0	1	0	0	314.671	0.535943	0.535493	-0.00405395	1	0.0116831	11	0	5.3936	-2.17086e-06
2	1	0	1	0	0	317.268	0.522959	0.522477	-0.00442557	1	0.0116662	11	0	7.9905	-2.31226e-06
2	0	0	1	0	0	319.864	0.509974	0.509494	-0.00741267	1	0.0116461	11	0	10.5874	-3.77671e-06
2	1	0	0	0	0	322.461	0.49699	0.496495	-0.00694301	1	0.0116234	11	0	13.1843	-3.44717e-06
2	1	0	1	0	0	325.058	0.484005	0.483525	-0.00899451	1	0.0115984	11	0	15.7813	-4.34907e-06
2	0	0	1	0	0	327.655	0.47102	0.470522	-0.0127986	1	0.0115711	11	0	18.3782	-6.02201e-06
2	0	0	0	0	0	330.252	0.458036	0.457559	-0.0133298	1	0.0115418	11	0	20.9751	-6.09919e-06
2	1	0	1	0	1	332.619	0.453841	0.453349	0.012326	2	0.0115332	11	0	0.6992	5.58798e-06
2	1	0	1	0	1	335.215	0.466825	0.466367	0.0139599	2	0.0115743	11	0	3.2961	6.51046e-06
2	0	0	0	0	1	337.812	0.47981	0.47935	0.0135638	2	0.0116165	11	0	5.893	6.50183e-06
2	0	0	1	0	1	340.409	0.492794	0.492342	0.0149694	2	0.011659	11	0	8.4899	7.37008e-06
2	1	0	1	0	1	343.006	0.50578	0.505313	0.0178255	2	0.0117016	11	0	11.0869	9.00744e-06
2	1	0	0	0	1	345.603	0.518764	0.518286	0.0190792	2	0.0117446	11	0	13.6838	9.88849e-06
2	1	0	1	0	1	348.2	0.531748	0.531296	0.0194263	2	0.0117883	11	0	16.2807	1.03211e-05
2	1	0	1	0	1	350.797	0.544733	0.544272	0.0199571	2	0.0118334	11	0	18.8776	1.08621e-05
2	1	0	1	0	1	353.394	0.557717	0.557275	0.020411	2	0.0118807	11	0	21.4745	1.13745e-05
2	1	0	1	0	1	355.991	0.570703	0.570233	0.0198831	2	0.0119321	11	0	24.0715	1.1338e-05
2	1	0	1	0	1	358.588	0.583687	0.583244	0.0258392	2	0.0119911	11	0	26.6684	1.50705e-05
2	1	0	1	0	1	361.185	0.596671	0.596234	0.0330268	2	0.0120626	11	0	29.2653	1.96917e-05
2	1	0	0	0	1	363.782	0.609656	0.609168	0.0430047	2	0.0121555	11	0	31.8622	2.61971e-05
2	1	0	1	0	1	366.379	0.622641	0.622156	0.0585904	2	0.0122841	11	0	34.4592	3.64524e-05
2	1	0	1	0	1	368.975	0.635626	0.635183	0.0864519	2	0.0124722	11	0	37.0561	5.49128e-05
2	1	0	0	0	1	371.572	0.64861	0.648165	0.132807	2	0.0127575	11	0	39.653	8.60809e-05
2	1	0	1	0	1	374.169	0.661594	0.661198	0.208953	2	0.0131996	11	0	42.2499	0.00013816
2	1	0	1	0	1	376.766	0.67458	0.674125	0.327177	2	0.0138888	11	0	44.8469	0.000220558
2	1	0	0	0	1	379.363	0.687564	0.687128	0.502705	2	0.0149541	11	0	47.4438	0.000345422
2	1	0	1	0	1	381.845	0.699974	0.699556	0.729784	2	0.0164761	11	0	49.9258	0.000510525
2	1	0	1	0	1	384.298	0.687763	0.687308	0.450456	2	0.0178837	11	0	52.3783	0.000309602
2	1	0	1	0	1	386.895	0.674779	0.674323	0.274554	2	0.0188047	11	0	54.9752	0.000185138
2	1	0	1	0	1	389.491	0.661794	0.661372	0.164855	2	0.0193668	11	0	57.5721	0.000109031
2	1	0	0	0	1	392.088	0.64881	0.648352	0.0956472	2	0.0197026	11	0	60.169	6.20131e-05
2	1	0	1	0	1	394.685	0.635826	0.635406	0.0537517	2	0.0198976	11	0	62.7659	3.41542e-05
2	1	0	1	0	1	397.282	0.62284	0.622374	0.0292536	2	0.0200065	11	0	65.3629	1.82067e-05
2	1	0	0	0	1	399.879	0.609856	0.609401	0.0158303	2	0.0200635	11	0	67.9598	9.64702e-06
2	1	0	1	0	1	402.476	0.596871	0.5964	0.00773135	2	0.020089	11	0	70.5567	4.61097e-06
2	1	0	1	0	1	405.073	0.583887	0.583431	0.0005165	2	0.0200948	11	0	0.000000000000000E+000	3.01342e-07
2	1	0	0	0	1	407.67	0.570902	0.570427	-0.00490622	2	0.0200887	11	0	1.4983	-2.79864e-06
2	0	0	1	0	1	410.267	0.557917	0.557516	-0.00836435	2	0.0200753	11	0	4.0952	-4.66325e-06
2	0	0	1	0	1	412.864	0.544933	0.544487	-0.007633	2	0.0200573	11	0	6.6921	-4.15607e-06
2	0	0	1	0	1	415.461	0.531948	0.531537	-0.00773451	2	0.020036	11	0	9.289	-4.11118e-06
2	1	0	0	0	1	418.058	0.518964	0.518491	-0.00724779	2	0.0200124	11	0	11.8859	-3.75791e-06
2	1	0	1	0	1	420.655	0.505979	0.505556	-0.00774404	2	0.019987	11	0	14.4829	-3.91504e-06
2	0	0	1	0	1	423.251	0.492994	0.492508	-0.00833412	2	0.0199602	11	0	17.0798	-4.10462e-06
2	1	0	0	0	1	425.848	0.48001	0.479566	-0.00873705	2	0.0199316	11	0	19.6767	-4.18999e-06
2	1	0	1	0	1	428.445	0.467025	0.466578	-0.00907134	2	0.0199015	11	0	22.2736	-4.23248e-06
2	1	0	1	0	1	431.042	0.45404	0.453544	-0.00989527	2	0.0198698	11	0	24.8706	-4.48794e-06
2	1	0	0	0	0	433.409	0.457836	0.457383	0.0165518	3	0.0198809	11	0	1.4982	7.57053e-06
2	1	0	1	0	0	436.006	0.470821	0.470328	0.0165946	3	0.0199193	11	0	4.0952	7.8049e-06
2	0	0	1	0	0	438.602	0.483806	0.483359	0.012956	3	0.0199582	11	0	6.6921	6.26238e-06
2	0	0	0	0	0	441.199	0.49679	0.496339	0.0124708	3	0.0199972	11	0	9.289	6.18976e-06
2	1	0	1	0	0	443.796	0.509774	0.509337	0.017366	3	0.0200366	11	0	11.8859	8.84512e-06
2	1	0	1	0	0	446.393	0.522759	0.522348	0.0127376	3	0.0200757	11	0	14.4828	6.65343e-06
2	1	0	0	0	0	448.99	0.535744	0.535235	0.017551	3	0.0201155	11	0	17.0798	9.39392e-06
2	1	0	1	0	0	451.587	0.548729	0.54828	0.0142254	3	0.0201566	11	0	19.6767	7.79952e-06
2	1	0	1	0	0	454.184	0.561713	0.561218	0.0177977	3	0.0201999	11	0	22.2736	9.98841e-06
2	1	0	1	0	0	456.781	0.574697	0.574243	0.0169638	3	0.0202476	11	0	24.8705	9.74132e-06
2	1	0	1	0	0	459.378	0.587683	0.587193	0.0248441	3	0.0203025	11	0	27.4675	1.45883e-05
2	1	0	1	0	0	461.975	0.600667	0.600156	0.0313297	3	0.02037	11	0	30.0644	1.88027e-05
2	1	0	1	0	0	464.572	0.613651	0.613228	0.0402249	3	0.0204591	11	0	32.6613	2.4667e-05
2	1	0	0	0	0	467.169	0.626636	0.626228	0.0555531	3	0.0205845	11	0	35.2582	3.4789e-05
2	1	0	1	0	0	469.765	0.63962	0.639157	0.0877738	3	0.0207705	11	0	37.8551	5.61012e-05
2	1	0	1	0	0	472.362	0.652606	0.652196	0.138361	3	0.0210569	11	0	40.4521	9.02384e-05
2	1	0	0	0	0	474.959	0.66559	0.665134	0.217389	3	0.0215064	11	0	43.049	0.000144593
2	1	0	1	0	0	477.556	0.678574	0.678155	0.338522	3	0.0222146	11	0	45.6459	0.000229571
2	1	0	1	0	0	480.153	0.691559	0.691114	0.520337	3	0.0233176	11	0	48.2428	0.000359612
2	1	0	1	0	0	482.491	0.696753	0.696267	0.588599	3	0.0247342	11	0	50.5804	0.000409822
2	1	0	1	0	0	485.088	0.683768	0.683301	0.354915	3	0.02593	11	0	53.1773	0.000242514
2	1	0	0	0	0	487.685	0.670784	0.670365	0.212575	3	0.0266536	11	0	55.7742	0.000142503
2	1	0	1	0	0	490.281	0.6578	0.657372	0.126153	3	0.0270869	11	0	58.3711	8.29293e-05
2	1	0	1	0	0	492.878	0.644814	0.644348	0.0753216	3	0.0273411	11	0	60.9681	4.85333e-05
2	1	0	0	0	0	495.475	0.63183	0.631393	0.0414053	3	0.0274874	11	0	63.565	2.6143e-05
2	1	0	1	0	0	498.072	0.618846	0.618393	0.019541	3	0.0275662	11	0	66.1619	1.2084e-05
2	1	0	1	0	0	500.669	0.605861	0.605434	0.011236	3	0.0276042	11	0	68.7588	6.80264e-06
2	1	0	0	0	0	503.266	0.592876	0.592406	0.00100195	3	0.0276175	11	0	71.3558	5.93562e-07
2	0	0	1	0	0	505.863	0.579891	0.579447	-0.00406829	3	0.0276154	11	0	0.5993	-2.35736e-06
2	1	0	1	0	0	508.46	0.566907	0.566452	-0.00327134	3	0.0276044	11	0	3.1962	-1.85306e-06
2	0	0	1	0	0	511.057	0.553923	0.553443	-0.00791198	3	0.0275874	11	0	5.7931	-4.37883e-06
2	0	0	1	0	0	513.654	0.540937	0.540499	-0.00934282	3	0.0275663	11	0	8.3901	-5.04978e-06
2	1	0	1	0	0	516.251	0.527953	0.527507	-0.00730025	3	0.0275431	11	0	10.987	-3.85093e-06
2	1	0	1	0	0	518.848	0.514968	0.514486	-0.00792965	3	0.027518	11	0	13.5839	-4.07969e-06
2	0	0	0	0	0	521.445	0.501984	0.501494	-0.011518	3	0.027491	11	0	16.1808	-5.77621e-06
2	0	0	1	0	0	524.041	0.489	0.488519	-0.012728	3	0.0274624	11	0	18.7777	-6.21787e-06
2	1	0	1	0	0	526.638	0.476014	0.475557	-0.00903061	3	0.0274331	11	0	21.3747	-4.29457e-06
2	0	0	0	0	0	529.235	0.46303	0.462542	-0.0120102	3	0.0274023	11	0	23.9716	-5.55521e-06
2	0	0	1	0	0	531.807	0.45017	0.449735	-0.0208113	3	0.02737	11	0	26.5436	-9.35957e-06
2	0	0	1	0	1	534.199	0.461832	0.461306	0.0119645	4	0.0274014	11	0	2.3523	5.51932e-06
2	0	0	0	0	1	536.796	0.474816	0.474358	0.0124791	4	0.027439	11	0	4.9492	5.91954e-06
2	1	0	1	0	1	539.392	0.4878	0.487323	0.0146837	4	0.0274768	11	0	7.5461	7.15569e-06
2	1	0	1	0	1	541.989	0.500786	0.50026	0.0143282	4	0.0275147	11	0	10.1431	7.16781e-06
2	0	0	0	0	1	544.586	0.51377	0.513318	0.012168	4	0.0275522	11	0	12.74	6.24603e-06
2	0	0	1	0	1	547.183	0.526755	0.526288	0.0126704	4	0.0275902	11	0	15.3369	6.66828e-06
2	1	0	1	0	1	549.78	0.539739	0.539319	0.0141181	4	0.0276289	11	0	17.9338	7.61413e-06
2	1	0	1	0	1	552.377	0.552723	0.552256	0.0136282	4	0.0276686	11	0	20.5307	7.52628e-06
2	0	0	1	0	1	554.974	0.565709	0.565257	0.014803	4	0.0277108	11	0	23.1277	8.36752e-06
2	1	0	1	0	1	557.571	0.578693	0.578217	0.0173287	4	0.0277575	11	0	25.7246	1.00198e-05
2	1	0	1	0	1	560.168	0.591677	0.591231	0.0223498	4	0.0278122	11	0	28.3215	1.32139e-05
2	1	0	0	0	1	562.765	0.604662	0.604201	0.0317069	4	0.0278805	11	0	30.9184	1.91573e-05
2	1	0	1	0	1	565.362	0.617647	0.617214	0.0412919	4	0.027972	11	0	33.5154	2.54859e-05
2	1	0	1	0	1	567.959	0.630632	0.630215	0.0589293	4	0.0281026	11	0	36.1123	3.71381e-05
2	1	0	0	0	1	570.556	0.643616	0.64317	0.0907351	4	0.028299	11	0	38.7092	5.83581e-05
2	1	0	1	0	1	573.152	0.6566	0.656149	0.147304	4	0.028604	11	0	41.3061	9.66534e-05
2	1	0	1	0	1	575.749	0.669585	0.669132	0.230688	4	0.0290861	11	0	43.903	0.000154361
2	1	0	0	0	1	578.346	0.68257	0.682135	0.363942	4	0.0298487	11	0	46.5	0.000248258
2	1	0	1	0	1	580.943	0.695555	0.695134	0.564098	4	0.0310385	11	0	49.0969	0.000392124
2	1	0	0	0	1	583.281	0.692758	0.692303	0.479943	4	0.032376	11	0	51.4344	0.000332266
2	1	0	1	0	1	585.878	0.679773	0.679287	0.286019	4	0.033349	11	0	54.0314	0.000194289
2	1	0	1	0	1	588.475	0.666788	0.666337	0.17321	4	0.0339339	11	0	56.6283	0.000115417
2	1	0	0	0	1	591.072	0.653804	0.653344	0.103645	4	0.034283	11	0	59.2252	6.7716e-05
2	1	0	1	0	1	593.668	0.64082	0.640419	0.0557075	4	0.0344847	11	0	61.8221	3.56761e-05
2	1	0	1	0	1	596.265	0.627834	0.62738	0.032935	4	0.0345965	11	0	64.4191	2.06628e-05
2	1	0	0	0	1	598.862	0.61485	0.61443	0.0136247	4	0.0346542	11	0	67.016	8.37142e-06
2	1	0	1	0	1	601.459	0.601865	0.601402	0.00641547	4	0.0346794	11	0	69.6129	3.85828e-06
2	0	0	1	0	1	604.056	0.588881	0.588416	-0.00212204	4	0.0346847	11	0	0.000000000000000E+000	-1.24864e-06
2	1	0	1	0	1	606.653	0.575897	0.575423	-0.00246701	4	0.0346778	11	0	1.9976	-1.41957e-06
2	0	0	1	0	1	609.25	0.562911	0.562496	-0.00507815	4	0.0346634	11	0	4.5946	-2.85644e-06
2	0	0	1	0	1	611.847	0.549927	0.54948	-0.00762741	4	0.0346448	11	0	7.1915	-4.19111e-06
2	0	0	1	0	1	614.444	0.536942	0.536484	-0.00806655	4	0.0346224	11	0	9.7884	-4.32757e-06
2	0	0	0	0	1	617.041	0.523958	0.52348	-0.0081809	4	0.034598	11	0	12.3853	-4.28254e-06
2	0	0	1	0	1	619.638	0.510974	0.510544	-0.0119174	4	0.034572	11	0	14.9822	-6.08434e-06
2	0	0	1	0	1	622.235	0.497988	0.497525	-0.0123704	4	0.034545	11	0	17.5792	-6.15458e-06
2	1	0	0	0	1	624.832	0.485004	0.48454	-0.0102816	4	0.0345164	11	0	20.1761	-4.98187e-06
2	1	0	1	0	1	627.428	0.472019	0.471536	-0.00945374	4	0.0344863	11	0	22.773	-4.45778e-06
2	0	0	1	0	1	630.025	0.459035	0.458569	-0.0141864	4	0.034455	11	0	25.3699	-6.50546e-06
2	1	0	0	0	0	632.392	0.452842	0.452412	0.0148815	5	0.0344392	11	0	0.5544	6.73256e-06
2	0	0	1	0	0	634.989	0.465826	0.465372	0.0116321	5	0.0344751	11	0	3.1513	5.41326e-06
2	1	0	1	0	0	637.586	0.478812	0.478333	0.0146305	5	0.034512	11	0	5.7483	6.99826e-06
2	1	0	0	0	0	640.183	0.491796	0.491337	0.0148381	5	0.0345493	11	0	8.3452	7.2905e-06
2	1	0	1	0	0	642.779	0.504781	0.50432	0.0161453	5	0.0345864	11	0	10.9421	8.14238e-06
2	1	0	1	0	0	645.376	0.517765	0.517291	0.012222	5	0.0346234	11	0	13.539	6.32235e-06
2	1	0	1	0	0	647.973	0.530749	0.530265	0.0147277	5	0.0346609	11	0	16.1359	7.80957e-06
2	1	0	1	0	0	650.57	0.543735	0.543276	0.014051	5	0.0346986	11	0	18.7329	7.63359e-06
2	1	0	1	0	0	653.167	0.556719	0.556281	0.0148153	5	0.0347384	11	0	21.3298	8.24145e-06
2	1	0	1	0	0	655.764	0.569703	0.56929	0.0178113	5	0.0347803	11	0	23.9267	1.01398e-05
2	1	0	0	0	0	658.361	0.582688	0.582232	0.0214583	5	0.0348274	11	0	26.5236	1.24937e-05
2	1	0	1	0	0	660.958	0.595673	0.595212	0.0228738	5	0.0348829	11	0	29.1206	1.36147e-05
2	1	0	1	0	0	663.555	0.608658	0.608203	0.0319721	5	0.0349542	11	0	31.7175	1.94455e-05
2	1	0	0	0	0	666.152	0.621642	0.621211	0.0423907	5	0.0350506	11	0	34.3144	2.63336e-05
2	1	0	1	0	0	668.749	0.634626	0.634164	0.067062	5	0.0351904	11	0	36.9113	4.25284e-05
2	1	0	1	0	0	671.346	0.647611	0.647167	0.100529	5	0.0354032	11	0	39.5082	6.5059e-05
2	1	0	0	0	0	673.943	0.660596	0.660156	0.158102	5	0.0357364	11	0	42.1052	0.000104372
2	1	0	1	0	0	676.539	0.673581	0.673093	0.25611	5	0.0362655	11	0	44.7021	0.000172386
2	1	0	1	0	0	679.136	0.686565	0.686098	0.402322	5	0.0371044	11	0	47.299	0.000276032
2	1	0	1	0	0	681.733	0.699549	0.699083	0.615835	5	0.0384109	11	0	49.8959	0.000430519
2	1	0	1	0	0	684.071	0.688762	0.68827	0.393556	5	0.0395793	11	0	52.2335	0.000270873
2	1	0	0	0	0	686.668	0.675778	0.675354	0.237074	5	0.0403808	11	0	54.8304	0.000160109
2	1	0	1	0	0	689.265	0.662794	0.662343	0.138904	5	0.0408573	11	0	57.4273	9.20022e-05
2	1	0	1	0	0	691.862	0.649808	0.649369	0.0815471	5	0.0411365	11	0	60.0243	5.29542e-05
2	1	0	0	0	0	694.459	0.636824	0.636344	0.0433222	5	0.0412948	11	0	62.6212	2.75679e-05
2	1	0	1	0	0	697.055	0.623839	0.623428	0.0254324	5	0.0413813	11	0	65.2181	1.58553e-05
2	1	0	1	0	0	699.652	0.610855	0.610388	0.00847435	5	0.0414235	11	0	67.815	5.17265e-06
2	1	0	0	0	0	702.249	0.59787	0.597402	0.00453764	5	0.0414392	11	0	70.412	2.71079e-06
2	0	0	1	0	0	704.846	0.584885	0.584435	-0.00421785	5	0.0414387	11	0	0.4994	-2.46506e-06
2	1	0	1	0	0	707.443	0.571901	0.571421	-0.00342307	5	0.0414282	11	0	3.0963	-1.95601e-06
2	0	0	1	0	0	710.04	0.558916	0.558458	-0.00906568	5	0.0414114	11	0	5.6932	-5.0628e-06
2	0	0	0	0	0	712.637	0.545932	0.54546	-0.0104941	5	0.0413907	11	0	8.2901	-5.72414e-06
2	0	0	1	0	0	715.234	0.532947	0.53252	-0.0113138	5	0.0413676	11	0	10.8871	-6.02482e-06
2	0	0	1	0	0	717.831	0.519962	0.519539	-0.0116669	5	0.0413426	11	0	13.484	-6.0614e-06
2	0	0	0	0	0	720.428	0.506978	0.506539	-0.0115306	5	0.0413159	11	0	16.0809	-5.84072e-06
2	0	0	1	0	0	723.025	0.493994	0.493491	-0.0118109	5	0.041288	11	0	18.6778	-5.82856e-06
2	0	0	1	0	0	725.622	0.481009	0.480518	-0.0103705	5	0.0412588	11	0	21.2747	-4.98323e-06
2	0	0	0	0	0	728.219	0.468024	0.467612	-0.0131581	5	0.0412286	11	0	23.8717	-6.15288e-06
2	0	0	1	0	0	730.815	0.455039	0.454582	-0.0107262	5	0.0411965	11	0	26.4686	-4.87594e-06
2	1	0	1	0	1	733.182	0.456838	0.456326	0.0124176	6	0.041201	11	0	1.2985	5.66649e-06
2	1	0	0	0	1	735.779	0.469822	0.469403	0.0159029	6	0.041237	11	0	3.8954	7.46487e-06
2	1	0	1	0	1	738.376	0.482806	0.482391	0.0137445	6	0.0412738	11	0	6.4923	6.63023e-06
2	0	0	1	0	1	740.973	0.495791	0.495308	0.0116555	6	0.0413099	11	0	9.0892	5.77305e-06
2	1	0	0	0	1	743.57	0.508776	0.508345	0.0159845	6	0.0413464	11	0	11.6862	8.12564e-06
2	1	0	1	0	1	746.166	0.521761	0.521305	0.0118308	6	0.0413828	11	0	14.2831	6.16747e-06
2	1	0	1	0	1	748.763	0.534745	0.534298	0.0163959	6	0.0414198	11	0	16.88	8.7603e-06
2	1	0	1	0	1	751.36	0.547729	0.54732	0.0127023	6	0.0414572	11	0	19.4769	6.95224e-06
2	1	0	1	0	1	753.957	0.560715	0.560246	0.0147353	6	0.0414963	11	0	22.0739	8.2554e-06
2	1	0	1	0	1	756.554	0.573699	0.573251	0.0177718	6	0.0415387	11	0	24.6708	1.01877e-05
2	1	0	1	0	1	759.151	0.586684	0.586237	0.0202387	6	0.0415867	11	0	27.2677	1.18647e-05
2	1	0	0	0	1	761.748	0.599668	0.599245	0.0267089	6	0.0416444	11	0	29.8646	1.60052e-05
2	1	0	1	0	1	764.345	0.612652	0.612168	0.0350304	6	0.0417188	11	0	32.4615	2.14445e-05
2	1	0	1	0	1	766.942	0.625638	0.6252	0.0478047	6	0.0418222	11	0	35.0585	2.98875e-05
2	1	0	0	0	1	769.539	0.638622	0.638193	0.0706052	6	0.0419737	11	0	37.6554	4.50598e-05
2	1	0	1	0	1	772.136	0.651606	0.651149	0.112881	6	0.0422066	11	0	40.2523	7.35024e-05
2	1	0	1	0	1	774.733	0.664591	0.664146	0.177247	6	0.0425739	11	0	42.8492	0.000117718
2	1	0	1	0	1	777.329	0.677575	0.677144	0.279842	6	0.0431595	11	0	45.4461	0.000189493
2	1	0	1	0	1	779.926	0.690561	0.690092	0.443635	6	0.044088	11	0	48.0431	0.000306149
2	1	0	0	0	1	782.264	0.697752	0.697293	0.539494	6	0.0453258	11	0	50.3806	0.000376185
2	1	0	1	0	1	784.861	0.684768	0.684333	0.326659	6	0.0464237	11	0	52.9775	0.000223544
2	1	0	1	0	1	787.458	0.671782	0.67129	0.193736	6	0.0470851	11	0	55.5745	0.000130053
2	1	0	0	0	1	790.055	0.658798	0.658357	0.116282	6	0.0474798	11	0	58.1714	7.65549e-05
2	1	0	1	0	1	792.652	0.645813	0.645382	0.0648005	6	0.0477083	11	0	60.7683	4.18211e-05
2	1	0	1	0	1	795.249	0.632829	0.632427	0.0375174	6	0.0478365	11	0	63.3652	2.37271e-05
2	1	0	0	0	1	797.846	0.619844	0.619377	0.0157693	6	0.0479038	11	0	65.9622	9.76717e-06
2	1	0	1	0	1	800.442	0.606859	0.606424	0.00800118	6	0.0479347	11	0	68.5591	4.85211e-06
2	0	0	1	0	1	803.039	0.593875	0.593381	-0.00099643	6	0.0479427	11	0	0.000000000000000E+000	-5.91263e-07
2	1	0	1	0	1	805.636	0.58089	0.580424	-0.00202836	6	0.0479375	11	0	1.4982	-1.17731e-06
2	1	0	0	0	1	808.233	0.567906	0.567418	-0.00545856	6	0.0479244	11	0	4.0951	-3.09728e-06
2	0	0	1	0	1	810.83	0.554921	0.554453	-0.00693028	6	0.0479059	11	0	6.6921	-3.84251e-06
2	1	0	1	0	1	813.427	0.541936	0.541498	-0.00722057	6	0.0478842	11	0	9.289	-3.90993e-06
2	0	0	0	0	1	816.024	0.528952	0.528487	-0.0117159	6	0.04786	11	0	11.8859	-6.19172e-06
2	0	0	1	0	1	818.621	0.515968	0.515489	-0.00945091	6	0.0478346	11	0	14.4828	-4.87184e-06
2	1	0	1	0	1	821.218	0.502982	0.502538	-0.00945152	6	0.0478076	11	0	17.0798	-4.74975e-06
2	0	0	0	0	1	823.815	0.489998	0.489536	-0.0111217	6	0.0477792	11	0	19.6767	-5.44446e-06
2	0	0	1	0	1	826.412	0.477013	0.476528	-0.0111788	6	0.0477496	11	0	22.2736	-5.327e-06
2	0	0	1	0	1	829.009	0.464029	0.46359	-0.0102426	6	0.0477187	11	0	24.8705	-4.74838e-06
2	1	0	1	0	1	831.605	0.451045	0.450587	-0.0115489	6	0.0476868	11	0	27.4674	-5.20376e-06
2	1	0	1	0	0	833.972	0.460832	0.460386	0.0129147	7	0.0477116	11	0	2.0975	5.94575e-06
2	1	0	1	0	0	836.569	0.473818	0.473292	0.0117681	7	0.0477475	11	0	4.6945	5.56974e-06
2	1	0	0	0	0	839.166	0.486802	0.486359	0.0156681	7	0.0477837	11	0	7.2914	7.62032e-06
2	1	0	1	0	0	841.763	0.499787	0.499311	0.0136065	7	0.0478197	11	0	9.8883	6.79387e-06
2	1	0	1	0	0	844.36	0.512771	0.512259	0.0149114	7	0.0478559	11	0	12.4852	7.63852e-06
2	0	0	1	0	0	846.956	0.525755	0.525255	0.0117217	7	0.0478917	11	0	15.0821	6.15687e-06
2	1	0	1	0	0	849.553	0.538741	0.538309	0.0155323	7	0.0479283	11	0	17.6791	8.36118e-06
2	1	0	1	0	0	852.15	0.551725	0.551289	0.0165851	7	0.0479659	11	0	20.276	9.14318e-06
2	0	0	1	0	0	854.747	0.564709	0.564261	0.0133957	7	0.048005	11	0	22.8729	7.55866e-06
2	1	0	0	0	0	857.344	0.577694	0.577173	0.0196675	7	0.048048	11	0	25.4698	1.13516e-05
2	1	0	1	0	0	859.941	0.590678	0.590159	0.0186906	7	0.0480972	11	0	28.0667	1.10304e-05
2	1	0	1	0	0	862.538	0.603664	0.603228	0.0281524	7	0.048158	11	0	30.6637	1.69823e-05
2	1	0	0	0	0	865.135	0.616648	0.616202	0.0352014	7	0.0482374	11	0	33.2606	2.16912e-05
2	1	0	1	0	0	867.732	0.629632	0.629181	0.0502379	7	0.0483496	11	0	35.8575	3.16087e-05
2	1	0	1	0	0	870.329	0.642617	0.64215	0.0802094	7	0.0485166	11	0	38.4544	5.15065e-05
2	1	0	1	0	0	872.926	0.655601	0.655168	0.122471	7	0.0487758	11	0	41.0513	8.02391e-05
2	1	0	1	0	0	875.523	0.668587	0.668147	0.199417	7	0.0491865	11	0	43.6483	0.00013324
2	1	0	1	0	0	878.12	0.681571	0.681152	0.314288	7	0.0498408	11	0	46.2452	0.000214078
2	1	0	1	0	0	880.716	0.694555	0.694106	0.495386	7	0.0508768	11	0	48.8421	0.00034385
2	1	0	1	0	0	883.054	0.693756	0.69329	0.452425	7	0.0521039	11	0	51.1797	0.000313661
2	1	0	0	0	0	885.651	0.680772	0.680357	0.271757	7	0.05302	11	0	53.7766	0.000184892
2	1	0	1	0	0	888.248	0.667787	0.667274	0.160036	7	0.053567	11	0	56.3735	0.000106788
2	1	0	1	0	0	890.845	0.654802	0.654348	0.0937551	7	0.0538907	11	0	58.9705	6.13485e-05
2	1	0	0	0	0	893.442	0.641818	0.641379	0.0542676	7	0.054076	11	0	61.5674	3.48061e-05
2	1	0	1	0	0	896.039	0.628833	0.628361	0.0265318	7	0.0541775	11	0	64.1643	1.66716e-05
2	1	0	1	0	0	898.636	0.615849	0.615375	0.0144938	7	0.0542286	11	0	66.7612	8.91911e-06
2	1	0	1	0	0	901.232	0.602865	0.602389	0.00530181	7	0.0542494	11	0	69.3581	3.19376e-06
2	1	0	1	0	0	903.829	0.589879	0.589372	0.000349218	7	0.0542522	11	0	0.000000000000000E+000	2.05819e-07
2	1	0	1	0	0	906.426	0.576895	0.576437	-0.00326133	7	0.0542436	11	0	2.4971	-1.87995e-06
2	1	0	1	0	0	909.023	0.56391	0.563438	-0.00488229	7	0.0542282	11	0	5.094	-2.75087e-06
2	1	0	0	0	0	911.62	0.550926	0.550437	-0.00746206	7	0.0542087	11	0	7.6909	-4.1074e-06
2	0	0	1	0	0	914.217	0.537942	0.53752	-0.0110166	7	0.0541862	11	0	10.2878	-5.92166e-06
2	0	0	1	0	0	916.814	0.524956	0.524527	-0.00975976	7	0.0541617	11	0	12.8848	-5.11926e-06
2	1	0	0	0	0	919.411	0.511972	0.511536	-0.0105814	7	0.0541358	11	0	15.4817	-5.41278e-06
2	0	0	1	0	0	922.008	0.498988	0.498561	-0.0126623	7	0.0541082	11	0	18.0786	-6.31291e-06
2	0	0	1	0	0	924.605	0.486003	0.485537	-0.0102351	7	0.0540797	11	0	20.6755	-4.96953e-06
2	0	0	1	0	0	927.202	0.473019	0.47252	-0.0136898	7	0.0540501	11	0	23.2724	-6.4687e-06
2	1	0	1	0	0	929.799	0.460033	0.459549	-0.0106495	7	0.054019	11	0	25.8694	-4.89396e-06
2	1	0	1	0	1	932.165	0.451844	0.451352	0.0107124	8	0.053998	11	0	0.3547	4.83506e-06
2	1	0	0	0	1	934.762	0.464828	0.464392	0.0147021	8	0.0540327	11	0	2.9516	6.82753e-06
2	0	0	1	0	1	937.359	0.477812	0.47735	0.0123746	8	0.0540683	11	0	5.5485	5.90704e-06
2	1	0	1	0	1	939.956	0.490797	0.490341	0.014624	8	0.0541043	11	0	8.1454	7.17075e-06
2	1	0	1	0	1	942.553	0.503781	0.50327	0.014842	8	0.05414	11	0	10.7423	7.46954e-06
2	1	0	1	0	1	945.15	0.516767	0.5163	0.0135192	8	0.0541755	11	0	13.3393	6.97998e-06
2	0	0	1	0	1	947.747	0.529751	0.529334	0.0122037	8	0.0542114	11	0	15.9362	6.45984e-06
2	1	0	1	0	1	950.343	0.542735	0.542279	0.0153441	8	0.0542478	11	0	18.5331	8.3208e-06
2	1	0	0	0	1	952.94	0.55572	0.555307	0.0148388	8	0.0542851	11	0	21.13	8.2401e-06
2	1	0	1	0	1	955.537	0.568704	0.568293	0.0160865	8	0.0543247	11	0	23.7269	9.14183e-06
2	1	0	1	0	1	958.134	0.58169	0.581289	0.0198666	8	0.0543685	11	0	26.3239	1.15482e-05
2	1	0	0	0	1	960.731	0.594674	0.594229	0.0227603	8	0.0544191	11	0	28.9208	1.35248e-05
2	1	0	1	0	1	963.328	0.607658	0.607186	0.0297508	8	0.0544828	11	0	31.5177	1.80643e-05
2	1	0	1	0	1	965.925	0.620643	0.620201	0.0381631	8	0.0545684	11	0	34.1146	2.36688e-05
2	1	0	0	0	1	968.522	0.633628	0.633202	0.0550838	8	0.0546909	11	0	36.7116	3.48792e-05
2	1	0	1	0	1	971.119	0.646612	0.64612	0.0874803	8	0.0548758	11	0	39.3085	5.65227e-05
2	1	0	1	0	1	973.716	0.659597	0.659154	0.137689	8	0.0551652	11	0	41.9054	9.07582e-05
2	1	0	1	0	1	976.313	0.672581	0.672136	0.221354	8	0.0556258	11	0	44.5023	0.00014878
2	1	0	1	0	1	978.91	0.685567	0.685135	0.352402	8	0.0563602	11	0	47.0993	0.000241443
2	1	0	1	0	1	981.507	0.698551	0.698138	0.54791	8	0.0575147	11	0	49.6962	0.000382517
2	1	0	1	0	1	983.844	0.689761	0.689246	0.374989	8	0.0586201	11	0	52.0337	0.000258459
2	1	0	1	0	1	986.441	0.676776	0.676341	0.225	8	0.0593783	11	0	54.6307	0.000152177
2	1	0	0	0	1	989.038	0.663792	0.663351	0.130553	8	0.0598286	11	0	57.2276	8.66023e-05
2	1	0	1	0	1	991.635	0.650807	0.650408	0.074445	8	0.0600901	11	0	59.8245	4.84196e-05
2	1	0	1	0	1	994.232	0.637823	0.637366	0.0427068	8	0.0602367	11	0	62.4214	2.72199e-05
2	1	0	1	0	1	996.829	0.624839	0.62439	0.0214044	8	0.0603151	11	0	65.0183	1.33647e-05
2	1	0	1	0	1	999.426	0.611853	0.61137	0.00782168	8	0.0603529	11	0	67.6153	4.78194e-06
2	1	0	1	0	1	1002.02	0.598869	0.598423	0.00333609	8	0.0603655	11	0	0.000000000000000E+000	1.99639e-06
2	0	0	1	0	1	1004.62	0.585884	0.585435	-0.00245791	8	0.060363	11	0	0.6992	-1.43894e-06
2	0	0	0	0	1	1007.22	0.5729	0.572455	-0.00627597	8	0.0603515	11	0	3.2961	-3.59271e-06
2	0	0	1	0	1	1009.81	0.559916	0.559467	-0.00868615	8	0.0603345	11	0	5.893	-4.85962e-06
2	1	0	1	0	1	1012.41	0.54693	0.546455	-0.00672634	8	0.0603137	11	0	8.49	-3.67564e-06
2	1	0	0	0	1	1015.01	0.533946	0.533457	-0.00754426	8	0.0602905	11	0	11.0869	-4.02453e-06
2	1	0	1	0	1	1017.6	0.520961	0.52046	-0.00879646	8	0.0602655	11	0	13.6838	-4.57821e-06
2	0	0	1	0	1	1020.2	0.507977	0.507498	-0.0117846	8	0.0602392	11	0	16.2807	-5.98068e-06
2	0	0	0	0	1	1022.8	0.494992	0.494553	-0.0102548	8	0.0602114	11	0	18.8777	-5.07153e-06
2	0	0	1	0	1	1025.39	0.482007	0.481533	-0.0115777	8	0.0601827	11	0	21.4746	-5.57505e-06
2	0	0	1	0	1	1027.99	0.469023	0.468559	-0.0133925	8	0.0601525	11	0	24.0715	-6.27516e-06
2	0	0	1	0	1	1030.59	0.456039	0.455597	-0.0111302	8	0.0601213	11	0	26.6684	-5.07087e-06
2	1	0	1	0	0	1032.96	0.455838	0.455345	0.0150251	9	0.0601204	11	0	1.0987	6.84159e-06
2	1	0	1	0	0	1035.55	0.468823	0.468325	0.0151888	9	0.0601553	11	0	3.6956	7.11328e-06
2	1	0	1	0	0	1038.15	0.481807	0.481326	0.0151558	9	0.060191	11	0	6.2925	7.29489e-06
2	1	0	1	0	0	1040.75	0.494793	0.494323	0.0133748	9	0.0602268	11	0	8.8895	6.61147e-06
2	1	0	1	0	0	1043.34	0.507777	0.507321	0.01537	9	0.0602623	11	0	11.4864	7.79753e-06
2	1	0	1	0	0	1045.94	0.520761	0.520266	0.0131502	9	0.0602976	11	0	14.0833	6.84157e-06
2	1	0	0	0	0	1048.54	0.533746	0.533258	0.0114945	9	0.0603331	11	0	16.6802	6.12955e-06
2	1	0	1	0	0	1051.13	0.546731	0.546302	0.0125638	9	0.0603694	11	0	19.2772	6.86364e-06
2	1	0	1	0	0	1053.73	0.559716	0.559276	0.0129609	9	0.060407	11	0	21.8741	7.24872e-06
2	1	0	0	0	0	1056.33	0.5727	0.572272	0.0161498	9	0.0604473	11	0	24.471	9.2421e-06
2	1	0	1	0	0	1058.92	0.585684	0.585202	0.020127	9	0.060492	11	0	27.0679	1.17784e-05
2	1	0	1	0	0	1061.52	0.59867	0.598216	0.0215285	9	0.0605456	11	0	29.6649	1.28787e-05
2	1	0	0	0	0	1064.12	0.611654	0.611236	0.0311963	9	0.0606136	11	0	32.2618	1.90683e-05
2	1	0	1	0	0	1066.72	0.624638	0.624156	0.0411278	9	0.060706	11	0	34.8587	2.56701e-05
2	1	0	1	0	0	1069.31	0.637623	0.6372	0.0651261	9	0.0608412	11	0	37.4556	4.14984e-05
2	1	0	1	0	0	1071.91	0.650607	0.650161	0.0971939	9	0.0610478	11	0	40.0525	6.31917e-05
2	1	0	1	0	0	1074.51	0.663593	0.663113	0.157181	9	0.0613734	11	0	42.6495	0.000104229
2	1	0	1	0	0	1077.1	0.676577	0.676122	0.251075	9	0.0618932	11	0	45.2464	0.000169758
2	1	0	1	0	0	1079.7	0.689561	0.689129	0.396736	9	0.0627238	11	0	47.8433	0.000273402
2	1	0	1	0	0	1082.04	0.69875	0.698292	0.531648	9	0.0638616	11	0	50.1809	0.000371245
2	1	0	0	0	0	1084.63	0.685766	0.685352	0.318394	9	0.0649348	11	0	52.7778	0.000218212
2	1	0	1	0	0	1087.23	0.672781	0.672358	0.188637	9	0.0655739	11	0	55.3747	0.000126832
2	1	0	1	0	0	1089.83	0.659797	0.659344	0.106914	9	0.0659482	11	0	57.9716	7.04934e-05
2	1	0	1	0	0	1092.42	0.646813	0.646378	0.0626588	9	0.0661648	11	0	60.5685	4.05013e-05
2	1	0	1	0	0	1095.02	0.633827	0.633379	0.0342457	9	0.0662849	11	0	63.1655	2.16905e-05
2	1	0	1	0	0	1097.62	0.620843	0.620414	0.0153473	9	0.066347	11	0	65.7624	9.52171e-06
2	0	0	1	0	0	1100.22	0.607859	0.60738	0.00406962	9	0.0663747	11	0	68.3593	2.47181e-06
2	1	0	0	0	0	1102.81	0.594874	0.594457	0.00146235	9	0.0663816	11	0	0.000000000000000E+000	8.69302e-07
2	0	0	1	0	0	1105.41	0.581889	0.581425	-0.00474978	9	0.0663754	11	0	1.698	-2.76164e-06
2	1	0	1	0	0	1108.01	0.568904	0.568398	-0.00508572	9	0.0663617	11	0	4.2949	-2.89071e-06
2	0	0	0	0	0	1110.6	0.55592	0.55546	-0.00822439	9	0.0663428	11	0	6.8918	-4.56832e-06
2	1	0	1	0	0	1113.2	0.542935	0.54246	-0.0075022	9	0.0663213	11	0	9.4887	-4.06965e-06
2	0	0	1	0	0	1115.8	0.52995	0.529484	-0.0115301	9	0.0662974	11	0	12.0857	-6.10501e-06
2	1	0	0	0	0	1118.39	0.516966	0.516488	-0.00922748	9	0.066272	11	0	14.6826	-4.76588e-06
2	1	0	1	0	0	1120.99	0.503981	0.50348	-0.0086958	9	0.066245	11	0	17.2795	-4.37817e-06
2	0	0	1	0	0	1123.59	0.490997	0.490522	-0.0105265	9	0.066217	11	0	19.8764	-5.16349e-06
2	1	0	1	0	0	1126.18	0.478013	0.477565	-0.00979984	9	0.066188	11	0	22.4733	-4.68006e-06
2	0	0	1	0	0	1128.78	0.465027	0.464543	-0.0105114	9	0.0661573	11	0	25.0703	-4.88299e-06
2	0	0	1	0	0	1131.38	0.452043	0.45155	-0.012308	9	0.0661253	11	0	27.6672	-5.55767e-06
2	0	0	0	0	1	1133.75	0.459834	0.459375	0.0116331	10	0.0661449	11	0	1.9528	5.34397e-06
2	0	0	1	0	1	1136.34	0.472818	0.472378	0.0112794	10	0.06618	11	0	4.5497	5.32814e-06
2	1	0	1	0	1	1138.94	0.485803	0.485317	0.0126479	10	0.0662152	11	0	7.1466	6.13823e-06
2	1	0	1	0	1	1141.54	0.498787	0.498317	0.015177	10	0.0662505	11	0	9.7435	7.56294e-06
2	1	0	0	0	1	1144.13	0.511772	0.511302	0.0150657	10	0.0662857	11	0	12.3404	7.70312e-06
2	1	0	1	0	1	1146.73	0.524757	0.524314	0.0120757	10	0.0663208	11	0	14.9374	6.33144e-06
2	1	0	1	0	1	1149.33	0.537742	0.537278	0.0154464	10	0.066356	11	0	17.5343	8.29901e-06
2	1	0	0	0	1	1151.92	0.550726	0.550234	0.0156218	10	0.066392	11	0	20.1312	8.59565e-06
2	1	0	1	0	1	1154.52	0.56371	0.563213	0.0158713	10	0.0664299	11	0	22.7281	8.9389e-06
2	1	0	1	0	1	1157.12	0.576696	0.576241	0.0158529	10	0.0664706	11	0	25.3251	9.13508e-06
2	1	0	0	0	1	1159.71	0.58968	0.589224	0.016978	10	0.066517	11	0	27.922	1.00038e-05
2	1	0	1	0	1	1162.31	0.602664	0.602213	0.0255974	10	0.0665731	11	0	30.5189	1.54151e-05
2	1	0	1	0	1	1164.91	0.615649	0.615162	0.0308322	10	0.0666457	11	0	33.1158	1.89668e-05
2	1	0	1	0	1	1167.51	0.628633	0.628121	0.0461559	10	0.0667474	11	0	35.7127	2.89915e-05
2	1	0	1	0	1	1170.1	0.641619	0.641157	0.0701249	10	0.0668973	11	0	38.3097	4.49611e-05
2	1	0	1	0	1	1172.7	0.654603	0.65414	0.108799	10	0.0671286	11	0	40.9066	7.11699e-05
2	1	0	1	0	1	1175.3	0.667587	0.667084	0.178377	10	0.0674961	11	0	43.5035	0.000118993
2	1	0	0	0	1	1177.89	0.680572	0.680181	0.283105	10	0.0680844	11	0	46.1004	0.000192563
2	1	0	1	0	1	1180.49	0.693557	0.693077	0.449053	10	0.0690207	11	0	48.6974	0.000311229
2	1	0	1	0	1	1182.83	0.694755	0.694275	0.44193	10	0.07018	11	0	51.0349	0.000306821
2	1	0	1	0	1	1185.42	0.681771	0.681285	0.261653	10	0.0710723	11	0	53.6318	0.00017826
2	1	0	0	0	1	1188.02	0.668786	0.668351	0.156817	10	0.0716039	11	0	56.2288	0.000104809
2	1	0	1	0	1	1190.62	0.655801	0.655336	0.0909055	10	0.0719165	11	0	58.8257	5.95736e-05
2	1	0	1	0	1	1193.21	0.642817	0.642387	0.0487712	10	0.0720928	11	0	61.4226	3.133e-05
2	1	0	1	0	1	1195.81	0.629833	0.629374	0.0273102	10	0.0721894	11	0	64.0195	1.71883e-05
2	1	0	0	0	1	1198.41	0.616848	0.616376	0.0128101	10	0.0722375	11	0	66.6164	7.89585e-06
2	1	0	1	0	1	1201.01	0.603863	0.603388	0.00482079	10	0.0722567	11	0	69.2134	2.90881e-06
2	1	0	1	0	1	1203.6	0.590878	0.590399	-0.00137758	10	0.0722582	11	0	0.2997	-8.13322e-07
2	0	0	0	0	1	1206.2	0.577894	0.577416	-0.00569775	10	0.0722488	11	0	2.8966	-3.28997e-06
2	0	0	1	0	1	1208.8	0.56491	0.564435	-0.00602492	10	0.0722333	11	0	5.4935	-3.40068e-06
2	1	0	1	0	1	1211.39	0.551924	0.551482	-0.00640453	10	0.0722137	11	0	8.0905	-3.53198e-06
2	0	0	0	0	1	1213.99	0.53894	0.53848	-0.00900908	10	0.0721912	11	0	10.6874	-4.85121e-06
2	0	0	1	0	1	1216.59	0.525955	0.525461	-0.0107707	10	0.0721665	11	0	13.2843	-5.6596e-06
2	1	0	1	0	1	1219.18	0.512971	0.512488	-0.00817215	10	0.0721408	11	0	15.8812	-4.18813e-06
2	0	0	1	0	1	1221.78	0.499987	0.499507	-0.0107592	10	0.0721139	11	0	18.4781	-5.3743e-06
2	0	0	1	0	1	1224.38	0.487001	0.486517	-0.0107092	10	0.0720853	11	0	21.0751	-5.21021e-06
2	0	0	1	0	1	1226.97	0.474017	0.473535	-0.0129641	10	0.0720559	11	0	23.672	-6.13897e-06
2	0	0	1	0	1	1229.57	0.461032	0.460532	-0.0137938	10	0.0720252	11	0	26.2689	-6.3525e-06
2	1	0	1	0	0	1231.94	0.450844	0.45036	0.011533	11	0.0719996	11	0	0.0999	5.194e-06
2	1	0	1	0	0	1234.54	0.463829	0.463368	0.0150535	11	0.0720333	11	0	2.6968	6.97529e-06
2	1	0	1	0	0	1237.13	0.476813	0.476363	0.0113647	11	0.0720682	11	0	5.2937	5.41372e-06
2	1	0	1	0	0	1239.73	0.489799	0.489315	0.0149582	11	0.0721034	11	0	7.8907	7.31927e-06
2	0	0	1	0	0	1242.33	0.502783	0.502279	0.0127025	11	0.0721385	11	0	10.4876	6.38021e-06
2	0	0	1	0	0	1244.92	0.515768	0.515304	0.0114238	11	0.0721734	11	0	13.0845	5.88672e-06
2	1	0	0	0	0	1247.52	0.528752	0.528275	0.0146359	11	0.0722086	11	0	15.6814	7.73176e-06
2	1	0	1	0	0	1250.12	0.541736	0.541272	0.0156032	11	0.072244	11	0	18.2783	8.44557e-06
2	1	0	1	0	0	1252.71	0.554722	0.554284	0.0162727	11	0.0722806	11	0	20.8753	9.01967e-06
2	1	0	0	0	0	1255.31	0.567706	0.567235	0.0169743	11	0.0723188	11	0	23.4722	9.62841e-06
2	1	0	1	0	0	1257.91	0.58069	0.580203	0.0159083	11	0.0723605	11	0	26.0691	9.23004e-06
2	1	0	1	0	0	1260.5	0.593675	0.593224	0.0194629	11	0.0724092	11	0	28.666	1.15459e-05
2	1	0	0	0	0	1263.1	0.60666	0.606237	0.0274956	11	0.072469	11	0	31.263	1.66689e-05
2	1	0	1	0	0	1265.7	0.619645	0.619153	0.0367037	11	0.0725476	11	0	33.8599	2.27252e-05
2	1	0	1	0	0	1268.3	0.632629	0.632182	0.0530261	11	0.0726595	11	0	36.4568	3.35221e-05
2	1	0	1	0	0	1270.89	0.645613	0.645185	0.0787326	11	0.0728271	11	0	39.0537	5.07971e-05
2	1	0	0	0	0	1273.49	0.658598	0.658193	0.124501	11	0.0730892	11	0	41.6506	8.19455e-05
2	1	0	1	0	0	1276.09	0.671583	0.671145	0.199528	11	0.0735062	11	0	44.2476	0.000133912
2	1	0	1	0	0	1278.68	0.684568	0.684141	0.323514	11	0.074175	11	0	46.8445	0.000221329
2	1	0	0	0	0	1281.28	0.697552	0.697157	0.505232	11	0.0752371	11	0	49.4414	0.000352226
2	1	0	0	0	0	1283.62	0.69076	0.690321	0.369021	11	0.0763234	11	0	51.779	0.000254743
2	1	0	1	0	0	1286.21	0.677775	0.67733	0.221529	11	0.0770743	11	0	54.3759	0.000150048
2	1	0	1	0	0	1288.81	0.664791	0.664337	0.131561	11	0.0775199	11	0	56.9728	8.74008e-05
2	1	0	1	0	0	1291.41	0.651807	0.65135	0.0758389	11	0.0777788	11	0	59.5697	4.93976e-05
2	1	0	1	0	0	1294.01	0.638821	0.638352	0.0427254	11	0.0779247	11	0	62.1667	2.72739e-05
2	1	0	1	0	0	1296.6	0.625837	0.625384	0.0197487	11	0.0780019	11	0	64.7636	1.23505e-05
2	1	0	1	0	0	1299.2	0.612852	0.612344	0.0091727	11	0.0780383	11	0	67.3605	5.61684e-06
2	0	0	0	0	0	1301.8	0.599868	0.599402	-8.87775e-05	11	0.07805	11	0	0.0999	-5.32134e-08
2	1	0	1	0	0	1304.39	0.586884	0.586409	-0.00111839	11	0.0780471	11	0	0.8989	-6.55832e-07
2	0	0	1	0	0	1306.99	0.573898	0.573447	-0.00685642	11	0.0780352	11	0	3.4959	-3.93179e-06
2	1	0	0	0	0	1309.59	0.560914	0.560456	-0.00619356	11	0.0780179	11	0	6.0928	-3.47122e-06
2	1	0	1	0	0	1312.18	0.547929	0.547477	-0.0087561	11	0.0779971	11	0	8.6897	-4.79377e-06
2	1	0	1	0	0	1314.78	0.534945	0.534505	-0.00861026	11	0.0779739	11	0	11.2866	-4.60223e-06
2	1	0	0	0	0	1317.38	0.52196	0.521528	-0.00846442	11	0.0779489	11	0	13.8836	-4.41443e-06
2	0	0	1	0	0	1319.97	0.508975	0.508486	-0.00881106	11	0.0779223	11	0	16.4805	-4.4803e-06
2	1	0	1	0	0	1322.57	0.495991	0.495537	-0.00890688	11	0.0778948	11	0	19.0774	-4.41369e-06
2	1	0	1	0	0	1325.17	0.483006	0.482536	-0.00886216	11	0.0778661	11	0	21.6743	-4.27631e-06
2	1	0	0	0	0	1327.76	0.470022	0.469527	-0.00935121	11	0.0778362	11	0	24.2712	-4.39065e-06
2	0	0	1	0	0	1330.36	0.457037	0.456531	-0.0104181	11	0.0778048	11	0	26.8682	-4.75617e-06
2	1	0	1	0	1	1332.73	0.454839	0.454349	0.0108741	12	0.0777987	11	0	0.8989	4.94064e-06
2	1	0	1	0	1	1335.33	0.467825	0.467375	0.0152712	12	0.0778329	11	0	3.4959	7.13735e-06
2	1	0	1	0	1	1337.92	0.480809	0.480312	0.0116855	12	0.0778679	11	0	6.0928	5.6127e-06
2	0	0	1	0	1	1340.52	0.493793	0.493353	0.0120418	12	0.0779026	11	0	8.6897	5.94085e-06
2	1	0	0	0	1	1343.12	0.506778	0.506341	0.0151755	12	0.0779376	11	0	11.2866	7.68398e-06
2	1	0	1	0	1	1345.71	0.519763	0.519298	0.0148611	12	0.0779725	11	0	13.8836	7.71735e-06
2	1	0	1	0	1	1348.31	0.532748	0.532307	0.0151068	12	0.0780074	11	0	16.4805	8.04147e-06
2	1	0	0	0	1	1350.91	0.545732	0.545283	0.0131213	12	0.0780426	11	0	19.0774	7.15482e-06
2	1	0	1	0	1	1353.5	0.558716	0.558248	0.0126426	12	0.0780789	11	0	21.6743	7.0577e-06
2	0	0	1	0	1	1356.1	0.571702	0.571249	0.0139527	12	0.0781179	11	0	24.2713	7.97048e-06
2	1	0	0	0	1	1358.7	0.584686	0.584231	0.0179088	12	0.0781613	11	0	26.8682	1.04629e-05
2	1	0	1	0	1	1361.29	0.597671	0.597212	0.0229523	12	0.0782116	11	0	29.4651	1.37074e-05
2	1	0	1	0	1	1363.89	0.610655	0.610172	0.0269252	12	0.0782749	11	0	32.062	1.6429e-05
2	1	0	1	0	1	1366.49	0.623639	0.623181	0.0372394	12	0.0783607	11	0	34.6589	2.32069e-05
2	1	0	1	0	1	1369.09	0.636625	0.63619	0.0585121	12	0.0784848	11	0	37.2559	3.72248e-05
2	1	0	1	0	1	1371.68	0.649609	0.649119	0.0876115	12	0.0786726	11	0	39.8528	5.68702e-05
2	1	0	1	0	1	1374.28	0.662594	0.662156	0.142833	12	0.0789688	11	0	42.4497	9.45777e-05
2	1	0	0	0	1	1376.88	0.675578	0.675179	0.229384	12	0.0794437	11	0	45.0466	0.000154875
2	1	0	1	0	1	1379.47	0.688562	0.688107	0.366531	12	0.0802048	11	0	47.6435	0.000252213
2	1	0	1	0	1	1381.81	0.699749	0.699343	0.52335	12	0.0812579	11	0	49.9811	0.000366001
2	1	0	1	0	1	1384.41	0.686765	0.686302	0.313213	12	0.0823153	11	0	52.578	0.000214959
2	1	0	1	0	1	1387	0.673781	0.673322	0.182906	12	0.0829454	11	0	55.1749	0.000123155
2	1	0	1	0	1	1389.6	0.660795	0.660396	0.108599	12	0.0833143	11	0	57.7719	7.17183e-05
2	1	0	1	0	1	1392.2	0.647811	0.647323	0.0584226	12	0.0835252	11	0	60.3688	3.78183e-05
2	1	0	1	0	1	1394.8	0.634826	0.634355	0.033601	12	0.0836418	11	0	62.9657	2.13149e-05
2	1	0	0	0	1	1397.39	0.621842	0.621392	0.0146092	12	0.0837015	11	0	65.5626	9.07807e-06
2	1	0	1	0	1	1399.99	0.608857	0.608424	0.00490438	12	0.0837279	11	0	68.1596	2.98394e-06
2	0	0	1	0	1	1402.59	0.595872	0.595426	-0.000524519	12	0.0837338	11	0	0.0999	-3.12312e-07
2	0	0	0	0	1	1405.18	0.582888	0.582454	-0.00378208	12	0.083727	11	0	1.698	-2.20289e-06
2	1	0	1	0	1	1407.78	0.569903	0.56943	-0.00501809	12	0.0837134	11	0	4.2949	-2.85745e-06
2	0	0	1	0	1	1410.38	0.556919	0.556517	-0.00758226	12	0.0836947	11	0	6.8918	-4.21966e-06
2	1	0	0	0	1	1412.97	0.543934	0.543507	-0.00680953	12	0.0836731	11	0	9.4888	-3.70102e-06
2	0	0	1	0	1	1415.57	0.530949	0.530482	-0.00943713	12	0.0836493	11	0	12.0857	-5.00623e-06
2	0	0	1	0	1	1418.17	0.517965	0.517447	-0.0121692	12	0.0836237	11	0	14.6826	-6.29692e-06
2	0	0	1	0	1	1420.76	0.504981	0.504508	-0.0102629	12	0.0835972	11	0	17.2795	-5.17773e-06
2	0	0	1	0	1	1423.36	0.491995	0.49156	-0.00940448	12	0.0835694	11	0	19.8765	-4.62287e-06
2	1	0	1	0	1	1425.96	0.479011	0.478549	-0.00910982	12	0.0835407	11	0	22.4734	-4.3595e-06
2	0	0	1	0	1	1428.56	0.466026	0.46558	-0.0137545	12	0.0835106	11	0	25.0703	-6.40382e-06
2	0	0	0	0	1	1431.15	0.453042	0.452559	-0.0103546	12	0.0834793	11	0	27.6672	-4.68608e-06
2	1	0	1	0	0	1433.52	0.458835	0.458383	0.0119983	13	0.0834934	11	0	1.753	5.49983e-06
2	0	0	1	0	0	1436.12	0.471819	0.471367	0.0119401	13	0.0835276	11	0	4.3499	5.62816e-06
2	1	0	0	0	0	1438.71	0.484804	0.484359	0.0137154	13	0.0835629	11	0	6.9468	6.64317e-06
2	1	0	1	0	0	1441.31	0.497789	0.497322	0.0134799	13	0.0835976	11	0	9.5438	6.70383e-06
2	0	0	1	0	0	1443.91	0.510773	0.510326	0.0110872	13	0.0836324	11	0	12.1407	5.65809e-06
2	1	0	0	0	0	1446.5	0.523758	0.523298	0.0151679	13	0.083667	11	0	14.7376	7.93736e-06
2	1	0	1	0	0	1449.1	0.536742	0.536275	0.0131116	13	0.0837018	11	0	17.3345	7.03144e-06
2	1	0	1	0	0	1451.7	0.549728	0.549286	0.0135618	13	0.0837378	11	0	19.9315	7.44927e-06
2	1	0	0	0	0	1454.29	0.562712	0.562316	0.0140716	13	0.0837745	11	0	22.5284	7.91266e-06
2	1	0	1	0	0	1456.89	0.575696	0.575253	0.0155483	13	0.0838144	11	0	25.1253	8.94423e-06
2	1	0	1	0	0	1459.49	0.588681	0.588152	0.0203502	13	0.083859	11	0	27.7222	1.1969e-05
2	1	0	1	0	0	1462.08	0.601665	0.601218	0.0218877	13	0.0839122	11	0	30.3191	1.31593e-05
2	1	0	1	0	0	1464.68	0.614651	0.614209	0.0296271	13	0.0839808	11	0	32.9161	1.81973e-05
2	1	0	1	0	0	1467.28	0.627635	0.627163	0.0451289	13	0.0840748	11	0	35.513	2.83032e-05
2	1	0	1	0	0	1469.88	0.640619	0.640205	0.0648493	13	0.0842126	11	0	38.1099	4.15169e-05
2	1	0	0	0	0	1472.47	0.653604	0.653169	0.0994816	13	0.0844249	11	0	40.7068	6.49783e-05
2	1	0	1	0	0	1475.07	0.666588	0.666127	0.163857	13	0.0847612	11	0	43.3037	0.000109149
2	1	0	1	0	0	1477.67	0.679574	0.679153	0.259223	13	0.0853012	11	0	45.9007	0.000176052
2	1	0	0	0	0	1480.26	0.692558	0.692136	0.41428	13	0.0861679	11	0	48.4976	0.000286738
2	1	0	0	0	0	1482.6	0.695754	0.695298	0.438551	13	0.0872825	11	0	50.8352	0.000304924
2	1	0	1	0	0	1485.2	0.682769	0.682292	0.261993	13	0.0881745	11	0	53.4321	0.000178756
2	1	0	1	0	0	1487.79	0.669785	0.669351	0.156095	13	0.0887079	11	0	56.029	0.000104482
2	1	0	1	0	0	1490.39	0.6568	0.656371	0.0914632	13	0.0890186	11	0	58.6259	6.00338e-05
2	1	0	0	0	0	1492.99	0.643816	0.643347	0.0508849	13	0.0891939	11	0	61.2228	3.27367e-05
2	1	0	1	0	0	1495.59	0.630831	0.630388	0.0239596	13	0.0892888	11	0	63.8198	1.51038e-05
2	1	0	1	0	0	1498.18	0.617846	0.617448	0.0132043	13	0.089336	11	0	66.4167	8.15294e-06
2	1	0	0	0	0	1500.78	0.604862	0.604365	0.00313536	13	0.0893543	11	0	69.0136	1.8949e-06
2	1	0	1	0	0	1503.38	0.591877	0.591401	-0.00215098	13	0.0893558	11	0	0.1997	-1.27209e-06
2	0	0	1	0	0	1505.97	0.578892	0.578479	-0.00580913	13	0.0893466	11	0	2.7967	-3.36046e-06
2	1	0	0	0	0	1508.57	0.565908	0.565433	-0.00491254	13	0.0893311	11	0	5.3936	-2.77771e-06
2	0	0	1	0	0	1511.17	0.552923	0.552476	-0.0101561	13	0.0893115	11	0	7.9905	-5.61101e-06
2	1	0	1	0	0	1513.76	0.539939	0.539516	-0.00775316	13	0.0892894	11	0	10.5874	-4.18295e-06
2	0	0	1	0	0	1516.36	0.526955	0.526513	-0.0104503	13	0.0892653	11	0	13.1843	-5.50221e-06
2	0	0	1	0	0	1518.96	0.513969	0.513467	-0.0107822	13	0.0892394	11	0	15.7813	-5.53631e-06
2	1	0	1	0	0	1521.55	0.500985	0.500537	-0.0086319	13	0.0892127	11	0	18.3782	-4.32059e-06
2	1	0	1	0	0	1524.15	0.488	0.487567	-0.00934981	13	0.089185	11	0	20.9751	-4.55866e-06
2	0	0	0	0	0	1526.75	0.475016	0.474574	-0.0129838	13	0.0891557	11	0	23.572	-6.16176e-06
2	0	0	1	0	0	1529.35	0.462032	0.461617	-0.0127454	13	0.0891253	11	0	26.1689	-5.88348e-06
2	1	0	1	0	1	1531.76	0.450071	0.449668	0.0019893	14	0.0890961	11	0	0.000000000000000E+000	8.94523e-07
2	1	0	1	0	1	1534.31	0.462831	0.462416	0.0118073	14	0.0891283	11	0	2.5521	5.4599e-06
2	1	0	1	0	1	1536.91	0.475815	0.475353	0.0152191	14	0.0891631	11	0	5.149	7.23444e-06
2	1	0	1	0	1	1539.5	0.488799	0.488359	0.0149818	14	0.089198	11	0	7.7459	7.3165e-06
2	1	0	0	0	1	1542.1	0.501784	0.501335	0.0138763	14	0.0892326	11	0	10.3428	6.95666e-06
2	1	0	1	0	1	1544.7	0.514768	0.514319	0.0118985	14	0.0892676	11	0	12.9397	6.1196e-06
2	0	0	1	0	1	1547.29	0.527754	0.527303	0.0119911	14	0.0893024	11	0	15.5367	6.32295e-06
2	1	0	0	0	1	1549.89	0.540738	0.540311	0.0125193	14	0.0893377	11	0	18.1336	6.76432e-06
2	1	0	1	0	1	1552.49	0.553722	0.553316	0.0150776	14	0.0893733	11	0	20.7305	8.34271e-06
2	1	0	1	0	1	1555.08	0.566707	0.566204	0.0146612	14	0.0894112	11	0	23.3274	8.30122e-06
2	1	0	1	0	1	1557.68	0.579691	0.579273	0.0182787	14	0.089452	11	0	25.9243	1.05884e-05
2	1	0	1	0	1	1560.28	0.592676	0.592242	0.0172812	14	0.0894984	11	0	28.5213	1.02347e-05
2	1	0	1	0	1	1562.87	0.605661	0.605213	0.026498	14	0.0895551	11	0	31.1182	1.6037e-05
2	1	0	1	0	1	1565.47	0.618645	0.618185	0.0312268	14	0.0896291	11	0	33.7151	1.93039e-05
2	1	0	0	0	1	1568.07	0.63163	0.631216	0.0484618	14	0.089733	11	0	36.312	3.05899e-05
2	1	0	1	0	1	1570.67	0.644615	0.644189	0.0707918	14	0.0898875	11	0	38.909	4.56033e-05
2	1	0	1	0	1	1573.26	0.657599	0.657181	0.11489	14	0.0901278	11	0	41.5059	7.55033e-05
2	1	0	0	0	1	1575.86	0.670584	0.670132	0.183619	14	0.0905119	11	0	44.1028	0.000123049
2	1	0	1	0	1	1578.46	0.683568	0.683131	0.298691	14	0.0911299	11	0	46.6997	0.000204045
2	1	0	1	0	1	1581.05	0.696554	0.696138	0.47197	14	0.0921159	11	0	49.2967	0.000328556
2	1	0	1	0	1	1583.39	0.691759	0.691323	0.374236	14	0.0931893	11	0	51.6342	0.000258718
2	1	0	1	0	1	1585.99	0.678774	0.67834	0.220067	14	0.0939404	11	0	54.2311	0.00014928
2	1	0	1	0	1	1588.58	0.665789	0.665395	0.127124	14	0.0943814	11	0	56.8281	8.45876e-05
2	1	0	1	0	1	1591.18	0.652805	0.652351	0.0709703	14	0.0946358	11	0	59.425	4.62975e-05
2	1	0	1	0	1	1593.78	0.63982	0.639371	0.0413087	14	0.0947782	11	0	62.0219	2.64116e-05
2	1	0	0	0	1	1596.38	0.626836	0.626407	0.0185535	14	0.0948533	11	0	64.6188	1.1622e-05
2	1	0	1	0	1	1598.97	0.613852	0.613387	0.00990089	14	0.0948892	11	0	67.2157	6.07308e-06
2	0	0	1	0	1	1601.57	0.600866	0.600415	1.02329e-05	14	0.0949006	11	0	0.000000000000000E+000	6.14398e-09
2	1	0	0	0	1	1604.17	0.587882	0.587386	-0.0029096	14	0.0948979	11	0	0.9988	-1.70906e-06
2	0	0	1	0	1	1606.76	0.574897	0.574456	-0.00447207	14	0.0948862	11	0	3.5957	-2.56901e-06
2	1	0	1	0	1	1609.36	0.561913	0.561459	-0.00520541	14	0.0948695	11	0	6.1926	-2.92262e-06
2	0	0	1	0	1	1611.96	0.548929	0.548466	-0.0105787	14	0.0948492	11	0	8.7895	-5.80204e-06
2	1	0	1	0	1	1614.55	0.535943	0.535527	-0.00703248	14	0.0948266	11	0	11.3865	-3.76608e-06
2	0	0	1	0	1	1617.15	0.522959	0.522524	-0.0106997	14	0.0948022	11	0	13.9834	-5.59083e-06
2	1	0	1	0	1	1619.75	0.509974	0.509545	-0.00767348	14	0.0947766	11	0	16.5803	-3.90998e-06
2	0	0	0	0	1	1622.34	0.49699	0.496551	-0.0125783	14	0.0947497	11	0	19.1772	-6.24575e-06
2	1	0	1	0	1	1624.94	0.484005	0.483571	-0.00876552	14	0.0947218	11	0	21.7742	-4.23875e-06
2	1	0	1	0	1	1627.54	0.47102	0.470595	-0.00907161	14	0.0946926	11	0	24.3711	-4.26905e-06
2	0	0	0	0	1	1630.14	0.458036	0.457572	-0.012503	14	0.0946624	11	0	26.968	-5.72101e-06
2	1	0	1	0	0	1632.5	0.453841	0.453423	0.0148203	15	0.0946517	11	0	0.7542	6.71985e-06
2	1	0	1	0	0	1635.1	0.466825	0.466355	0.013678	15	0.0946855	11	0	3.3511	6.37879e-06
2	0	0	0	0	0	1637.7	0.47981	0.479364	0.0112315	15	0.0947205	11	0	5.948	5.38396e-06
2	1	0	1	0	0	1640.29	0.492794	0.492343	0.0139566	15	0.0947554	11	0	8.5449	6.87146e-06
2	1	0	1	0	0	1642.89	0.50578	0.505345	0.0153967	15	0.0947904	11	0	11.1419	7.78065e-06
2	1	0	0	0	0	1645.49	0.518764	0.518344	0.0114546	15	0.0948249	11	0	13.7388	5.9374e-06
2	1	0	1	0	0	1648.08	0.531748	0.531321	0.0145876	15	0.0948595	11	0	16.3357	7.75071e-06
2	1	0	1	0	0	1650.68	0.544733	0.544267	0.0146394	15	0.0948948	11	0	18.9326	7.96774e-06
2	1	0	1	0	0	1653.28	0.557717	0.557275	0.0147636	15	0.0949313	11	0	21.5295	8.22739e-06
2	1	0	1	0	0	1655.87	0.570703	0.570265	0.0162261	15	0.0949693	11	0	24.1265	9.25317e-06
2	0	0	1	0	0	1658.47	0.583687	0.583245	0.01533	15	0.0950112	11	0	26.7234	8.94114e-06
2	1	0	1	0	0	1661.07	0.596671	0.596196	0.0224066	15	0.09506	11	0	29.3203	1.33587e-05
2	1	0	0	0	0	1663.66	0.609656	0.60923	0.0279532	15	0.0951205	11	0	31.9172	1.70299e-05
2	1	0	1	0	0	1666.26	0.622641	0.622228	0.0367448	15	0.095201	11	0	34.5142	2.28637e-05
2	1	0	1	0	0	1668.86	0.635626	0.635207	0.0554272	15	0.0953161	11	0	37.1111	3.52077e-05
2	1	0	0	0	0	1671.46	0.64861	0.648174	0.0825666	15	0.0954897	11	0	39.708	5.35175e-05
2	1	0	1	0	0	1674.05	0.661594	0.661187	0.129366	15	0.0957623	11	0	42.3049	8.55348e-05
2	1	0	1	0	0	1676.65	0.67458	0.674168	0.209351	15	0.0961991	11	0	44.9019	0.000141138
2	1	0	0	0	0	1679.25	0.687564	0.687142	0.337319	15	0.0969016	11	0	47.4988	0.000231786
2	1	0	1	0	0	1681.73	0.699974	0.699632	0.51945	15	0.0979539	11	0	49.9808	0.000363424
2	1	0	1	0	0	1684.18	0.687763	0.687275	0.309125	15	0.0989348	11	0	52.4333	0.000212454
2	1	0	1	0	0	1686.78	0.674779	0.674372	0.180044	15	0.0995584	11	0	55.0302	0.000121416
2	1	0	1	0	0	1689.37	0.661794	0.661295	0.102776	15	0.0999212	11	0	57.6271	6.79654e-05
2	1	0	0	0	0	1691.97	0.64881	0.64835	0.0573902	15	0.100127	11	0	60.224	3.7209e-05
2	1	0	1	0	0	1694.57	0.635826	0.635365	0.0321205	15	0.100241	11	0	62.8209	2.04082e-05
2	1	0	1	0	0	1697.17	0.62284	0.622381	0.0155087	15	0.100298	11	0	65.4179	9.65235e-06
2	1	0	0	0	0	1699.76	0.609856	0.609399	0.00460614	15	0.100323	11	0	68.0148	2.80698e-06
2	1	0	1	0	0	1702.36	0.596871	0.596415	-0.00124726	15	0.100329	11	0	0.0999	-7.43886e-07
2	0	0	1	0	0	1704.96	0.583887	0.583457	-0.00353689	15	0.100322	11	0	1.4982	-2.06362e-06
2	0	0	0	0	0	1707.55	0.570902	0.570443	-0.0064085	15	0.100309	11	0	4.0952	-3.65568e-06
2	1	0	1	0	0	1710.15	0.557917	0.557501	-0.00686162	15	0.10029	11	0	6.6921	-3.82536e-06
2	1	0	1	0	0	1712.75	0.544933	0.544479	-0.0063096	15	0.100269	11	0	9.289	-3.43544e-06
2	0	0	1	0	0	1715.34	0.531948	0.53149	-0.00794185	15	0.100246	11	0	11.8859	-4.22101e-06
2	0	0	0	0	0	1717.94	0.518964	0.518544	-0.00882345	15	0.100221	11	0	14.4828	-4.57534e-06
2	0	0	1	0	0	1720.54	0.505979	0.505585	-0.0109635	15	0.100195	11	0	17.0798	-5.54297e-06
2	0	0	1	0	0	1723.13	0.492994	0.492506	-0.0123498	15	0.100168	11	0	19.6767	-6.08237e-06
2	0	0	0	0	0	1725.73	0.48001	0.479579	-0.0129106	15	0.10014	11	0	22.2736	-6.19167e-06
2	1	0	1	0	0	1728.33	0.467025	0.466554	-0.0109677	15	0.10011	11	0	24.8705	-5.11704e-06
2	0	0	1	0	0	1730.93	0.45404	0.453558	-0.013259	15	0.100079	11	0	27.4675	-6.01374e-06
2	0	0	0	0	0	1731.73	0.450021	0.449592	-0.0227627	15	0.100069	11	0	28.2706	-1.02339e-05