File: ACS_Catal_2026/Figures_Na_K/main_figures/data/EC/20251112_2-148_alpha_reproducibility/20251112_2-148_003_alpha_Na_first_1_Na2_03_CVA_C01.mpt
EC-Lab ASCII FILE
Nb header lines : 66

Cyclic Voltammetry Advanced

Run on channel : 1 (SN 69187)
User :
CE vs. WE compliance from -10 V to 10 V
Electrode connection : standard
Potential control : Ewe
Ewe ctrl range : min = -1.00 V, max = 1.00 V
Safety Limits :
	Do not start on E overload
Acquisition started on : 11/12/2025 17:08:42.026
Loaded Setting File :  C:\Users\User\Documents\EC-Lab\Data\Yatsuzuka\20251030_2-147_gamma_reproducibility\20251030_2-147_001_gamma1_K_1.mps
Saved on :
	File : 20251112_2-148_003_alpha_Na_first_1_Na2_03_CVA_C01.mpr
	Directory : C:\Users\User\Documents\EC-Lab\Data\Yatsuzuka\20251112_2-148_alpha_reproducibility\
	Host : 192.109.209.127
Device : SP-150e (SN .003883)
Address : 192.109.209.128
EC-Lab for windows v11.52 (software)
Internet server v11.52 (firmware)
Command interpretor v11.50 (firmware)
Electrode material :
Initial state :
Electrolyte :
Comments :
Electrode surface area : 0.001 cm2
Characteristic mass : 0.001 g
Equivalent Weight : 0.000 g/eq.
Density : 0.000 g/cm3
Volume (V) : 0.001 cm3
Cycle Definition : Charge/Discharge alternance
Ei (V)              0.450
vs.                 Ref
ti (h:m:s)          0:00:10.0000
dti (s)             0.0000
dE/dt               5.000
dE/dt unit          mV/s
E1 (V)              0.700
vs.                 Ref
t1 (h:m:s)          0:00:0.0000
dt1 (s)             0.1000
Step percent        50
N                   10
E range min (V)     -1.000
E range max (V)     1.000
I Range             10 mA
I Range min         Unset
I Range max         Unset
I Range init        Unset
Bandwidth           5
E2 (V)              0.450
vs.                 Ref
t2 (h:m:s)          0:00:0.0000
dt2 (s)             0.1000
nc cycles           14
nr                  1
Reverse Scan        0
Ef (V)              0.000
vs.                 Eoc
tf (h:m:s)          0:00:0.0000
dtf (s)             0.1000

mode	ox/red	error	control changes	Ns changes	counter inc.	time/s	control/V	Ewe/V	<I>/mA	cycle number	(Q-Qo)/C	I Range	Ns	step time/s	P/W
2	0	0	1	0	0	231.665	0.449961	0.449716	-0.0150746	1	0.0000000E+000	11	0	0.000000000000000E+000	-6.77929e-06
2	1	0	1	0	0	234.217	0.462718	0.462492	0.014845	1	3.29414e-05	11	0	2.4965	6.86571e-06
2	1	0	1	0	0	236.813	0.4757	0.475408	0.0130682	1	6.67916e-05	11	0	5.0929	6.21272e-06
2	0	0	1	0	0	239.41	0.488682	0.488506	0.0111658	1	0.000100754	11	0	7.6893	5.45453e-06
2	1	0	1	0	0	242.006	0.501664	0.501398	0.0123974	1	0.000134571	11	0	10.2857	6.21602e-06
2	1	0	1	0	0	244.602	0.514646	0.514396	0.0147948	1	0.000168296	11	0	12.8821	7.61039e-06
2	1	0	1	0	0	247.199	0.527628	0.527431	0.0148482	1	0.000202061	11	0	15.4785	7.83139e-06
2	1	0	1	0	0	249.795	0.54061	0.540354	0.0118285	1	0.00023611	11	0	18.0749	6.39155e-06
2	1	0	1	0	0	252.392	0.553592	0.553318	0.0148201	1	0.000271484	11	0	20.6713	8.20025e-06
2	1	0	1	0	0	254.988	0.566574	0.566399	0.0143774	1	0.000308309	11	0	23.2677	8.14336e-06
2	1	0	1	0	0	257.584	0.579556	0.579352	0.0148748	1	0.000348472	11	0	25.8641	8.61777e-06
2	1	0	1	0	0	260.181	0.592538	0.592293	0.0198983	1	0.000393252	11	0	28.4605	1.17856e-05
2	1	0	1	0	0	262.777	0.60552	0.6053	0.0212604	1	0.000446752	11	0	31.0569	1.28689e-05
2	1	0	1	0	0	265.374	0.618502	0.618269	0.0315543	1	0.000515849	11	0	33.6533	1.9509e-05
2	1	0	1	0	0	267.97	0.631484	0.631261	0.0437449	1	0.000609873	11	0	36.2497	2.76145e-05
2	1	0	1	0	0	270.566	0.644466	0.644255	0.0629846	1	0.000746901	11	0	38.8461	4.05782e-05
2	1	0	1	0	0	273.163	0.657448	0.657235	0.102113	1	0.000957877	11	0	41.4425	6.71123e-05
2	1	0	1	0	0	275.759	0.67043	0.670227	0.160238	1	0.00129303	11	0	44.0389	0.000107396
2	1	0	1	0	0	278.356	0.683412	0.68318	0.26202	1	0.00183215	11	0	46.6353	0.000179007
2	1	0	1	0	0	280.952	0.696394	0.696124	0.409838	1	0.00269092	11	0	49.2317	0.000285298
2	1	0	1	0	0	283.331	0.691701	0.691445	0.322149	1	0.00364013	11	0	51.6106	0.000222748
2	1	0	1	0	0	285.927	0.678719	0.67845	0.19443	1	0.00429462	11	0	54.207	0.000131911
2	1	0	1	0	0	288.524	0.665737	0.665515	0.108892	1	0.00467895	11	0	56.8034	7.24695e-05
2	1	0	1	0	0	291.12	0.652754	0.652497	0.059514	1	0.00489498	11	0	59.3998	3.88327e-05
2	1	0	1	0	0	293.716	0.639773	0.639518	0.0332705	1	0.00501263	11	0	61.9962	2.12771e-05
2	1	0	1	0	0	296.313	0.626791	0.626571	0.013648	1	0.00507067	11	0	64.5926	8.55142e-06
2	1	0	1	0	0	298.909	0.613809	0.613617	0.00580922	1	0.00509455	11	0	67.189	3.56463e-06
2	0	0	1	0	0	301.506	0.600827	0.600605	-0.00147292	1	0.00509751	11	0	0.0998	-8.84644e-07
2	0	0	1	0	0	304.102	0.587845	0.587641	-0.00516166	1	0.00508895	11	0	2.3967	-3.0332e-06
2	1	0	1	0	0	306.698	0.574863	0.574619	-0.00595557	1	0.00507309	11	0	4.9931	-3.42218e-06
2	0	0	1	0	0	309.295	0.561881	0.561645	-0.00975807	1	0.0050533	11	0	7.5895	-5.48057e-06
2	1	0	1	0	0	311.891	0.548899	0.548666	-0.00741844	1	0.00503064	11	0	10.1859	-4.07024e-06
2	0	0	1	0	0	314.488	0.535917	0.535673	-0.0105943	1	0.0050058	11	0	12.7823	-5.67509e-06
2	0	0	1	0	0	317.084	0.522935	0.522689	-0.0107743	1	0.00497989	11	0	15.3787	-5.63163e-06
2	0	0	1	0	0	319.68	0.509953	0.50973	-0.00948067	1	0.00495276	11	0	17.9751	-4.83258e-06
2	0	0	1	0	0	322.277	0.496971	0.496711	-0.0127839	1	0.00492486	11	0	20.5715	-6.34988e-06
2	1	0	1	0	0	324.873	0.483989	0.48376	-0.00977194	1	0.00489616	11	0	23.1679	-4.72727e-06
2	0	0	1	0	0	327.47	0.471007	0.470767	-0.0107188	1	0.00486642	11	0	25.7643	-5.04607e-06
2	0	0	1	0	0	330.066	0.458025	0.457756	-0.0138425	1	0.00483598	11	0	28.3607	-6.3365e-06
2	1	0	1	0	1	332.52	0.45428	0.454068	0.0126234	2	0.00482554	11	0	0.7989	5.7319e-06
2	1	0	1	0	1	335.116	0.467262	0.467037	0.0119581	2	0.00485622	11	0	3.3953	5.58488e-06
2	1	0	1	0	1	337.713	0.480244	0.479992	0.0107682	2	0.00488796	11	0	5.9917	5.16867e-06
2	1	0	1	0	1	340.309	0.493226	0.493023	0.0139667	2	0.00491962	11	0	8.5881	6.88589e-06
2	1	0	1	0	1	342.905	0.506208	0.505963	0.0108187	2	0.00495105	11	0	11.1845	5.47384e-06
2	1	0	1	0	1	345.502	0.51919	0.518963	0.0117301	2	0.00498253	11	0	13.7809	6.08751e-06
2	1	0	1	0	1	348.098	0.532172	0.531996	0.0131682	2	0.00501369	11	0	16.3773	7.00542e-06
2	0	0	1	0	1	350.695	0.545154	0.544924	0.0107287	2	0.00504554	11	0	18.9737	5.84634e-06
2	1	0	1	0	1	353.291	0.558136	0.557889	0.0135259	2	0.00507849	11	0	21.5701	7.54595e-06
2	1	0	1	0	1	355.887	0.571118	0.570877	0.0145237	2	0.0051127	11	0	24.1665	8.29124e-06
2	1	0	1	0	1	358.484	0.5841	0.583845	0.0134763	2	0.00515011	11	0	26.7629	7.86806e-06
2	1	0	1	0	1	361.08	0.597082	0.596839	0.0188599	2	0.00519322	11	0	29.3593	1.12563e-05
2	1	0	1	0	1	363.677	0.610064	0.609831	0.022749	2	0.00524566	11	0	31.9557	1.3873e-05
2	1	0	1	0	1	366.273	0.623046	0.622815	0.0294296	2	0.00531481	11	0	34.5521	1.83292e-05
2	1	0	1	0	1	368.869	0.636028	0.635771	0.0465009	2	0.00541234	11	0	37.1485	2.95639e-05
2	1	0	1	0	1	371.466	0.64901	0.648798	0.0696143	2	0.00555958	11	0	39.7449	4.51656e-05
2	1	0	1	0	1	374.062	0.661992	0.661778	0.111332	2	0.00579268	11	0	42.3413	7.36773e-05
2	1	0	1	0	1	376.659	0.674974	0.674777	0.185475	2	0.00617041	11	0	44.9377	0.000125154
2	1	0	1	0	1	379.255	0.687956	0.687677	0.297203	2	0.00678685	11	0	47.5341	0.00020438
2	1	0	0	0	1	381.669	0.699964	0.69965	0.45222	2	0.00768979	11	0	49.948	0.000316396
2	1	0	1	0	1	384.22	0.687207	0.686991	0.269355	2	0.00858121	11	0	52.4995	0.000185044
2	1	0	1	0	1	386.817	0.674224	0.673982	0.153551	2	0.00911956	11	0	55.0959	0.00010349
2	1	0	1	0	1	389.413	0.661242	0.661	0.0879091	2	0.00942512	11	0	57.6923	5.81079e-05
2	1	0	1	0	1	392.01	0.64826	0.648	0.0476978	2	0.00959276	11	0	60.2887	3.09082e-05
2	1	0	1	0	1	394.606	0.635278	0.635062	0.0216325	2	0.00968029	11	0	62.8851	1.3738e-05
2	1	0	1	0	1	397.202	0.622297	0.62204	0.0081191	2	0.00972054	11	0	65.4815	5.0504e-06
2	1	0	1	0	1	399.799	0.609314	0.60907	0.00349873	2	0.00973361	11	0	68.0779	2.13097e-06
2	0	0	1	0	1	402.395	0.596332	0.596088	-0.00242657	2	0.00973109	11	0	1.3981	-1.44645e-06
2	0	0	1	0	1	404.992	0.58335	0.583122	-0.00736288	2	0.00971902	11	0	3.9945	-4.29345e-06
2	0	0	1	0	1	407.588	0.570368	0.570161	-0.00916507	2	0.00970113	11	0	6.5909	-5.22557e-06
2	0	0	1	0	1	410.184	0.557387	0.55718	-0.00830306	2	0.00967959	11	0	9.1873	-4.6263e-06
2	1	0	1	0	1	412.781	0.544404	0.544172	-0.00750243	2	0.00965591	11	0	11.7837	-4.08262e-06
2	0	0	1	0	1	415.377	0.531423	0.53121	-0.00898832	2	0.00963074	11	0	14.3801	-4.77468e-06
2	0	0	1	0	1	417.974	0.51844	0.518245	-0.0106378	2	0.00960424	11	0	16.9765	-5.51297e-06
2	0	0	1	0	1	420.57	0.505458	0.505169	-0.0121202	2	0.00957678	11	0	19.5729	-6.12277e-06
2	0	0	1	0	1	423.166	0.492476	0.492248	-0.0127953	2	0.00954851	11	0	22.1693	-6.29848e-06
2	0	0	1	0	1	425.763	0.479494	0.479252	-0.0125823	2	0.00951937	11	0	24.7657	-6.03007e-06
2	0	0	1	0	1	428.359	0.466513	0.466266	-0.0120751	2	0.0094893	11	0	27.3621	-5.63019e-06
2	0	0	1	0	1	430.956	0.45353	0.453293	-0.011464	2	0.00945801	11	0	29.9585	-5.19656e-06
2	1	0	1	0	0	433.409	0.458774	0.458549	0.0134935	3	0.00946835	11	0	1.6977	6.18745e-06
2	1	0	1	0	0	436.006	0.471756	0.471526	0.0114729	3	0.00949925	11	0	4.2941	5.40976e-06
2	0	0	1	0	0	438.602	0.484738	0.484549	0.0102226	3	0.00953071	11	0	6.8905	4.95335e-06
2	1	0	1	0	0	441.199	0.49772	0.497467	0.0104043	3	0.0095621	11	0	9.4869	5.17579e-06
2	1	0	1	0	0	443.795	0.510702	0.510416	0.0131573	3	0.00959327	11	0	12.0833	6.71571e-06
2	1	0	1	0	0	446.391	0.523684	0.523484	0.0137335	3	0.00962441	11	0	14.6797	7.18927e-06
2	1	0	1	0	0	448.988	0.536666	0.536412	0.0123505	3	0.00965582	11	0	17.2761	6.62496e-06
2	0	0	1	0	0	451.584	0.549648	0.549418	0.0105989	3	0.00968756	11	0	19.8725	5.82324e-06
2	1	0	1	0	0	454.181	0.56263	0.56238	0.011256	3	0.00972029	11	0	22.4689	6.33014e-06
2	1	0	1	0	0	456.777	0.575612	0.575392	0.0129566	3	0.00975528	11	0	25.0653	7.4551e-06
2	1	0	1	0	0	459.373	0.588594	0.588328	0.0154671	3	0.00979387	11	0	27.6617	9.09971e-06
2	1	0	1	0	0	461.97	0.601576	0.601365	0.0202231	3	0.00983864	11	0	30.2581	1.21615e-05
2	1	0	1	0	0	464.566	0.614558	0.614362	0.0262869	3	0.00989427	11	0	32.8545	1.61497e-05
2	1	0	1	0	0	467.163	0.62754	0.62733	0.0358949	3	0.00996968	11	0	35.4509	2.2518e-05
2	1	0	1	0	0	469.759	0.640522	0.640271	0.0519976	3	0.0100786	11	0	38.0473	3.32926e-05
2	1	0	1	0	0	472.355	0.653504	0.653268	0.0807016	3	0.0102459	11	0	40.6437	5.27198e-05
2	1	0	1	0	0	474.952	0.666486	0.666309	0.130881	3	0.0105145	11	0	43.2401	8.72071e-05
2	1	0	1	0	0	477.548	0.679468	0.679268	0.21449	3	0.010955	11	0	45.8365	0.000145696
2	1	0	1	0	0	480.145	0.69245	0.692182	0.344335	3	0.0116713	11	0	48.4329	0.000238342
2	1	0	1	0	0	482.514	0.695695	0.695446	0.368025	3	0.0126155	11	0	50.8018	0.000255941
2	1	0	1	0	0	485.11	0.682713	0.682523	0.220749	3	0.0133667	11	0	53.3982	0.000150666
2	1	0	1	0	0	487.706	0.669731	0.669505	0.124334	3	0.0138076	11	0	55.9946	8.32423e-05
2	1	0	1	0	0	490.303	0.656749	0.656492	0.0670186	3	0.0140534	11	0	58.591	4.39972e-05
2	1	0	1	0	0	492.899	0.643767	0.643588	0.0343421	3	0.0141855	11	0	61.1874	2.21021e-05
2	1	0	1	0	0	495.496	0.630785	0.630539	0.0160414	3	0.0142519	11	0	63.7838	1.01147e-05
2	1	0	1	0	0	498.092	0.617803	0.617541	0.00746586	3	0.0142796	11	0	66.3802	4.61048e-06
2	0	0	1	0	0	500.688	0.604821	0.604619	-0.00013728	3	0.0142852	11	0	0.0999	-8.30018e-08
2	0	0	1	0	0	503.285	0.591839	0.591588	-0.00587671	3	0.0142783	11	0	2.3967	-3.47659e-06
2	1	0	1	0	0	505.881	0.578857	0.578588	-0.00631206	3	0.0142638	11	0	4.9931	-3.65208e-06
2	1	0	1	0	0	508.478	0.565875	0.565637	-0.00648891	3	0.0142443	11	0	7.5895	-3.67037e-06
2	0	0	1	0	0	511.074	0.552893	0.552612	-0.00841742	3	0.0142218	11	0	10.1859	-4.65156e-06
2	0	0	1	0	0	513.67	0.539911	0.539671	-0.0109981	3	0.0141975	11	0	12.7823	-5.93536e-06
2	0	0	1	0	0	516.267	0.526929	0.526739	-0.0116099	3	0.0141718	11	0	15.3787	-6.11541e-06
2	0	0	1	0	0	518.863	0.513947	0.513638	-0.0110665	3	0.014145	11	0	17.9751	-5.68418e-06
2	1	0	1	0	0	521.46	0.500965	0.500678	-0.0100441	3	0.0141172	11	0	20.5715	-5.02883e-06
2	1	0	1	0	0	524.056	0.487983	0.487769	-0.00956489	3	0.0140886	11	0	23.1679	-4.66546e-06
2	0	0	1	0	0	526.652	0.475001	0.474781	-0.00947948	3	0.014059	11	0	25.7643	-4.50068e-06
2	0	0	1	0	0	529.249	0.462019	0.461782	-0.0100629	3	0.0140285	11	0	28.3607	-4.64687e-06
2	1	0	1	0	1	531.703	0.450285	0.450051	0.00737373	4	0.0139996	11	0	0.000000000000000E+000	3.31856e-06
2	1	0	1	0	1	534.299	0.463267	0.462999	0.0134648	4	0.0140289	11	0	2.5964	6.2342e-06
2	1	0	1	0	1	536.895	0.476249	0.476058	0.0137986	4	0.0140599	11	0	5.1928	6.56894e-06
2	1	0	1	0	1	539.492	0.489231	0.489023	0.0138017	4	0.0140911	11	0	7.7892	6.74936e-06
2	1	0	1	0	1	542.088	0.502213	0.501923	0.0137343	4	0.0141223	11	0	10.3856	6.89358e-06
2	1	0	1	0	1	544.685	0.515195	0.514965	0.0136408	4	0.0141534	11	0	12.982	7.02456e-06
2	1	0	1	0	1	547.281	0.528177	0.527933	0.013645	4	0.0141846	11	0	15.5784	7.20364e-06
2	1	0	1	0	1	549.877	0.541159	0.540925	0.013214	4	0.014216	11	0	18.1748	7.14781e-06
2	1	0	1	0	1	552.474	0.554141	0.553898	0.012033	4	0.0142479	11	0	20.7712	6.66504e-06
2	1	0	1	0	1	555.07	0.567123	0.56697	0.0116528	4	0.0142809	11	0	23.3676	6.60677e-06
2	0	0	1	0	1	557.667	0.580105	0.579884	0.0124623	4	0.0143164	11	0	25.964	7.22669e-06
2	1	0	1	0	1	560.263	0.593087	0.592831	0.0147197	4	0.0143562	11	0	28.5604	8.72631e-06
2	1	0	1	0	1	562.859	0.606069	0.605848	0.0185705	4	0.0144035	11	0	31.1568	1.12509e-05
2	1	0	1	0	1	565.456	0.619051	0.618847	0.025803	4	0.0144642	11	0	33.7532	1.59681e-05
2	1	0	1	0	1	568.052	0.632033	0.631814	0.0395535	4	0.014548	11	0	36.3496	2.49904e-05
2	1	0	1	0	1	570.649	0.645015	0.64481	0.0602237	4	0.0146718	11	0	38.946	3.88328e-05
2	1	0	1	0	1	573.245	0.657997	0.657763	0.0931049	4	0.0148652	11	0	41.5424	6.1241e-05
2	1	0	1	0	1	575.841	0.670979	0.670718	0.152244	4	0.0151793	11	0	44.1388	0.000102113
2	1	0	1	0	1	578.438	0.683961	0.683769	0.251166	4	0.0156968	11	0	46.7352	0.000171739
2	1	0	1	0	1	581.034	0.696943	0.696702	0.40281	4	0.0165351	11	0	49.3316	0.000280639
2	1	0	0	0	1	583.403	0.691201	0.690962	0.306064	4	0.0174397	11	0	51.7006	0.000211479
2	1	0	0	0	1	586	0.678219	0.678011	0.180619	4	0.0180585	11	0	54.297	0.000122461
2	1	0	0	0	1	588.596	0.665237	0.665007	0.102371	4	0.0184127	11	0	56.8934	6.80772e-05
2	1	0	0	0	1	591.192	0.652255	0.652038	0.0555786	4	0.0186091	11	0	59.4898	3.62394e-05
2	1	0	0	0	1	593.789	0.639273	0.639025	0.0258929	4	0.0187127	11	0	62.0862	1.65462e-05
2	1	0	0	0	1	596.385	0.626291	0.626055	0.0108002	4	0.0187615	11	0	64.6826	6.76152e-06
2	1	0	0	0	1	598.982	0.613309	0.613068	0.00399414	4	0.0187796	11	0	67.279	2.44868e-06
2	1	0	0	0	1	601.578	0.600327	0.600101	-0.000440622	4	0.0187799	11	0	0.3995	-2.64418e-07
2	1	0	0	0	1	604.174	0.587345	0.587103	-0.00526494	4	0.0187696	11	0	2.9959	-3.09106e-06
2	0	0	0	0	1	606.771	0.574363	0.574065	-0.00895217	4	0.0187528	11	0	5.5923	-5.13913e-06
2	0	0	0	0	1	609.367	0.561381	0.56117	-0.00957292	4	0.018732	11	0	8.1887	-5.37203e-06
2	0	0	0	0	1	611.964	0.548399	0.548214	-0.00814257	4	0.0187089	11	0	10.7851	-4.46387e-06
2	1	0	0	0	1	614.56	0.535417	0.535222	-0.00845379	4	0.0186843	11	0	13.3815	-4.52466e-06
2	1	0	0	0	1	617.156	0.522435	0.522208	-0.0090911	4	0.0186582	11	0	15.9779	-4.74745e-06
2	0	0	0	0	1	619.753	0.509453	0.509269	-0.0104201	4	0.018631	11	0	18.5743	-5.30665e-06
2	0	0	0	0	1	622.349	0.496471	0.496226	-0.0122177	4	0.0186029	11	0	21.1707	-6.06272e-06
2	0	0	0	0	1	624.946	0.483489	0.483266	-0.0124709	4	0.0185741	11	0	23.7671	-6.02678e-06
2	0	0	0	0	1	627.542	0.470507	0.47027	-0.0100547	4	0.0185445	11	0	26.3635	-4.72844e-06
2	1	0	0	0	1	630.138	0.457525	0.45727	-0.00999458	4	0.0185138	11	0	28.9599	-4.57022e-06
2	1	0	0	0	0	632.592	0.454779	0.454545	0.0128127	5	0.0185054	11	0	0.8988	5.82395e-06
2	1	0	0	0	0	635.189	0.467761	0.467525	0.0104933	5	0.018536	11	0	3.4952	4.90589e-06
2	1	0	0	0	0	637.785	0.480743	0.480558	0.0109236	5	0.0185671	11	0	6.0916	5.24942e-06
2	1	0	0	0	0	640.381	0.493725	0.493504	0.0137254	5	0.0185983	11	0	8.688	6.77354e-06
2	1	0	0	0	0	642.978	0.506707	0.506447	0.0115515	5	0.0186295	11	0	11.2844	5.85022e-06
2	0	0	0	0	0	645.574	0.519689	0.519431	0.0104698	5	0.0186604	11	0	13.8808	5.43832e-06
2	1	0	0	0	0	648.171	0.532671	0.532493	0.0137573	5	0.0186914	11	0	16.4772	7.32569e-06
2	1	0	0	0	0	650.767	0.545653	0.545449	0.0110736	5	0.0187227	11	0	19.0736	6.04006e-06
2	1	0	0	0	0	653.363	0.558635	0.558395	0.0121333	5	0.0187546	11	0	21.67	6.77516e-06
2	1	0	0	0	0	655.96	0.571617	0.571386	0.0152474	5	0.0187884	11	0	24.2664	8.71216e-06
2	1	0	0	0	0	658.556	0.584599	0.584368	0.012911	5	0.0188248	11	0	26.8628	7.54477e-06
2	1	0	0	0	0	661.153	0.597581	0.597348	0.0183445	5	0.0188664	11	0	29.4592	1.0958e-05
2	1	0	0	0	0	663.749	0.610563	0.610368	0.0234312	5	0.0189171	11	0	32.0556	1.43017e-05
2	1	0	0	0	0	666.345	0.623545	0.623352	0.0281809	5	0.0189836	11	0	34.652	1.75666e-05
2	1	0	0	0	0	668.942	0.636527	0.6363	0.0441188	5	0.0190772	11	0	37.2484	2.80728e-05
2	1	0	0	0	0	671.538	0.649509	0.649313	0.0693424	5	0.019219	11	0	39.8448	4.5025e-05
2	1	0	0	0	0	674.135	0.662491	0.662299	0.108942	5	0.0194447	11	0	42.4412	7.2152e-05
2	1	0	0	0	0	676.731	0.675473	0.675246	0.179063	5	0.0198142	11	0	45.0376	0.000120911
2	1	0	0	0	0	679.327	0.688455	0.688249	0.295545	5	0.0204203	11	0	47.634	0.000203408
2	1	0	1	0	0	681.696	0.69969	0.699455	0.427852	5	0.021288	11	0	50.0029	0.000299263
2	1	0	1	0	0	684.293	0.686708	0.686535	0.249853	5	0.0221457	11	0	52.5993	0.000171533
2	1	0	1	0	0	686.889	0.673726	0.673528	0.145375	5	0.0226497	11	0	55.1957	9.7914e-05
2	1	0	1	0	0	689.485	0.660744	0.660552	0.0836257	5	0.0229394	11	0	57.7921	5.52391e-05
2	1	0	1	0	0	692.082	0.647762	0.647552	0.042087	5	0.0230975	11	0	60.3885	2.72535e-05
2	1	0	1	0	0	694.678	0.63478	0.634526	0.0206532	5	0.0231776	11	0	62.9849	1.3105e-05
2	1	0	1	0	0	697.275	0.621798	0.621553	0.00970492	5	0.0232136	11	0	65.5813	6.03213e-06
2	0	0	1	0	0	699.871	0.608816	0.608593	-0.00114982	5	0.0232239	11	0	0.0998	-6.99769e-07
2	0	0	1	0	0	702.467	0.595834	0.595612	-0.00356801	5	0.0232192	11	0	1.5978	-2.12515e-06
2	1	0	1	0	0	705.064	0.582852	0.582599	-0.00445494	5	0.0232065	11	0	4.1942	-2.59544e-06
2	0	0	1	0	0	707.66	0.56987	0.569655	-0.00968352	5	0.023188	11	0	6.7906	-5.51626e-06
2	1	0	1	0	0	710.257	0.556888	0.556644	-0.0072218	5	0.0231664	11	0	9.387	-4.01997e-06
2	0	0	1	0	0	712.853	0.543906	0.543658	-0.0105764	5	0.0231426	11	0	11.9834	-5.74996e-06
2	0	0	1	0	0	715.449	0.530924	0.53069	-0.0091593	5	0.0231172	11	0	14.5798	-4.86075e-06
2	0	0	1	0	0	718.046	0.517942	0.517664	-0.0099315	5	0.023091	11	0	17.1762	-5.14118e-06
2	0	0	1	0	0	720.642	0.50496	0.504764	-0.0118577	5	0.0230634	11	0	19.7726	-5.98532e-06
2	1	0	1	0	0	723.239	0.491978	0.491775	-0.00889943	5	0.0230352	11	0	22.369	-4.37651e-06
2	0	0	1	0	0	725.835	0.478996	0.478806	-0.0127335	5	0.023006	11	0	24.9654	-6.09687e-06
2	0	0	1	0	0	728.431	0.466014	0.465738	-0.0115315	5	0.0229757	11	0	27.5618	-5.37067e-06
2	0	0	1	0	0	731.028	0.453032	0.452812	-0.0115726	5	0.0229447	11	0	30.1582	-5.24019e-06
2	0	0	1	0	1	733.482	0.459273	0.459006	0.00955168	6	0.0229572	11	0	1.7975	4.38428e-06
2	1	0	1	0	1	736.078	0.472255	0.47203	0.01361	6	0.0229879	11	0	4.3939	6.42435e-06
2	1	0	1	0	1	738.674	0.485237	0.484958	0.0107827	6	0.0230189	11	0	6.9903	5.22917e-06
2	1	0	1	0	1	741.271	0.498219	0.497995	0.0122012	6	0.0230498	11	0	9.5867	6.07613e-06
2	1	0	1	0	1	743.867	0.511201	0.510937	0.0123726	6	0.0230808	11	0	12.1831	6.32162e-06
2	0	0	1	0	1	746.464	0.524183	0.523941	0.0105799	6	0.0231114	11	0	14.7795	5.54324e-06
2	1	0	1	0	1	749.06	0.537165	0.536902	0.0133783	6	0.0231424	11	0	17.3759	7.18285e-06
2	0	0	1	0	1	751.656	0.550147	0.549935	0.0106757	6	0.0231736	11	0	19.9723	5.87092e-06
2	1	0	1	0	1	754.253	0.563129	0.562903	0.0143142	6	0.0232061	11	0	22.5687	8.05753e-06
2	1	0	1	0	1	756.849	0.576111	0.575877	0.0118809	6	0.0232402	11	0	25.1651	6.84197e-06
2	1	0	1	0	1	759.446	0.589093	0.588824	0.0164377	6	0.0232777	11	0	27.7615	9.67891e-06
2	1	0	1	0	1	762.042	0.602075	0.601852	0.0180302	6	0.0233217	11	0	30.3579	1.08515e-05
2	1	0	1	0	1	764.638	0.615057	0.614797	0.0229024	6	0.0233761	11	0	32.9543	1.40803e-05
2	1	0	1	0	1	767.235	0.628039	0.627831	0.0348948	6	0.0234495	11	0	35.5507	2.1908e-05
2	1	0	1	0	1	769.831	0.641021	0.640836	0.0482503	6	0.0235555	11	0	38.1471	3.09205e-05
2	1	0	1	0	1	772.428	0.654003	0.653766	0.0806204	6	0.0237196	11	0	40.7435	5.27069e-05
2	1	0	1	0	1	775.024	0.666985	0.666795	0.12797	6	0.0239837	11	0	43.3399	8.53299e-05
2	1	0	1	0	1	777.62	0.679966	0.679708	0.211242	6	0.0244182	11	0	45.9363	0.000143583
2	1	0	1	0	1	780.217	0.692949	0.69274	0.343405	6	0.0251295	11	0	48.5327	0.00023789
2	1	0	1	0	1	782.586	0.695196	0.694983	0.354417	6	0.0260555	11	0	50.9017	0.000246314
2	1	0	1	0	1	785.182	0.682213	0.682012	0.209497	6	0.0267693	11	0	53.4981	0.000142879
2	1	0	1	0	1	787.779	0.669231	0.669017	0.119766	6	0.0271809	11	0	56.0945	8.01256e-05
2	1	0	1	0	1	790.375	0.65625	0.65602	0.0664369	6	0.0274123	11	0	58.6909	4.35839e-05
2	1	0	1	0	1	792.971	0.643268	0.643081	0.035046	6	0.0275359	11	0	61.2873	2.25374e-05
2	1	0	1	0	1	795.568	0.630286	0.630049	0.0154978	6	0.0275971	11	0	63.8837	9.76438e-06
2	0	0	1	0	1	798.164	0.617303	0.617094	0.00328635	6	0.027622	11	0	66.4801	2.02799e-06
2	0	0	1	0	1	800.761	0.604321	0.604063	-0.00209176	6	0.0276259	11	0	0.000000000000000E+000	-1.26356e-06
2	1	0	1	0	1	803.357	0.591339	0.591135	-0.00401142	6	0.0276177	11	0	2.3967	-2.37129e-06
2	1	0	1	0	1	805.953	0.578358	0.578085	-0.00498201	6	0.0276025	11	0	4.9931	-2.88003e-06
2	1	0	1	0	1	808.55	0.565376	0.565177	-0.00767463	6	0.0275828	11	0	7.5895	-4.33753e-06
2	0	0	1	0	1	811.146	0.552393	0.552145	-0.010724	6	0.0275601	11	0	10.1859	-5.92121e-06
2	0	0	1	0	1	813.743	0.539411	0.539173	-0.0104817	6	0.0275356	11	0	12.7823	-5.65145e-06
2	1	0	1	0	1	816.339	0.526429	0.526222	-0.00813409	6	0.0275101	11	0	15.3787	-4.28034e-06
2	0	0	1	0	1	818.935	0.513448	0.513155	-0.0106337	6	0.0274837	11	0	17.9751	-5.45674e-06
2	0	0	1	0	1	821.532	0.500466	0.500236	-0.0125614	6	0.0274559	11	0	20.5715	-6.28365e-06
2	0	0	1	0	1	824.128	0.487484	0.487292	-0.0105622	6	0.0274272	11	0	23.1679	-5.14687e-06
2	1	0	1	0	1	826.725	0.474502	0.474264	-0.0100074	6	0.0273979	11	0	25.7643	-4.74614e-06
2	0	0	1	0	1	829.321	0.461519	0.461271	-0.0134664	6	0.0273675	11	0	28.3607	-6.21168e-06
2	0	0	1	0	0	831.775	0.450785	0.450624	0.00908619	7	0.0273405	11	0	0.0999	4.09446e-06
2	1	0	1	0	0	834.371	0.463767	0.463474	0.0135841	7	0.02737	11	0	2.6963	6.29589e-06
2	1	0	1	0	0	836.968	0.476749	0.476506	0.0118086	7	0.027401	11	0	5.2927	5.62685e-06
2	0	0	1	0	0	839.564	0.489731	0.489532	0.0098302	7	0.0274319	11	0	7.8891	4.81219e-06
2	1	0	1	0	0	842.16	0.502713	0.502482	0.0134936	7	0.0274629	11	0	10.4855	6.78028e-06
2	1	0	1	0	0	844.757	0.515695	0.515479	0.0130158	7	0.0274937	11	0	13.0819	6.70938e-06
2	1	0	1	0	0	847.353	0.528677	0.528474	0.0105146	7	0.0275243	11	0	15.6783	5.55671e-06
2	1	0	1	0	0	849.95	0.541659	0.541395	0.0102216	7	0.0275554	11	0	18.2747	5.5339e-06
2	1	0	1	0	0	852.546	0.554641	0.554423	0.0104891	7	0.0275869	11	0	20.8711	5.81537e-06
2	1	0	1	0	0	855.142	0.567623	0.567451	0.0113244	7	0.0276196	11	0	23.4675	6.42604e-06
2	1	0	1	0	0	857.739	0.580605	0.580354	0.0137929	7	0.0276545	11	0	26.0639	8.00478e-06
2	1	0	1	0	0	860.335	0.593587	0.593389	0.0176654	7	0.0276939	11	0	28.6603	1.04824e-05
2	1	0	1	0	0	862.932	0.606569	0.606351	0.0212578	7	0.0277408	11	0	31.2567	1.28897e-05
2	1	0	1	0	0	865.528	0.619551	0.619312	0.0252128	7	0.0278002	11	0	33.8531	1.56146e-05
2	1	0	1	0	0	868.124	0.632533	0.632307	0.0365753	7	0.027882	11	0	36.4495	2.31268e-05
2	1	0	1	0	0	870.721	0.645515	0.64533	0.0587903	7	0.0280034	11	0	39.0459	3.79391e-05
2	1	0	1	0	0	873.317	0.658497	0.658303	0.0932579	7	0.0281943	11	0	41.6423	6.13919e-05
2	1	0	1	0	0	875.914	0.671479	0.671262	0.150794	7	0.028506	11	0	44.2387	0.000101222
2	1	0	1	0	0	878.51	0.684461	0.684263	0.250296	7	0.0290199	11	0	46.8351	0.000171268
2	1	0	1	0	0	881.106	0.697443	0.697156	0.404215	7	0.0298563	11	0	49.4315	0.000281801
2	1	0	0	0	0	883.475	0.690702	0.690456	0.295325	7	0.0307329	11	0	51.8004	0.000203909
2	1	0	0	0	0	886.072	0.67772	0.677491	0.171052	7	0.031323	11	0	54.3968	0.000115886
2	1	0	0	0	0	888.668	0.664738	0.664556	0.0945939	7	0.0316622	11	0	56.9932	6.2863e-05
2	1	0	0	0	0	891.265	0.651756	0.651563	0.0527204	7	0.0318478	11	0	59.5896	3.43507e-05
2	1	0	0	0	0	893.861	0.638774	0.638553	0.026179	7	0.0319439	11	0	62.186	1.67167e-05
2	0	0	0	0	0	896.457	0.625792	0.625617	0.00874028	7	0.0319886	11	0	64.7824	5.46807e-06
2	1	0	0	0	0	899.054	0.61281	0.612561	0.00253925	7	0.032004	11	0	67.3788	1.55544e-06
2	1	0	0	0	0	901.65	0.599828	0.599572	-0.000880706	7	0.0320025	11	0	0.8987	-5.28047e-07
2	0	0	0	0	0	904.247	0.586846	0.58664	-0.00665744	7	0.0319913	11	0	3.4951	-3.90552e-06
2	0	0	0	0	0	906.843	0.573864	0.573631	-0.00788901	7	0.0319741	11	0	6.0915	-4.52539e-06
2	1	0	0	0	0	909.439	0.560882	0.560664	-0.00680494	7	0.0319535	11	0	8.6879	-3.81528e-06
2	0	0	0	0	0	912.036	0.5479	0.547631	-0.00938572	7	0.0319302	11	0	11.2843	-5.13991e-06
2	0	0	0	0	0	914.632	0.534918	0.534684	-0.0113826	7	0.0319053	11	0	13.8807	-6.08612e-06
2	0	0	0	0	0	917.229	0.521936	0.52167	-0.00950308	7	0.0318793	11	0	16.4771	-4.95747e-06
2	1	0	0	0	0	919.825	0.508954	0.508749	-0.00891787	7	0.0318523	11	0	19.0735	-4.53696e-06
2	0	0	0	0	0	922.421	0.495972	0.495706	-0.0118411	7	0.0318243	11	0	21.6699	-5.8697e-06
2	0	0	0	0	0	925.018	0.48299	0.482764	-0.0119447	7	0.0317954	11	0	24.2663	-5.76647e-06
2	1	0	0	0	0	927.614	0.470008	0.469806	-0.00955156	7	0.0317659	11	0	26.8627	-4.48738e-06
2	0	0	0	0	0	930.211	0.457026	0.456795	-0.0133349	7	0.0317352	11	0	29.4591	-6.09133e-06
2	1	0	1	0	1	932.664	0.455279	0.455057	0.0103853	8	0.0317287	11	0	0.9987	4.72589e-06
2	1	0	0	0	1	935.261	0.46826	0.468058	0.0138408	8	0.0317593	11	0	3.595	6.4783e-06
2	1	0	1	0	1	937.857	0.481243	0.480983	0.0111399	8	0.0317906	11	0	6.1915	5.35809e-06
2	0	0	1	0	1	940.454	0.494225	0.494032	0.0110988	8	0.0318217	11	0	8.7879	5.48314e-06
2	1	0	0	0	1	943.05	0.507206	0.506958	0.0135453	8	0.0318526	11	0	11.3842	6.8669e-06
2	1	0	1	0	1	945.646	0.520189	0.519977	0.0113388	8	0.0318834	11	0	13.9807	5.89592e-06
2	0	0	1	0	1	948.243	0.533171	0.532894	0.0104545	8	0.0319142	11	0	16.5771	5.57114e-06
2	1	0	1	0	1	950.839	0.546153	0.54598	0.0135424	8	0.0319454	11	0	19.1735	7.3939e-06
2	1	0	1	0	1	953.436	0.559135	0.558873	0.0121031	8	0.0319771	11	0	21.7699	6.7641e-06
2	1	0	0	0	1	956.032	0.572116	0.57194	0.0113855	8	0.0320104	11	0	24.3662	6.5118e-06
2	1	0	0	0	1	958.628	0.585098	0.584881	0.0157199	8	0.0320466	11	0	26.9626	9.19428e-06
2	1	0	1	0	1	961.225	0.598081	0.59786	0.0181718	8	0.0320879	11	0	29.5591	1.08642e-05
2	1	0	1	0	1	963.821	0.611063	0.610858	0.0197919	8	0.032138	11	0	32.1555	1.209e-05
2	1	0	1	0	1	966.418	0.624045	0.623809	0.0297705	8	0.0322034	11	0	34.7519	1.85711e-05
2	1	0	0	0	1	969.014	0.637026	0.636812	0.0447679	8	0.0322963	11	0	37.3482	2.85087e-05
2	1	0	0	0	1	971.61	0.650008	0.649813	0.0652922	8	0.0324367	11	0	39.9446	4.24278e-05
2	1	0	1	0	1	974.207	0.662991	0.662808	0.108788	8	0.0326609	11	0	42.5411	7.21057e-05
2	1	0	1	0	1	976.803	0.675973	0.675759	0.182209	8	0.0330295	11	0	45.1375	0.000123129
2	1	0	1	0	1	979.4	0.688955	0.688725	0.294842	8	0.0336368	11	0	47.7339	0.000203065
2	1	0	1	0	1	981.769	0.69919	0.698981	0.410213	8	0.0345051	11	0	50.1028	0.000286731
2	1	0	1	0	1	984.365	0.686208	0.685948	0.242501	8	0.0353343	11	0	52.6992	0.000166343
2	1	0	1	0	1	986.961	0.673226	0.672994	0.140606	8	0.0358175	11	0	55.2956	9.46268e-05
2	1	0	1	0	1	989.558	0.660244	0.65998	0.076133	8	0.0360928	11	0	57.892	5.02463e-05
2	1	0	1	0	1	992.154	0.647262	0.64707	0.0424313	8	0.0362424	11	0	60.4884	2.74561e-05
2	1	0	1	0	1	994.751	0.63428	0.634088	0.0187126	8	0.0363178	11	0	63.0848	1.18655e-05
2	0	0	1	0	1	997.347	0.621298	0.621022	0.0055336	8	0.0363505	11	0	65.6812	3.43649e-06
2	0	0	1	0	1	999.943	0.608316	0.60813	-0.000213999	8	0.036359	11	0	0.000000000000000E+000	-1.30139e-07
2	1	0	1	0	1	1002.54	0.595334	0.595138	-0.00206888	8	0.0363538	11	0	1.8974	-1.23127e-06
2	0	0	1	0	1	1005.14	0.582352	0.582113	-0.00708551	8	0.0363403	11	0	4.4938	-4.12457e-06
2	0	0	1	0	1	1007.73	0.56937	0.569175	-0.00891344	8	0.0363215	11	0	7.0902	-5.07331e-06
2	1	0	1	0	1	1010.33	0.556388	0.556174	-0.00684173	8	0.0362997	11	0	9.6866	-3.80519e-06
2	0	0	1	0	1	1012.93	0.543406	0.543178	-0.0101862	8	0.0362762	11	0	12.283	-5.5329e-06
2	0	0	1	0	1	1015.52	0.530424	0.530217	-0.010336	8	0.0362509	11	0	14.8794	-5.48032e-06
2	1	0	1	0	1	1018.12	0.517442	0.517234	-0.00833091	8	0.0362246	11	0	17.4758	-4.30903e-06
2	0	0	1	0	1	1020.71	0.50446	0.504222	-0.0119469	8	0.0361972	11	0	20.0722	-6.02391e-06
2	0	0	1	0	1	1023.31	0.491478	0.491272	-0.0111407	8	0.036169	11	0	22.6686	-5.47313e-06
2	0	0	1	0	1	1025.91	0.478496	0.478266	-0.010515	8	0.0361402	11	0	25.265	-5.02896e-06
2	0	0	1	0	1	1028.5	0.465514	0.465243	-0.0133151	8	0.0361101	11	0	27.8614	-6.19474e-06
2	0	0	1	0	1	1031.1	0.452532	0.452307	-0.0133226	8	0.0360787	11	0	30.4578	-6.0259e-06
2	1	0	1	0	0	1033.55	0.459772	0.459513	0.0121833	9	0.0360937	11	0	1.8974	5.59841e-06
2	1	0	1	0	0	1036.15	0.472754	0.472542	0.0136611	9	0.0361247	11	0	4.4938	6.45544e-06
2	1	0	1	0	0	1038.75	0.485736	0.485482	0.0118745	9	0.0361557	11	0	7.0902	5.76484e-06
2	1	0	1	0	0	1041.34	0.498718	0.498448	0.0100195	9	0.0361864	11	0	9.6866	4.99421e-06
2	1	0	1	0	0	1043.94	0.5117	0.511435	0.013008	9	0.0362172	11	0	12.283	6.65273e-06
2	1	0	1	0	0	1046.54	0.524682	0.52445	0.0124968	9	0.0362481	11	0	14.8794	6.55398e-06
2	0	0	1	0	0	1049.13	0.537664	0.537379	0.00987176	9	0.0362788	11	0	17.4758	5.30488e-06
2	1	0	1	0	0	1051.73	0.550646	0.550412	0.0138645	9	0.03631	11	0	20.0722	7.63121e-06
2	1	0	1	0	0	1054.33	0.563628	0.563414	0.0123693	9	0.0363424	11	0	22.6686	6.96905e-06
2	1	0	1	0	0	1056.92	0.57661	0.576387	0.0125351	9	0.0363763	11	0	25.265	7.22509e-06
2	1	0	1	0	0	1059.52	0.589592	0.589376	0.0168117	9	0.036414	11	0	27.8614	9.90839e-06
2	1	0	1	0	0	1062.11	0.602574	0.602341	0.0164985	9	0.0364572	11	0	30.4578	9.9377e-06
2	1	0	1	0	0	1064.71	0.615556	0.615363	0.0248302	9	0.0365112	11	0	33.0542	1.52796e-05
2	1	0	1	0	0	1067.31	0.628538	0.62829	0.0328441	9	0.036584	11	0	35.6506	2.06356e-05
2	1	0	1	0	0	1069.9	0.64152	0.641311	0.048955	9	0.0366893	11	0	38.247	3.13954e-05
2	1	0	1	0	0	1072.5	0.654502	0.654264	0.079827	9	0.0368525	11	0	40.8434	5.2228e-05
2	1	0	1	0	0	1075.1	0.667484	0.667271	0.127808	9	0.0371167	11	0	43.4398	8.52823e-05
2	1	0	1	0	0	1077.69	0.680466	0.680239	0.215427	9	0.037554	11	0	46.0362	0.000146542
2	1	0	1	0	0	1080.29	0.693448	0.693221	0.346938	9	0.0382703	11	0	48.6326	0.000240505
2	1	0	1	0	0	1082.66	0.694697	0.694454	0.343997	9	0.0391893	11	0	51.0015	0.00023889
2	1	0	1	0	0	1085.25	0.681715	0.681492	0.200904	9	0.0398824	11	0	53.5979	0.000136915
2	1	0	1	0	0	1087.85	0.668733	0.668545	0.113523	9	0.0402861	11	0	56.1943	7.58952e-05
2	1	0	1	0	0	1090.45	0.655751	0.655509	0.0615025	9	0.0405091	11	0	58.7907	4.03154e-05
2	1	0	1	0	0	1093.04	0.642769	0.642585	0.0319748	9	0.0406266	11	0	61.3871	2.05465e-05
2	1	0	1	0	0	1095.64	0.629787	0.629513	0.0144854	9	0.0406837	11	0	63.9835	9.11872e-06
2	1	0	1	0	0	1098.24	0.616805	0.616588	0.00497787	9	0.0407063	11	0	66.5799	3.0693e-06
2	1	0	1	0	0	1100.83	0.603823	0.603592	-2.75335e-05	9	0.040709	11	0	0.0998	-1.6619e-08
2	1	0	1	0	0	1103.43	0.590841	0.590616	-0.00308615	9	0.0407	11	0	2.6962	-1.82273e-06
2	1	0	1	0	0	1106.03	0.577859	0.577598	-0.00547658	9	0.040684	11	0	5.2926	-3.16326e-06
2	0	0	1	0	0	1108.62	0.564877	0.56463	-0.00828681	9	0.040664	11	0	7.889	-4.67898e-06
2	0	0	1	0	0	1111.22	0.551895	0.551645	-0.010783	9	0.0406414	11	0	10.4854	-5.94841e-06
2	0	0	1	0	0	1113.81	0.538913	0.538713	-0.00963178	9	0.040617	11	0	13.0818	-5.18876e-06
2	1	0	1	0	0	1116.41	0.525931	0.525672	-0.00813891	9	0.0405915	11	0	15.6782	-4.27839e-06
2	0	0	1	0	0	1119.01	0.512949	0.512732	-0.0117368	9	0.0405649	11	0	18.2746	-6.01785e-06
2	0	0	1	0	0	1121.6	0.499967	0.499724	-0.0117519	9	0.0405375	11	0	20.871	-5.87272e-06
2	0	0	1	0	0	1124.2	0.486985	0.486761	-0.00919562	9	0.0405092	11	0	23.4674	-4.47607e-06
2	0	0	1	0	0	1126.8	0.474003	0.47371	-0.0113224	9	0.04048	11	0	26.0638	-5.36351e-06
2	0	0	1	0	0	1129.39	0.461021	0.460751	-0.0137331	9	0.0404495	11	0	28.6602	-6.32756e-06
2	1	0	1	0	1	1131.85	0.451284	0.451052	0.0113584	10	0.0404251	11	0	0.1997	5.12324e-06
2	1	0	1	0	1	1134.44	0.464266	0.463987	0.0121146	10	0.040455	11	0	2.7961	5.62102e-06
2	0	0	1	0	1	1137.04	0.477248	0.477011	0.0101503	10	0.0404858	11	0	5.3925	4.8418e-06
2	1	0	1	0	1	1139.64	0.49023	0.490017	0.0129833	10	0.0405168	11	0	7.9889	6.36203e-06
2	1	0	1	0	1	1142.23	0.503212	0.502917	0.0125468	10	0.0405478	11	0	10.5853	6.31e-06
2	0	0	1	0	1	1144.83	0.516193	0.515968	0.00978173	10	0.0405786	11	0	13.1817	5.04706e-06
2	1	0	1	0	1	1147.43	0.529175	0.528965	0.0134493	10	0.0406092	11	0	15.7781	7.11419e-06
2	1	0	1	0	1	1150.02	0.542158	0.541927	0.0109714	10	0.0406403	11	0	18.3745	5.9457e-06
2	1	0	1	0	1	1152.62	0.55514	0.554913	0.0122011	10	0.0406717	11	0	20.9709	6.77053e-06
2	1	0	1	0	1	1155.21	0.568122	0.567899	0.0140272	10	0.0407047	11	0	23.5673	7.96604e-06
2	0	0	1	0	1	1157.81	0.581103	0.580841	0.0122201	10	0.0407395	11	0	26.1637	7.09793e-06
2	1	0	1	0	1	1160.41	0.594085	0.593861	0.0173426	10	0.0407785	11	0	28.7601	1.02991e-05
2	1	0	1	0	1	1163	0.607068	0.606919	0.0195617	10	0.0408249	11	0	31.3565	1.18724e-05
2	1	0	1	0	1	1165.6	0.62005	0.619808	0.0245827	10	0.0408839	11	0	33.9529	1.52366e-05
2	1	0	1	0	1	1168.2	0.633031	0.632825	0.0386603	10	0.0409655	11	0	36.5493	2.44652e-05
2	1	0	1	0	1	1170.79	0.646014	0.64578	0.0573959	10	0.0410865	11	0	39.1457	3.70651e-05
2	1	0	1	0	1	1173.39	0.658995	0.658786	0.0909631	10	0.0412768	11	0	41.7421	5.99253e-05
2	1	0	1	0	1	1175.99	0.671978	0.671776	0.154589	10	0.041589	11	0	44.3385	0.000103849
2	1	0	1	0	1	1178.58	0.68496	0.684744	0.250971	10	0.0421051	11	0	46.9349	0.000171851
2	1	0	1	0	1	1181.18	0.697941	0.697728	0.405363	10	0.0429457	11	0	49.5313	0.000282833
2	1	0	1	0	1	1183.55	0.690202	0.689981	0.287289	10	0.0438046	11	0	51.9003	0.000198224
2	1	0	1	0	1	1186.14	0.677221	0.677009	0.16389	10	0.0443755	11	0	54.4967	0.000110955
2	1	0	1	0	1	1188.74	0.664239	0.664028	0.092252	10	0.0447007	11	0	57.0931	6.1258e-05
2	1	0	1	0	1	1191.34	0.651257	0.651034	0.0500704	10	0.0448788	11	0	59.6895	3.25975e-05
2	1	0	1	0	1	1193.93	0.638274	0.638066	0.0220295	10	0.0449698	11	0	62.2859	1.40563e-05
2	1	0	1	0	1	1196.53	0.625292	0.625096	0.0113435	10	0.0450115	11	0	64.8823	7.0908e-06
2	1	0	1	0	1	1199.13	0.612311	0.612128	0.00172395	10	0.0450254	11	0	67.4787	1.05528e-06
2	0	0	1	0	1	1201.72	0.599329	0.599094	-0.00479493	10	0.0450228	11	0	0.9986	-2.87262e-06
2	0	0	1	0	1	1204.32	0.586347	0.586113	-0.00616376	10	0.0450109	11	0	3.595	-3.61266e-06
2	1	0	1	0	1	1206.92	0.573365	0.573176	-0.00549565	10	0.0449936	11	0	6.1914	-3.14998e-06
2	0	0	1	0	1	1209.51	0.560382	0.560113	-0.0092203	10	0.0449728	11	0	8.7878	-5.16441e-06
2	0	0	1	0	1	1212.11	0.5474	0.547221	-0.0104464	10	0.0449494	11	0	11.3842	-5.71651e-06
2	1	0	1	0	1	1214.7	0.534419	0.534221	-0.00781865	10	0.0449248	11	0	13.9806	-4.17689e-06
2	0	0	1	0	1	1217.3	0.521437	0.521188	-0.010564	10	0.0448991	11	0	16.577	-5.50585e-06
2	0	0	1	0	1	1219.9	0.508455	0.508234	-0.0114884	10	0.0448722	11	0	19.1734	-5.83879e-06
2	1	0	1	0	1	1222.49	0.495473	0.495276	-0.00897514	10	0.0448445	11	0	21.7698	-4.44517e-06
2	0	0	1	0	1	1225.09	0.482491	0.482263	-0.0126607	10	0.0448157	11	0	24.3662	-6.1058e-06
2	0	0	1	0	1	1227.69	0.469509	0.469304	-0.0119363	10	0.044786	11	0	26.9626	-5.60176e-06
2	0	0	1	0	1	1230.28	0.456527	0.456306	-0.0105443	10	0.0447557	11	0	29.559	-4.81144e-06
2	1	0	1	0	0	1232.74	0.455778	0.455522	0.00946906	11	0.0447518	11	0	1.0985	4.31337e-06
2	1	0	1	0	0	1235.33	0.46876	0.468582	0.0106302	11	0.0447821	11	0	3.6949	4.98114e-06
2	1	0	1	0	0	1237.93	0.481742	0.481522	0.013212	11	0.0448132	11	0	6.2913	6.36187e-06
2	1	0	1	0	0	1240.53	0.494724	0.494515	0.0136629	11	0.0448443	11	0	8.8877	6.75653e-06
2	1	0	1	0	0	1243.12	0.507706	0.507513	0.0137131	11	0.0448752	11	0	11.4841	6.9596e-06
2	1	0	1	0	0	1245.72	0.520688	0.520452	0.0134982	11	0.0449058	11	0	14.0805	7.02519e-06
2	1	0	1	0	0	1248.32	0.53367	0.533426	0.0131305	11	0.0449366	11	0	16.6769	7.00417e-06
2	1	0	1	0	0	1250.91	0.546652	0.546443	0.0121513	11	0.0449676	11	0	19.2733	6.63997e-06
2	1	0	1	0	0	1253.51	0.559634	0.55941	0.0110837	11	0.0449992	11	0	21.8697	6.20034e-06
2	1	0	1	0	0	1256.1	0.572616	0.572385	0.0117812	11	0.045032	11	0	24.4661	6.74337e-06
2	1	0	1	0	0	1258.7	0.585598	0.58536	0.016088	11	0.045068	11	0	27.0625	9.41724e-06
2	1	0	1	0	0	1261.3	0.59858	0.598382	0.0181591	11	0.0451091	11	0	29.6589	1.08661e-05
2	1	0	1	0	0	1263.89	0.611562	0.611353	0.019688	11	0.0451587	11	0	32.2553	1.20363e-05
2	1	0	1	0	0	1266.49	0.624544	0.62432	0.0302755	11	0.0452236	11	0	34.8517	1.89016e-05
2	1	0	1	0	0	1269.09	0.637526	0.637315	0.0426227	11	0.0453157	11	0	37.4481	2.71641e-05
2	1	0	1	0	0	1271.68	0.650508	0.650331	0.0654586	11	0.0454551	11	0	40.0445	4.25697e-05
2	1	0	1	0	0	1274.28	0.66349	0.663249	0.110901	11	0.0456788	11	0	42.6409	7.35548e-05
2	1	0	1	0	0	1276.88	0.676472	0.676225	0.179774	11	0.046048	11	0	45.2373	0.000121568
2	1	0	1	0	0	1279.47	0.689454	0.689294	0.297957	11	0.0466586	11	0	47.8337	0.00020538
2	1	0	1	0	0	1281.84	0.69869	0.698493	0.405165	11	0.047534	11	0	50.2027	0.000283005
2	1	0	1	0	0	1284.44	0.685708	0.685563	0.235543	11	0.0483482	11	0	52.7991	0.000161479
2	1	0	1	0	0	1287.03	0.672726	0.672522	0.134852	11	0.0488175	11	0	55.3955	9.06907e-05
2	1	0	1	0	0	1289.63	0.659744	0.659498	0.0732283	11	0.0490793	11	0	57.9919	4.82939e-05
2	1	0	1	0	0	1292.23	0.646762	0.646569	0.0375792	11	0.0492198	11	0	60.5883	2.42975e-05
2	1	0	1	0	0	1294.82	0.63378	0.633553	0.0189448	11	0.0492896	11	0	63.1847	1.20025e-05
2	1	0	1	0	0	1297.42	0.620798	0.62056	0.00459518	11	0.0493189	11	0	65.7811	2.85158e-06
2	1	0	1	0	0	1300.02	0.607816	0.607621	0.00159099	11	0.0493258	11	0	0.000000000000000E+000	9.66721e-07
2	0	0	1	0	0	1302.61	0.594834	0.59459	-0.00548569	11	0.0493194	11	0	2.197	-3.26174e-06
2	0	0	1	0	0	1305.21	0.581852	0.581585	-0.00565271	11	0.0493054	11	0	4.7934	-3.28753e-06
2	1	0	1	0	0	1307.8	0.56887	0.56868	-0.00762623	11	0.0492868	11	0	7.3898	-4.33688e-06
2	0	0	1	0	0	1310.4	0.555888	0.555709	-0.00998185	11	0.0492647	11	0	9.9862	-5.547e-06
2	1	0	1	0	0	1313	0.542906	0.542655	-0.00750895	11	0.0492409	11	0	12.5826	-4.07477e-06
2	0	0	1	0	0	1315.59	0.529924	0.529714	-0.0117175	11	0.0492157	11	0	15.179	-6.20691e-06
2	0	0	1	0	0	1318.19	0.516942	0.516694	-0.00851105	11	0.0491896	11	0	17.7754	-4.39761e-06
2	0	0	1	0	0	1320.79	0.50396	0.503676	-0.0123749	11	0.0491622	11	0	20.3718	-6.23293e-06
2	0	0	1	0	0	1323.38	0.490978	0.490762	-0.00918803	11	0.049134	11	0	22.9682	-4.50913e-06
2	0	0	1	0	0	1325.98	0.477996	0.477804	-0.0122364	11	0.0491052	11	0	25.5646	-5.84662e-06
2	0	0	1	0	0	1328.58	0.465014	0.464777	-0.01137	11	0.0490752	11	0	28.161	-5.28451e-06
2	0	0	1	0	0	1331.17	0.452032	0.451848	-0.0123227	11	0.0490442	11	0	30.7574	-5.56801e-06
2	1	0	1	0	1	1333.63	0.460272	0.460003	0.0107079	12	0.0490613	11	0	1.9973	4.92568e-06
2	1	0	1	0	1	1336.22	0.473254	0.473038	0.0135796	12	0.0490922	11	0	4.5937	6.42365e-06
2	1	0	1	0	1	1338.82	0.486236	0.486037	0.00990286	12	0.049123	11	0	7.1901	4.81316e-06
2	1	0	1	0	1	1341.42	0.499218	0.498961	0.0126598	12	0.0491537	11	0	9.7865	6.31677e-06
2	1	0	1	0	1	1344.01	0.5122	0.511953	0.0119245	12	0.0491843	11	0	12.3829	6.10477e-06
2	0	0	1	0	1	1346.61	0.525182	0.52496	0.0103149	12	0.0492146	11	0	14.9793	5.41489e-06
2	1	0	1	0	1	1349.2	0.538164	0.537937	0.0119983	12	0.0492453	11	0	17.5757	6.45433e-06
2	1	0	1	0	1	1351.8	0.551146	0.550893	0.0135569	12	0.0492764	11	0	20.1721	7.46842e-06
2	1	0	1	0	1	1354.4	0.564128	0.563889	0.011384	12	0.0493083	11	0	22.7685	6.41933e-06
2	1	0	1	0	1	1356.99	0.57711	0.57684	0.0117566	12	0.049342	11	0	25.3649	6.7817e-06
2	1	0	1	0	1	1359.59	0.590092	0.589895	0.0142698	12	0.0493793	11	0	27.9613	8.41768e-06
2	1	0	1	0	1	1362.19	0.603074	0.602862	0.0194054	12	0.0494227	11	0	30.5577	1.16988e-05
2	1	0	1	0	1	1364.78	0.616056	0.615822	0.0241671	12	0.0494764	11	0	33.1541	1.48826e-05
2	1	0	1	0	1	1367.38	0.629038	0.628835	0.0313638	12	0.0495485	11	0	35.7505	1.97227e-05
2	1	0	1	0	1	1369.98	0.64202	0.641772	0.0505081	12	0.0496536	11	0	38.3469	3.24147e-05
2	1	0	1	0	1	1372.57	0.655002	0.654781	0.0791701	12	0.0498166	11	0	40.9433	5.1839e-05
2	1	0	1	0	1	1375.17	0.667984	0.667724	0.127739	12	0.0500809	11	0	43.5397	8.52943e-05
2	1	0	1	0	1	1377.77	0.680966	0.680726	0.216001	12	0.0505191	11	0	46.1361	0.000147038
2	1	0	1	0	1	1380.36	0.693948	0.693697	0.348295	12	0.0512389	11	0	48.7325	0.000241611
2	1	0	0	0	1	1382.73	0.694197	0.69397	0.331497	12	0.0521458	11	0	51.1014	0.000230049
2	1	0	0	0	1	1385.33	0.681215	0.681021	0.198489	12	0.0528183	11	0	53.6978	0.000135175
2	1	0	0	0	1	1387.92	0.668233	0.668002	0.109187	12	0.0532085	11	0	56.2942	7.29371e-05
2	1	0	0	0	1	1390.52	0.655251	0.654986	0.0607224	12	0.053423	11	0	58.8906	3.97724e-05
2	1	0	0	0	1	1393.12	0.642269	0.642014	0.0282886	12	0.0535344	11	0	61.487	1.81617e-05
2	1	0	0	0	1	1395.71	0.629287	0.629096	0.0141003	12	0.0535873	11	0	64.0834	8.87044e-06
2	1	0	0	0	1	1398.31	0.616305	0.616058	0.00320545	12	0.0536075	11	0	66.6798	1.97474e-06
2	0	0	0	0	1	1400.91	0.603323	0.603099	-0.00289674	12	0.0536084	11	0	0.2996	-1.74702e-06
2	1	0	0	0	1	1403.5	0.590341	0.590075	-0.00347876	12	0.0535989	11	0	2.896	-2.05273e-06
2	0	0	0	0	1	1406.1	0.577359	0.577124	-0.00888605	12	0.0535825	11	0	5.4924	-5.12835e-06
2	1	0	0	0	1	1408.69	0.564377	0.564139	-0.00668424	12	0.0535622	11	0	8.0888	-3.77084e-06
2	0	0	0	0	1	1411.29	0.551395	0.551186	-0.0102136	12	0.0535395	11	0	10.6852	-5.6296e-06
2	0	0	0	0	1	1413.89	0.538413	0.538168	-0.00922326	12	0.0535151	11	0	13.2816	-4.96366e-06
2	0	0	0	0	1	1416.48	0.525431	0.525226	-0.00963984	12	0.0534896	11	0	15.878	-5.0631e-06
2	0	0	0	0	1	1419.08	0.512449	0.512211	-0.0119775	12	0.0534628	11	0	18.4744	-6.135e-06
2	1	0	0	0	1	1421.68	0.499467	0.49919	-0.00894701	12	0.0534353	11	0	21.0708	-4.46626e-06
2	0	0	0	0	1	1424.27	0.486485	0.48628	-0.0129092	12	0.0534069	11	0	23.6672	-6.2775e-06
2	0	0	0	0	1	1426.87	0.473503	0.473268	-0.00944819	12	0.0533777	11	0	26.2636	-4.47153e-06
2	0	0	0	0	1	1429.47	0.460521	0.460252	-0.0136814	12	0.0533471	11	0	28.86	-6.29687e-06
2	1	0	0	0	0	1431.92	0.451783	0.451546	0.0123785	13	0.0533248	11	0	0.2996	5.58945e-06
2	0	0	0	0	0	1434.52	0.464765	0.464533	0.00989422	13	0.0533545	11	0	2.896	4.59619e-06
2	1	0	0	0	0	1437.11	0.477747	0.477503	0.0135502	13	0.0533853	11	0	5.4924	6.47024e-06
2	1	0	0	0	0	1439.71	0.490729	0.490513	0.00994627	13	0.053416	11	0	8.0888	4.87878e-06
2	1	0	0	0	0	1442.3	0.503711	0.503472	0.0136719	13	0.0534466	11	0	10.6852	6.8834e-06
2	0	0	0	0	0	1444.9	0.516693	0.516482	0.00961554	13	0.0534772	11	0	13.2816	4.96625e-06
2	1	0	0	0	0	1447.5	0.529675	0.529493	0.0134179	13	0.0535078	11	0	15.878	7.1047e-06
2	1	0	0	0	0	1450.09	0.542657	0.542444	0.00988752	13	0.0535382	11	0	18.4744	5.36342e-06
2	1	0	0	0	0	1452.69	0.555639	0.555415	0.0140194	13	0.0535694	11	0	21.0708	7.78658e-06
2	0	0	0	0	0	1455.29	0.568621	0.568385	0.0109434	13	0.0536016	11	0	23.6672	6.22006e-06
2	1	0	0	0	0	1457.88	0.581603	0.581326	0.0148082	13	0.0536364	11	0	26.2636	8.60839e-06
2	1	0	0	0	0	1460.48	0.594585	0.594373	0.0161317	13	0.0536749	11	0	28.86	9.58823e-06
2	1	0	0	0	0	1463.08	0.607567	0.607364	0.0213677	13	0.0537208	11	0	31.4564	1.2978e-05
2	1	0	0	0	0	1465.67	0.620549	0.620349	0.0241132	13	0.0537794	11	0	34.0528	1.49586e-05
2	1	0	0	0	0	1468.27	0.633531	0.633343	0.0387305	13	0.0538605	11	0	36.6492	2.45297e-05
2	1	0	0	0	0	1470.87	0.646513	0.646318	0.0558366	13	0.0539809	11	0	39.2456	3.60882e-05
2	1	0	0	0	0	1473.46	0.659495	0.659229	0.0937313	13	0.0541714	11	0	41.842	6.17904e-05
2	1	0	0	0	0	1476.06	0.672477	0.672269	0.15356	13	0.054485	11	0	44.4384	0.000103234
2	1	0	0	0	0	1478.65	0.685459	0.685269	0.254633	13	0.0550056	11	0	47.0348	0.000174493
2	1	0	0	0	0	1481.25	0.698441	0.698203	0.406119	13	0.0558523	11	0	49.6312	0.000283553
2	1	0	1	0	0	1483.62	0.689704	0.689489	0.276209	13	0.0566856	11	0	52.0001	0.000190443
2	1	0	1	0	0	1486.22	0.676722	0.67656	0.158975	13	0.0572388	11	0	54.5965	0.000107556
2	1	0	1	0	0	1488.81	0.66374	0.663558	0.0902992	13	0.0575546	11	0	57.1929	5.99188e-05
2	1	0	1	0	0	1491.41	0.650758	0.650577	0.046246	13	0.0577266	11	0	59.7893	3.00866e-05
2	1	0	1	0	0	1494.01	0.637776	0.637545	0.0236689	13	0.0578137	11	0	62.3857	1.509e-05
2	1	0	1	0	0	1496.6	0.624794	0.624538	0.00765348	13	0.0578531	11	0	64.9821	4.77989e-06
2	1	0	1	0	0	1499.2	0.611812	0.611603	0.00300365	13	0.0578653	11	0	67.5785	1.83704e-06
2	0	0	1	0	0	1501.79	0.59883	0.598622	-0.00494337	13	0.057862	11	0	1.1983	-2.95921e-06
2	1	0	1	0	0	1504.39	0.585848	0.585632	-0.00422141	13	0.0578497	11	0	3.7947	-2.47219e-06
2	0	0	1	0	0	1506.99	0.572866	0.57268	-0.00948315	13	0.0578318	11	0	6.3911	-5.43081e-06
2	1	0	1	0	0	1509.58	0.559884	0.559672	-0.006713	13	0.0578108	11	0	8.9875	-3.75708e-06
2	0	0	1	0	0	1512.18	0.546902	0.546671	-0.010522	13	0.0577873	11	0	11.5839	-5.75209e-06
2	1	0	1	0	0	1514.78	0.53392	0.533727	-0.00843301	13	0.0577625	11	0	14.1803	-4.50093e-06
2	0	0	1	0	0	1517.37	0.520938	0.520694	-0.0112722	13	0.0577363	11	0	16.7767	-5.86936e-06
2	0	0	1	0	0	1519.97	0.507956	0.50772	-0.00996841	13	0.0577095	11	0	19.3731	-5.06117e-06
2	0	0	1	0	0	1522.57	0.494974	0.494764	-0.010871	13	0.0576816	11	0	21.9695	-5.37855e-06
2	0	0	1	0	0	1525.16	0.481992	0.48179	-0.0117322	13	0.057653	11	0	24.5659	-5.65248e-06
2	0	0	1	0	0	1527.76	0.46901	0.468756	-0.0104245	13	0.0576231	11	0	27.1623	-4.88654e-06
2	0	0	1	0	0	1530.36	0.456028	0.455829	-0.0134219	13	0.0575925	11	0	29.7587	-6.11808e-06
2	1	0	1	0	1	1532.81	0.456277	0.456067	0.0128886	14	0.057591	11	0	1.1983	5.87806e-06
2	1	0	1	0	1	1535.41	0.469259	0.468983	0.0101194	14	0.0576212	11	0	3.7947	4.74584e-06
2	1	0	1	0	1	1538	0.482241	0.481984	0.0121269	14	0.0576518	11	0	6.3912	5.84499e-06
2	1	0	1	0	1	1540.6	0.495223	0.494974	0.0126869	14	0.0576825	11	0	8.9875	6.2797e-06
2	1	0	1	0	1	1543.19	0.508205	0.507999	0.0105499	14	0.0577132	11	0	11.584	5.35936e-06
2	1	0	1	0	1	1545.79	0.521187	0.520975	0.00990721	14	0.0577437	11	0	14.1803	5.16141e-06
2	0	0	1	0	1	1548.39	0.534169	0.533999	0.00986862	14	0.0577741	11	0	16.7767	5.26983e-06
2	0	0	1	0	1	1550.98	0.547151	0.546907	0.00999663	14	0.0578048	11	0	19.3732	5.46723e-06
2	1	0	1	0	1	1553.58	0.560133	0.559864	0.0106223	14	0.0578364	11	0	21.9696	5.94705e-06
2	1	0	1	0	1	1556.18	0.573115	0.572914	0.0120846	14	0.0578695	11	0	24.566	6.92344e-06
2	1	0	1	0	1	1558.77	0.586097	0.585913	0.0136816	14	0.0579051	11	0	27.1623	8.01624e-06
2	1	0	1	0	1	1561.37	0.599079	0.598866	0.0163051	14	0.0579458	11	0	29.7587	9.76456e-06
2	1	0	1	0	1	1563.97	0.612061	0.611831	0.0211487	14	0.0579953	11	0	32.3551	1.29394e-05
2	1	0	1	0	1	1566.56	0.625043	0.624835	0.0288494	14	0.05806	11	0	34.9516	1.80261e-05
2	1	0	1	0	1	1569.16	0.638025	0.637799	0.041557	14	0.0581517	11	0	37.548	2.6505e-05
2	1	0	1	0	1	1571.75	0.651006	0.650804	0.0651372	14	0.0582912	11	0	40.1443	4.23916e-05
2	1	0	1	0	1	1574.35	0.663989	0.663801	0.109938	14	0.0585163	11	0	42.7407	7.2977e-05
2	1	0	1	0	1	1576.95	0.676971	0.67678	0.183072	14	0.0588891	11	0	45.3371	0.000123899
2	1	0	1	0	1	1579.54	0.689953	0.689749	0.299821	14	0.059505	11	0	47.9336	0.000206801
2	1	0	1	0	1	1581.91	0.698192	0.697976	0.38818	14	0.0603776	11	0	50.3025	0.00027094
2	1	0	1	0	1	1584.51	0.68521	0.684992	0.228948	14	0.0611643	11	0	52.8989	0.000156828
2	1	0	1	0	1	1587.11	0.672228	0.672069	0.13203	14	0.0616202	11	0	55.4953	8.8733e-05
2	1	0	1	0	1	1589.7	0.659246	0.659012	0.0709874	14	0.0618739	11	0	58.0917	4.67815e-05
2	1	0	1	0	1	1592.3	0.646264	0.645973	0.0350536	14	0.0620076	11	0	60.6881	2.26437e-05
2	1	0	1	0	1	1594.9	0.633282	0.63307	0.0153761	14	0.0620737	11	0	63.2845	9.73415e-06
2	1	0	1	0	1	1597.49	0.6203	0.62006	0.00417877	14	0.0621018	11	0	65.8809	2.59109e-06
2	0	0	1	0	1	1600.09	0.607318	0.607104	-0.00247198	14	0.0621075	11	0	0.000000000000000E+000	-1.50075e-06
2	0	0	1	0	1	1602.68	0.594336	0.594139	-0.0058755	14	0.0621003	11	0	2.0971	-3.49087e-06
2	0	0	1	0	1	1605.28	0.581354	0.581075	-0.0077043	14	0.0620857	11	0	4.6935	-4.47678e-06
2	0	0	1	0	1	1607.88	0.568372	0.568198	-0.00776385	14	0.0620666	11	0	7.2899	-4.41141e-06
2	1	0	1	0	1	1610.47	0.55539	0.55517	-0.00710238	14	0.0620448	11	0	9.8863	-3.94303e-06
2	0	0	1	0	1	1613.07	0.542408	0.542174	-0.00980653	14	0.0620209	11	0	12.4827	-5.31684e-06
2	0	0	1	0	1	1615.67	0.529426	0.529223	-0.0113324	14	0.0619956	11	0	15.0791	-5.99734e-06
2	0	0	1	0	1	1618.26	0.516444	0.516199	-0.00877946	14	0.0619696	11	0	17.6755	-4.53195e-06
2	1	0	1	0	1	1620.86	0.503462	0.503217	-0.00926376	14	0.0619426	11	0	20.2719	-4.66167e-06
2	0	0	1	0	1	1623.46	0.49048	0.49025	-0.0122481	14	0.0619144	11	0	22.8683	-6.00462e-06
2	0	0	1	0	1	1626.05	0.477498	0.477251	-0.0124305	14	0.0618854	11	0	25.4647	-5.93246e-06
2	0	0	1	0	1	1628.65	0.464516	0.464275	-0.0104387	14	0.0618556	11	0	28.0611	-4.84645e-06
2	1	0	1	0	1	1631.24	0.451534	0.451305	-0.0106332	14	0.0618248	11	0	30.6575	-4.7988e-06
2	1	0	1	0	0	1633.7	0.460771	0.460481	0.0101211	15	0.0618444	11	0	2.0971	4.66058e-06
2	0	0	1	0	0	1636.29	0.473753	0.473507	0.00972421	15	0.0618748	11	0	4.6935	4.60448e-06
2	0	0	1	0	0	1638.89	0.486735	0.486527	0.0106993	15	0.0619056	11	0	7.2899	5.20551e-06
2	1	0	1	0	0	1641.49	0.499717	0.499458	0.0134924	15	0.0619364	11	0	9.8863	6.73889e-06
2	1	0	1	0	0	1644.08	0.512699	0.512514	0.0114778	15	0.061967	11	0	12.4827	5.88252e-06
2	0	0	1	0	0	1646.68	0.525681	0.525482	0.0101106	15	0.0619972	11	0	15.0791	5.31294e-06
2	1	0	1	0	0	1649.28	0.538663	0.538367	0.0131496	15	0.0620278	11	0	17.6755	7.07929e-06
2	1	0	1	0	0	1651.87	0.551645	0.551383	0.0120055	15	0.062059	11	0	20.2719	6.61965e-06
2	0	0	1	0	0	1654.47	0.564627	0.564389	0.0108591	15	0.0620908	11	0	22.8683	6.12878e-06
2	1	0	1	0	0	1657.07	0.577609	0.577346	0.015163	15	0.0621246	11	0	25.4647	8.75431e-06
2	1	0	1	0	0	1659.66	0.590591	0.59039	0.014707	15	0.0621617	11	0	28.0611	8.68287e-06
2	1	0	1	0	0	1662.26	0.603573	0.603357	0.0164407	15	0.0622047	11	0	30.6575	9.91962e-06
2	1	0	1	0	0	1664.86	0.616555	0.616303	0.0247589	15	0.0622582	11	0	33.2539	1.5259e-05
2	1	0	1	0	0	1667.45	0.629537	0.62932	0.0329575	15	0.0623302	11	0	35.8503	2.07408e-05
2	1	0	1	0	0	1670.05	0.642519	0.642321	0.0478364	15	0.0624348	11	0	38.4467	3.07263e-05
2	1	0	1	0	0	1672.64	0.655501	0.655235	0.0804392	15	0.0625982	11	0	41.0431	5.27065e-05
2	1	0	1	0	0	1675.24	0.668483	0.668245	0.130784	15	0.0628644	11	0	43.6395	8.73955e-05
2	1	0	1	0	0	1677.84	0.681465	0.681198	0.21449	15	0.0633058	11	0	46.2359	0.00014611
2	1	0	1	0	0	1680.43	0.694447	0.694237	0.351929	15	0.0640315	11	0	48.8323	0.000244322
2	1	0	1	0	0	1682.8	0.693698	0.693456	0.324862	15	0.0649286	11	0	51.2013	0.000225278
2	1	0	1	0	0	1685.4	0.680715	0.680487	0.189148	15	0.0655795	11	0	53.7977	0.000128713
2	1	0	1	0	0	1688	0.667733	0.667547	0.103622	15	0.0659493	11	0	56.3941	6.91729e-05
2	1	0	1	0	0	1690.59	0.654751	0.654535	0.0573893	15	0.0661541	11	0	58.9905	3.75633e-05
2	1	0	1	0	0	1693.19	0.641769	0.641539	0.0288526	15	0.0662609	11	0	61.5869	1.851e-05
2	1	0	1	0	0	1695.78	0.628787	0.628553	0.010122	15	0.0663109	11	0	64.1833	6.36224e-06
2	1	0	1	0	0	1698.38	0.615806	0.615583	0.00349161	15	0.066329	11	0	66.7797	2.14938e-06
2	1	0	1	0	0	1700.98	0.602823	0.60256	-0.00114809	15	0.0663293	11	0	0.3995	-6.91794e-07
2	0	0	1	0	0	1703.57	0.589841	0.589631	-0.00681346	15	0.0663191	11	0	2.9959	-4.01742e-06
2	1	0	1	0	0	1706.17	0.576859	0.576615	-0.00534743	15	0.0663029	11	0	5.5923	-3.0834e-06
2	0	0	1	0	0	1708.77	0.563878	0.563605	-0.00995339	15	0.0662827	11	0	8.1887	-5.60978e-06
2	0	0	1	0	0	1711.36	0.550896	0.550643	-0.0075421	15	0.0662599	11	0	10.7851	-4.15301e-06
2	0	0	1	0	0	1713.96	0.537913	0.537667	-0.0102167	15	0.0662358	11	0	13.3815	-5.49317e-06
2	0	0	1	0	0	1716.56	0.524931	0.524725	-0.0109291	15	0.0662102	11	0	15.9779	-5.7348e-06
2	1	0	1	0	0	1719.15	0.51195	0.511736	-0.00845084	15	0.0661839	11	0	18.5743	-4.3246e-06
2	0	0	1	0	0	1721.75	0.498968	0.498727	-0.0119409	15	0.0661563	11	0	21.1707	-5.95526e-06
2	0	0	1	0	0	1724.35	0.485985	0.485748	-0.0110774	15	0.0661277	11	0	23.7671	-5.38082e-06
2	1	0	1	0	0	1726.94	0.473004	0.47278	-0.00999067	15	0.0660987	11	0	26.3635	-4.72339e-06
2	0	0	1	0	0	1729.54	0.460021	0.459785	-0.0136315	15	0.0660683	11	0	28.9599	-6.26755e-06
2	1	0	0	0	0	1731.54	0.450011	0.449792	-0.00123679	15	0.0660442	11	0	30.9592	-5.56299e-07