File: ACS_Catal_2026/Figures_Na_K/main_figures/data/EC/20251112_2-148_alpha_reproducibility/20251112_2-148_001_alpha_reproducibility_1_Na1_03_CVA_C01.mpt
EC-Lab ASCII FILE
Nb header lines : 66

Cyclic Voltammetry Advanced

Run on channel : 1 (SN 69187)
User :
CE vs. WE compliance from -10 V to 10 V
Electrode connection : standard
Potential control : Ewe
Ewe ctrl range : min = -1.00 V, max = 1.00 V
Safety Limits :
	Do not start on E overload
Acquisition started on : 11/12/2025 13:54:05.582
Loaded Setting File :  C:\Users\User\Documents\EC-Lab\Data\Yatsuzuka\20251030_2-147_gamma_reproducibility\20251030_2-147_001_gamma1_K_1.mps
Saved on :
	File : 20251112_2-148_001_alpha_reproducibility_1_Na1_03_CVA_C01.mpr
	Directory : C:\Users\User\Documents\EC-Lab\Data\Yatsuzuka\20251112_2-148_alpha_reproducibility\
	Host : 192.109.209.127
Device : SP-150e (SN .003883)
Address : 192.109.209.128
EC-LAB for windows v11.52 (software)
Internet server v11.52 (firmware)
Command interpretor v11.50 (firmware)
Electrode material :
Initial state :
Electrolyte :
Comments :
Electrode surface area : 0.001 cm2
Characteristic mass : 0.001 g
Equivalent Weight : 0.000 g/eq.
Density : 0.000 g/cm3
Volume (V) : 0.001 cm3
Cycle Definition : Charge/Discharge alternance
Ei (V)              0.450
vs.                 Ref
ti (h:m:s)          0:00:10.0000
dti (s)             0.0000
dE/dt               5.000
dE/dt unit          mV/s
E1 (V)              0.700
vs.                 Ref
t1 (h:m:s)          0:00:0.0000
dt1 (s)             0.1000
Step percent        50
N                   10
E range min (V)     -1.000
E range max (V)     1.000
I Range             10 mA
I Range min         Unset
I Range max         Unset
I Range init        Unset
Bandwidth           5
E2 (V)              0.450
vs.                 Ref
t2 (h:m:s)          0:00:0.0000
dt2 (s)             0.1000
nc cycles           14
nr                  1
Reverse Scan        0
Ef (V)              0.000
vs.                 Eoc
tf (h:m:s)          0:00:0.0000
dtf (s)             0.1000

mode	ox/red	error	control changes	Ns changes	counter inc.	time/s	control/V	Ewe/V	<I>/mA	cycle number	(Q-Qo)/C	I Range	Ns	step time/s	Pwe/W	Rwe/Ohm
2	1	0	0	0	0	231.846	0.449961	0.449812	0.00871685	1	0.0000000E+000	11	0	0.000000000000000E+000	3.92094e-06	51602.5
2	0	0	1	0	0	234.697	0.464216	0.463955	0.0109095	1	3.83124e-05	11	0	2.796	5.06151e-06	42527.6
2	1	0	1	0	0	237.593	0.478696	0.478471	0.0111537	1	7.81531e-05	11	0	5.692	5.33674e-06	42897.8
2	1	0	1	0	0	240.489	0.493176	0.492968	0.0137666	1	0.000118201	11	0	8.588	6.78648e-06	35809
2	1	0	1	0	0	243.385	0.507656	0.507457	0.0166836	1	0.000158107	11	0	11.484	8.46621e-06	30416.5
2	1	0	1	0	0	246.281	0.522136	0.5219	0.0152006	1	0.000198131	11	0	14.38	7.93321e-06	34334.1
2	1	0	1	0	0	249.177	0.536616	0.536342	0.0129592	1	0.000238875	11	0	17.276	6.95056e-06	41386.9
2	0	0	1	0	0	252.073	0.551096	0.550849	0.0118141	1	0.000280782	11	0	20.172	6.50781e-06	46626.3
2	1	0	1	0	0	254.969	0.565576	0.565368	0.0152259	1	0.000324743	11	0	23.068	8.60822e-06	37132
2	1	0	1	0	0	257.865	0.580056	0.579798	0.0195654	1	0.000373003	11	0	25.964	1.1344e-05	29633.8
2	1	0	1	0	0	260.761	0.594535	0.594349	0.0221345	1	0.000429079	11	0	28.8599	1.31556e-05	26851.7
2	1	0	1	0	0	263.657	0.609015	0.608795	0.0253489	1	0.000498775	11	0	31.7559	1.54323e-05	24016.6
2	1	0	1	0	0	266.553	0.623495	0.623321	0.0417951	1	0.000594009	11	0	34.6519	2.60518e-05	14913.8
2	1	0	1	0	0	269.449	0.637975	0.637768	0.0576796	1	0.000735074	11	0	37.5479	3.67862e-05	11057.1
2	1	0	1	0	0	272.345	0.652455	0.652217	0.099718	1	0.000959046	11	0	40.4439	6.50378e-05	6540.62
2	1	0	1	0	0	275.241	0.666935	0.666666	0.163927	1	0.00133162	11	0	43.3398	0.000109285	4066.85
2	1	0	1	0	0	278.137	0.681415	0.68118	0.282211	1	0.00196558	11	0	46.2358	0.000192237	2413.72
2	1	0	1	0	0	281.033	0.695895	0.695659	0.469654	1	0.00303366	11	0	49.1318	0.000326719	1481.22
2	1	0	1	0	0	283.712	0.690702	0.690484	0.361925	1	0.00426555	11	0	51.8103	0.000249903	1907.81
2	1	0	1	0	0	286.608	0.676222	0.676053	0.204852	1	0.00506453	11	0	54.7063	0.000138491	3300.2
2	1	0	1	0	0	289.504	0.661742	0.661528	0.106032	1	0.00550097	11	0	57.6023	7.01431e-05	6238.95
2	1	0	1	0	0	292.4	0.647262	0.64707	0.0564018	1	0.00572982	11	0	60.4983	3.64959e-05	11472.5
2	1	0	1	0	0	295.296	0.632782	0.632546	0.0251941	1	0.00584213	11	0	63.3943	1.59364e-05	25106.9
2	1	0	1	0	0	298.191	0.618303	0.618107	0.00959574	1	0.00589063	11	0	66.2902	5.93119e-06	64414.7
2	1	0	1	0	0	301.087	0.603823	0.603614	0.00145835	1	0.00590394	11	0	0.000000000000000E+000	8.80282e-07	413901
2	0	0	1	0	0	303.983	0.589343	0.589099	-0.00540139	1	0.00589778	11	0	2.0971	-3.18195e-06	109064
2	0	0	1	0	0	306.879	0.574863	0.574597	-0.00503921	1	0.0058806	11	0	4.9931	-2.89552e-06	114025
2	0	0	1	0	0	309.775	0.560382	0.560155	-0.0110695	1	0.00585748	11	0	7.8891	-6.20064e-06	50603.5
2	1	0	1	0	0	312.671	0.545902	0.545702	-0.00709695	1	0.00583057	11	0	10.7851	-3.87282e-06	76892.5
2	0	0	1	0	0	315.567	0.531423	0.531187	-0.0130253	1	0.00580113	11	0	13.6811	-6.91884e-06	40781.3
2	1	0	1	0	0	318.463	0.516942	0.516693	-0.0091759	1	0.00577039	11	0	16.5771	-4.74112e-06	56309.8
2	0	0	0	0	0	321.359	0.502463	0.502213	-0.0122435	1	0.00573799	11	0	19.473	-6.14886e-06	41018.6
2	1	0	0	0	0	324.255	0.487983	0.487788	-0.0121095	1	0.00570463	11	0	22.369	-5.90687e-06	40281.4
2	0	0	0	0	0	327.151	0.473503	0.47328	-0.0104514	1	0.00567007	11	0	25.265	-4.94641e-06	45284
2	0	0	0	0	0	330.047	0.459023	0.458815	-0.0144662	1	0.00563461	11	0	28.161	-6.63731e-06	31716.3
2	1	0	0	0	1	332.801	0.454779	0.454546	0.0135392	2	0.00562211	11	0	0.8988	6.15418e-06	33572.6
2	1	0	1	0	1	335.697	0.469259	0.469006	0.0103742	2	0.00565825	11	0	3.7947	4.86554e-06	45209.1
2	1	0	1	0	1	338.593	0.483739	0.483483	0.0156433	2	0.00569541	11	0	6.6907	7.56326e-06	30906.8
2	0	0	1	0	1	341.489	0.498219	0.497992	0.0101253	2	0.00573251	11	0	9.5867	5.04232e-06	49182.9
2	1	0	1	0	1	344.385	0.512699	0.512467	0.0151514	2	0.00576959	11	0	12.4827	7.76459e-06	33823.1
2	1	0	1	0	1	347.281	0.527179	0.526982	0.0100455	2	0.00580663	11	0	15.3787	5.29378e-06	52459.7
2	1	0	1	0	1	350.177	0.541659	0.541439	0.0152098	2	0.00584441	11	0	18.2747	8.23518e-06	35598.1
2	0	0	1	0	1	353.073	0.556139	0.555931	0.0108783	2	0.00588273	11	0	21.1707	6.04757e-06	51104.7
2	1	0	1	0	1	355.969	0.570619	0.570385	0.0173551	2	0.00592344	11	0	24.0667	9.8991e-06	32865.5
2	1	0	1	0	1	358.865	0.585098	0.584886	0.0139247	2	0.0059684	11	0	26.9626	8.14434e-06	42003.6
2	1	0	1	0	1	361.761	0.599578	0.599308	0.0229095	2	0.00602139	11	0	29.8586	1.37299e-05	26159.8
2	1	0	1	0	1	364.657	0.614058	0.613802	0.02471	2	0.00608928	11	0	32.7546	1.5167e-05	24840.2
2	1	0	1	0	1	367.553	0.628538	0.628347	0.0421226	2	0.00618504	11	0	35.6506	2.64676e-05	14917.1
2	1	0	1	0	1	370.449	0.643018	0.642836	0.0618366	2	0.00633205	11	0	38.5466	3.97508e-05	10395.7
2	1	0	1	0	1	373.344	0.657498	0.657274	0.107901	2	0.00657305	11	0	41.4425	7.09205e-05	6091.46
2	1	0	1	0	1	376.24	0.671978	0.671793	0.186013	2	0.00698608	11	0	44.3385	0.000124962	3611.55
2	1	0	1	0	1	379.136	0.686457	0.686242	0.316476	2	0.00769998	11	0	47.2345	0.000217179	2168.38
2	1	0	1	0	1	381.85	0.699964	0.699688	0.51553	2	0.00881425	11	0	49.948	0.00036071	1357.22
2	1	0	1	0	1	384.701	0.685708	0.68548	0.286649	2	0.00990635	11	0	52.7991	0.000196492	2391.36
2	1	0	1	0	1	387.597	0.671229	0.671022	0.152362	2	0.0105253	11	0	55.695	0.000102238	4404.13
2	1	0	1	0	1	390.493	0.656749	0.65653	0.0830804	2	0.0108559	11	0	58.591	5.45448e-05	7902.35
2	1	0	1	0	1	393.389	0.642269	0.64203	0.0370513	2	0.0110237	11	0	61.487	2.37881e-05	17328.1
2	1	0	1	0	1	396.285	0.627789	0.627576	0.0181099	2	0.0111022	11	0	64.383	1.13653e-05	34653.8
2	1	0	1	0	1	399.181	0.613309	0.613116	0.00731095	2	0.0111321	11	0	67.279	4.48246e-06	83862.7
2	1	0	1	0	1	402.077	0.59883	0.598616	0.00062315	2	0.0111348	11	0	0.4992	3.73028e-07	960628
2	1	0	1	0	1	404.973	0.58435	0.584117	-0.00374996	2	0.0111228	11	0	3.3952	-2.19041e-06	155766
2	1	0	1	0	1	407.869	0.56987	0.569642	-0.00711241	2	0.0111027	11	0	6.2912	-4.05152e-06	80091.3
2	0	0	1	0	1	410.765	0.55539	0.555142	-0.0101674	2	0.0110775	11	0	9.1872	-5.64433e-06	54600.4
2	0	0	1	0	1	413.661	0.54091	0.540647	-0.012678	2	0.0110491	11	0	12.0832	-6.85432e-06	42644.5
2	0	0	1	0	1	416.557	0.526429	0.526232	-0.0123087	2	0.0110189	11	0	14.9792	-6.4772e-06	42753
2	0	0	1	0	1	419.453	0.51195	0.511729	-0.00953752	2	0.0109874	11	0	17.8752	-4.88062e-06	53654.2
2	1	0	1	0	1	422.349	0.497469	0.497216	-0.00875268	2	0.0109547	11	0	20.7712	-4.35197e-06	56807.3
2	0	0	0	0	1	425.245	0.48299	0.482745	-0.012142	2	0.0109208	11	0	23.6671	-5.86148e-06	39758.3
2	0	0	0	0	1	428.141	0.46851	0.4683	-0.0148501	2	0.0108858	11	0	26.5631	-6.95431e-06	31535.1
2	0	0	0	0	1	431.037	0.45403	0.453836	-0.0117818	2	0.0108495	11	0	29.4591	-5.347e-06	38520.1
2	1	0	0	0	0	433.79	0.459772	0.459493	0.014663	3	0.0108615	11	0	1.8974	6.73755e-06	31336.8
2	1	0	0	0	0	436.686	0.474252	0.474032	0.0132696	3	0.010898	11	0	4.7934	6.2902e-06	35723.3
2	1	0	1	0	0	439.582	0.488732	0.488541	0.00973846	3	0.0109346	11	0	7.6893	4.75764e-06	50166.1
2	1	0	1	0	0	442.478	0.503212	0.502952	0.0130391	3	0.0109711	11	0	10.5853	6.55806e-06	38572.5
2	1	0	1	0	0	445.374	0.517692	0.517511	0.0149006	3	0.0110079	11	0	13.4813	7.71124e-06	34730.8
2	1	0	1	0	0	448.27	0.532172	0.531907	0.0108999	3	0.0110448	11	0	16.3773	5.79774e-06	48799.1
2	0	0	1	0	0	451.166	0.546652	0.546474	0.0110583	3	0.0110819	11	0	19.2733	6.04307e-06	49417.5
2	1	0	1	0	0	454.062	0.561132	0.560923	0.0139793	3	0.0111203	11	0	22.1693	7.84133e-06	40125.1
2	1	0	1	0	0	456.958	0.575612	0.57539	0.0160664	3	0.0111614	11	0	25.0653	9.24445e-06	35813.2
2	1	0	1	0	0	459.854	0.590092	0.589901	0.0181208	3	0.0112073	11	0	27.9613	1.06895e-05	32553.9
2	1	0	1	0	0	462.75	0.604572	0.60436	0.0223762	3	0.0112625	11	0	30.8573	1.35233e-05	27009.1
2	1	0	1	0	0	465.646	0.619051	0.618845	0.0292475	3	0.0113353	11	0	33.7532	1.80997e-05	21158.9
2	1	0	1	0	0	468.542	0.633531	0.633343	0.0438579	3	0.0114407	11	0	36.6492	2.77771e-05	14440.8
2	1	0	1	0	0	471.438	0.648011	0.647796	0.0718177	3	0.0116063	11	0	39.5452	4.65232e-05	9020.01
2	1	0	1	0	0	474.334	0.662491	0.662274	0.123587	3	0.011884	11	0	42.4412	8.18484e-05	5358.77
2	1	0	1	0	0	477.23	0.676971	0.676736	0.215626	3	0.012365	11	0	45.3371	0.000145922	3138.48
2	1	0	1	0	0	480.126	0.69145	0.691268	0.370438	3	0.0131977	11	0	48.2331	0.000256072	1866.09
2	1	0	1	0	0	482.794	0.695196	0.694986	0.403399	3	0.0143668	11	0	50.9017	0.000280356	1722.83
2	1	0	1	0	0	485.69	0.680715	0.680481	0.224295	3	0.0152556	11	0	53.7977	0.000152628	3033.87
2	1	0	1	0	0	488.586	0.666236	0.666036	0.119002	3	0.0157415	11	0	56.6937	7.92598e-05	5596.83
2	1	0	1	0	0	491.482	0.651756	0.651517	0.0616687	3	0.0159948	11	0	59.5896	4.01782e-05	10564.8
2	1	0	1	0	0	494.378	0.637276	0.637084	0.0305189	3	0.0161196	11	0	62.4856	1.94431e-05	20875
2	1	0	1	0	0	497.274	0.622796	0.622595	0.0136325	3	0.0161744	11	0	65.3816	8.48756e-06	45669.8
2	1	0	1	0	0	500.17	0.608316	0.608097	0.00387832	3	0.0161909	11	0	68.2776	2.3584e-06	156794
2	0	0	1	0	0	503.066	0.593836	0.593577	-0.00468889	3	0.0161864	11	0	1.4979	-2.78322e-06	126592
2	0	0	1	0	0	505.962	0.579357	0.579117	-0.00934836	3	0.0161705	11	0	4.3938	-5.4138e-06	61948.5
2	0	0	1	0	0	508.858	0.564877	0.564663	-0.0105651	3	0.0161479	11	0	7.2898	-5.96572e-06	53446.1
2	1	0	1	0	0	511.754	0.550397	0.550153	-0.00916774	3	0.0161213	11	0	10.1858	-5.04366e-06	60009.6
2	1	0	1	0	0	514.65	0.535917	0.535653	-0.00770498	3	0.0160923	11	0	13.0818	-4.12719e-06	69520.3
2	1	0	1	0	0	517.546	0.521437	0.521214	-0.00809785	3	0.0160618	11	0	15.9778	-4.22072e-06	64364.5
2	0	0	1	0	0	520.442	0.506957	0.506714	-0.00967716	3	0.0160297	11	0	18.8738	-4.90355e-06	52361.9
2	0	0	1	0	0	523.338	0.492476	0.492269	-0.0134006	3	0.0159965	11	0	21.7698	-6.59672e-06	36734.7
2	1	0	1	0	0	526.234	0.477996	0.477754	-0.0112701	3	0.0159625	11	0	24.6658	-5.38435e-06	42391.1
2	0	0	0	0	0	529.13	0.463517	0.463267	-0.0123531	3	0.0159268	11	0	27.5617	-5.72277e-06	37502.2
2	1	0	0	0	1	531.884	0.450285	0.450069	0.00556019	4	0.0158929	11	0	0.000000000000000E+000	2.50247e-06	80945
2	1	0	0	0	1	534.78	0.464765	0.464547	0.0148047	4	0.0159271	11	0	2.896	6.87746e-06	31378.4
2	0	0	0	0	1	537.676	0.479245	0.479019	0.0110124	4	0.0159632	11	0	5.792	5.27514e-06	43498.2
2	1	0	0	0	1	540.572	0.493725	0.493513	0.010259	4	0.0159996	11	0	8.688	5.06293e-06	48105.5
2	1	0	0	0	1	543.468	0.508205	0.507996	0.0151654	4	0.0160359	11	0	11.584	7.70395e-06	33497.1
2	0	0	1	0	1	546.363	0.522684	0.522477	0.0114694	4	0.0160722	11	0	14.4799	5.99252e-06	45553.9
2	1	0	1	0	1	549.259	0.537165	0.536984	0.0115911	4	0.0161088	11	0	17.3759	6.22422e-06	46327.3
2	1	0	1	0	1	552.155	0.551645	0.551386	0.0146124	4	0.0161459	11	0	20.2719	8.05708e-06	37734.1
2	1	0	1	0	1	555.051	0.566125	0.565904	0.012106	4	0.0161847	11	0	23.1679	6.85085e-06	46745.7
2	1	0	1	0	1	557.947	0.580605	0.580417	0.0168295	4	0.0162264	11	0	26.0639	9.76814e-06	34488.1
2	1	0	1	0	1	560.843	0.595085	0.594863	0.0160343	4	0.0162739	11	0	28.9599	9.5382e-06	37099.5
2	1	0	1	0	1	563.739	0.609565	0.609343	0.0241714	4	0.0163327	11	0	31.8559	1.47287e-05	25209.3
2	1	0	1	0	1	566.635	0.624045	0.623837	0.0319298	4	0.0164126	11	0	34.7519	1.9919e-05	19537.8
2	1	0	1	0	1	569.531	0.638524	0.63829	0.050401	4	0.0165311	11	0	37.6478	3.21705e-05	12664.2
2	1	0	1	0	1	572.427	0.653004	0.652752	0.0863293	4	0.0167222	11	0	40.5438	5.63516e-05	7561.18
2	1	0	1	0	1	575.323	0.667484	0.66726	0.143665	4	0.0170469	11	0	43.4398	9.58621e-05	4644.55
2	1	0	1	0	1	578.219	0.681964	0.681751	0.254248	4	0.0176131	11	0	46.3358	0.000173334	2681.44
2	1	0	1	0	1	581.115	0.696444	0.696211	0.433244	4	0.0185898	11	0	49.2318	0.00030163	1606.97
2	1	0	1	0	1	583.784	0.690202	0.690006	0.321036	4	0.0196889	11	0	51.9003	0.000221517	2149.31
2	1	0	1	0	1	586.68	0.675722	0.67552	0.176203	4	0.0203921	11	0	54.7963	0.000119028	3833.77
2	1	0	1	0	1	589.576	0.661242	0.661005	0.0936213	4	0.0207704	11	0	57.6923	6.18841e-05	7060.42
2	1	0	1	0	1	592.472	0.646762	0.646539	0.0463342	4	0.0209641	11	0	60.5883	2.99568e-05	13953.8
2	1	0	1	0	1	595.368	0.632283	0.632067	0.0198121	4	0.021056	11	0	63.4842	1.25226e-05	31903.1
2	0	0	1	0	1	598.264	0.617803	0.617549	0.00432053	4	0.0210927	11	0	66.3802	2.66814e-06	142934
2	1	0	1	0	1	601.16	0.603323	0.603124	0.0010914	4	0.0210993	11	0	0.000000000000000E+000	6.58252e-07	552613
2	0	0	1	0	1	604.056	0.588843	0.588577	-0.00759596	4	0.0210893	11	0	2.7961	-4.47081e-06	77485.4
2	1	0	1	0	1	606.952	0.574363	0.574084	-0.00545961	4	0.0210703	11	0	5.6921	-3.13427e-06	105151
2	0	0	1	0	1	609.848	0.559884	0.559641	-0.00958456	4	0.0210458	11	0	8.588	-5.36391e-06	58389.8
2	0	0	1	0	1	612.744	0.545404	0.545176	-0.0111097	4	0.0210181	11	0	11.484	-6.05672e-06	49072.2
2	1	0	1	0	1	615.64	0.530924	0.530711	-0.00801092	4	0.0209887	11	0	14.38	-4.25149e-06	66248.5
2	0	0	1	0	1	618.536	0.516444	0.516235	-0.0132547	4	0.0209574	11	0	17.276	-6.84256e-06	38947.2
2	1	0	1	0	1	621.432	0.501964	0.501725	-0.00903707	4	0.0209251	11	0	20.172	-4.53412e-06	55518.6
2	0	0	1	0	1	624.328	0.487484	0.487262	-0.0139473	4	0.0208917	11	0	23.068	-6.79599e-06	34935.9
2	0	0	1	0	1	627.224	0.473004	0.472767	-0.0120049	4	0.0208571	11	0	25.964	-5.67553e-06	39381.1
2	1	0	1	0	1	630.12	0.458523	0.458313	-0.0104235	4	0.0208214	11	0	28.86	-4.77723e-06	43969.1
2	1	0	1	0	0	632.873	0.455279	0.455061	0.00948746	5	0.0208111	11	0	0.9987	4.31737e-06	47964.4
2	1	0	0	0	0	635.769	0.469758	0.469568	0.0130108	5	0.0208465	11	0	3.8946	6.10943e-06	36090.7
2	1	0	0	0	0	638.665	0.484238	0.484007	0.0129801	5	0.0208828	11	0	6.7906	6.28244e-06	37288.5
2	1	0	0	0	0	641.561	0.498718	0.498469	0.0102927	5	0.0209189	11	0	9.6866	5.13059e-06	48429.4
2	1	0	0	0	0	644.457	0.513198	0.512957	0.0149758	5	0.0209553	11	0	12.5826	7.68194e-06	34252.4
2	1	0	1	0	0	647.353	0.527678	0.527497	0.0103992	5	0.0209915	11	0	15.4785	5.48553e-06	50724.9
2	1	0	1	0	0	650.249	0.542158	0.54192	0.0123179	5	0.0210278	11	0	18.3745	6.67529e-06	43994.6
2	1	0	1	0	0	653.145	0.556638	0.556467	0.0150964	5	0.0210654	11	0	21.2705	8.40063e-06	36861
2	1	0	1	0	0	656.041	0.571118	0.570919	0.0114689	5	0.0211045	11	0	24.1665	6.54783e-06	49779.6
2	1	0	1	0	0	658.937	0.585598	0.585429	0.0175587	5	0.0211473	11	0	27.0625	1.02794e-05	33341.2
2	1	0	1	0	0	661.833	0.600078	0.599799	0.0200995	5	0.0211973	11	0	29.9585	1.20557e-05	29841.5
2	1	0	1	0	0	664.729	0.614558	0.614319	0.0232867	5	0.0212607	11	0	32.8545	1.43055e-05	26380.6
2	1	0	1	0	0	667.625	0.629038	0.628808	0.0347132	5	0.0213493	11	0	35.7505	2.18279e-05	18114.4
2	1	0	1	0	0	670.521	0.643517	0.643282	0.0576575	5	0.0214845	11	0	38.6464	3.709e-05	11157
2	1	0	1	0	0	673.417	0.657997	0.65778	0.101297	5	0.0217076	11	0	41.5424	6.66314e-05	6493.55
2	1	0	1	0	0	676.313	0.672477	0.672262	0.170586	5	0.0220918	11	0	44.4384	0.000114678	3940.9
2	1	0	1	0	0	679.209	0.686957	0.686739	0.303769	5	0.0227641	11	0	47.3344	0.00020861	2260.72
2	1	0	1	0	0	681.877	0.69969	0.6994	0.463897	5	0.0238007	11	0	50.0029	0.000324449	1507.66
2	1	0	1	0	0	684.773	0.68521	0.68502	0.260476	5	0.0248175	11	0	52.8989	0.000178431	2629.87
2	1	0	1	0	0	687.669	0.67073	0.670529	0.139742	5	0.0253753	11	0	55.7949	9.37014e-05	4798.32
2	1	0	1	0	0	690.565	0.65625	0.656023	0.0692574	5	0.0256697	11	0	58.6909	4.54345e-05	9472.25
2	1	0	1	0	0	693.461	0.641769	0.641534	0.0339852	5	0.0258169	11	0	61.5869	2.18027e-05	18876.8
2	1	0	1	0	0	696.357	0.627289	0.627064	0.0163614	5	0.0258835	11	0	64.4829	1.02596e-05	38325.7
2	1	0	1	0	0	699.253	0.61281	0.612572	0.00419102	5	0.0259062	11	0	67.3788	2.56731e-06	146163
2	0	0	1	0	0	702.149	0.59833	0.598085	-0.00478077	5	0.0259055	11	0	1.2982	-2.85931e-06	125102
2	0	0	1	0	0	705.045	0.58385	0.583614	-0.0073365	5	0.0258917	11	0	4.1942	-4.28169e-06	79549.3
2	1	0	1	0	0	707.941	0.56937	0.569111	-0.00598177	5	0.0258703	11	0	7.0902	-3.40429e-06	95140.8
2	0	0	1	0	0	710.837	0.55489	0.554647	-0.0115433	5	0.0258445	11	0	9.9862	-6.40246e-06	48049.2
2	1	0	1	0	0	713.733	0.540411	0.540145	-0.00794503	5	0.0258164	11	0	12.8821	-4.29147e-06	67985.3
2	0	0	1	0	0	716.629	0.525931	0.525731	-0.00986409	5	0.0257863	11	0	15.7781	-5.18586e-06	53297.5
2	0	0	1	0	0	719.525	0.511451	0.511246	-0.0135361	5	0.0257547	11	0	18.6741	-6.92028e-06	37769
2	0	0	1	0	0	722.421	0.496971	0.49675	-0.0133317	5	0.0257223	11	0	21.5701	-6.62251e-06	37260.8
2	1	0	1	0	0	725.317	0.482491	0.482236	-0.0120583	5	0.0256887	11	0	24.4661	-5.81495e-06	39992
2	0	0	1	0	0	728.213	0.468011	0.467777	-0.0119053	5	0.0256537	11	0	27.3621	-5.56901e-06	39291.6
2	0	0	1	0	0	731.109	0.45353	0.453282	-0.0126806	5	0.0256176	11	0	30.2581	-5.74791e-06	35746
2	1	0	1	0	1	733.862	0.460272	0.460012	0.0147953	6	0.025632	11	0	1.9973	6.80603e-06	31091.7
2	1	0	0	0	1	736.758	0.474751	0.474501	0.0146362	6	0.0256678	11	0	4.8932	6.94487e-06	32419.7
2	0	0	0	0	1	739.654	0.489231	0.489008	0.0117934	6	0.0257038	11	0	7.7892	5.76708e-06	41464.5
2	0	0	0	0	1	742.55	0.503711	0.503493	0.00983237	6	0.02574	11	0	10.6852	4.95053e-06	51207.7
2	1	0	0	0	1	745.446	0.518191	0.51798	0.0106746	6	0.0257762	11	0	13.5812	5.52923e-06	48524.6
2	1	0	0	0	1	748.342	0.532671	0.532433	0.0135982	6	0.0258122	11	0	16.4772	7.24014e-06	39154.5
2	1	0	0	0	1	751.238	0.547151	0.546928	0.0151012	6	0.0258487	11	0	19.3732	8.2593e-06	36217.4
2	1	0	1	0	1	754.134	0.56163	0.561389	0.0136538	6	0.0258864	11	0	22.2691	7.66508e-06	41116
2	1	0	1	0	1	757.03	0.576111	0.575845	0.0123384	6	0.0259262	11	0	25.1651	7.10499e-06	46671.2
2	1	0	1	0	1	759.926	0.590591	0.590373	0.0156125	6	0.0259707	11	0	28.0611	9.2172e-06	37814.1
2	1	0	1	0	1	762.822	0.605071	0.604859	0.0221735	6	0.0260237	11	0	30.9571	1.34119e-05	27278.4
2	1	0	1	0	1	765.718	0.619551	0.619355	0.0256831	6	0.0260931	11	0	33.8531	1.5907e-05	24115.3
2	1	0	1	0	1	768.614	0.634031	0.63382	0.0436359	6	0.0261927	11	0	36.7491	2.76573e-05	14525.2
2	1	0	1	0	1	771.51	0.648511	0.648326	0.0690418	6	0.0263493	11	0	39.6451	4.47616e-05	9390.33
2	1	0	1	0	1	774.406	0.662991	0.662835	0.115282	6	0.0266126	11	0	42.5411	7.64129e-05	5749.69
2	1	0	1	0	1	777.302	0.67747	0.677251	0.20735	6	0.0270709	11	0	45.437	0.000140428	3266.23
2	1	0	1	0	1	780.198	0.69195	0.691711	0.359174	6	0.0278706	11	0	48.333	0.000248445	1925.84
2	1	0	1	0	1	782.867	0.694697	0.694479	0.37506	6	0.0289797	11	0	51.0015	0.000260471	1851.65
2	1	0	1	0	1	785.763	0.680217	0.680004	0.209075	6	0.0297991	11	0	53.8975	0.000142172	3252.44
2	1	0	1	0	1	788.659	0.665737	0.665475	0.108081	6	0.0302416	11	0	56.7935	7.1925e-05	6157.21
2	1	0	1	0	1	791.555	0.651257	0.651026	0.0522879	6	0.0304697	11	0	59.6895	3.40408e-05	12450.8
2	1	0	1	0	1	794.451	0.636777	0.636567	0.0261361	6	0.0305804	11	0	62.5855	1.66374e-05	24355.9
2	1	0	1	0	1	797.347	0.622297	0.622077	0.0100701	6	0.0306269	11	0	65.4815	6.26439e-06	61774.5
2	0	0	1	0	1	800.243	0.607816	0.607586	-0.00202681	6	0.030639	11	0	0.000000000000000E+000	-1.23146e-06	299774
2	1	0	1	0	1	803.139	0.593337	0.593118	-0.00308208	6	0.0306325	11	0	1.9972	-1.82804e-06	192441
2	1	0	1	0	1	806.035	0.578857	0.578583	-0.00566238	6	0.0306152	11	0	4.8932	-3.27616e-06	102180
2	0	0	1	0	1	808.931	0.564377	0.564204	-0.0108969	6	0.0305919	11	0	7.7892	-6.14806e-06	51776.7
2	1	0	1	0	1	811.827	0.549897	0.549681	-0.00888274	6	0.0305653	11	0	10.6852	-4.88267e-06	61881.9
2	0	0	1	0	1	814.723	0.535417	0.535173	-0.00825677	6	0.0305364	11	0	13.5812	-4.41879e-06	64816.2
2	0	0	1	0	1	817.618	0.520938	0.520713	-0.0118264	6	0.0305057	11	0	16.4771	-6.15818e-06	44029.6
2	0	0	1	0	1	820.514	0.506458	0.506243	-0.0136232	6	0.030474	11	0	19.3731	-6.89663e-06	37160.4
2	0	0	1	0	1	823.41	0.491978	0.49178	-0.0128911	6	0.0304414	11	0	22.2691	-6.3396e-06	38148.6
2	1	0	1	0	1	826.306	0.477498	0.477283	-0.011942	6	0.0304074	11	0	25.1651	-5.69973e-06	39966.6
2	1	0	1	0	1	829.202	0.463018	0.462737	-0.0111725	6	0.0303721	11	0	28.0611	-5.16996e-06	41417.4
2	1	0	1	0	0	831.956	0.450785	0.450552	0.0130428	7	0.0303406	11	0	0.0999	5.87645e-06	34544.2
2	1	0	1	0	0	834.852	0.465265	0.465026	0.0145911	7	0.030375	11	0	2.9959	6.78525e-06	31870.5
2	1	0	1	0	0	837.748	0.479745	0.4795	0.0123246	7	0.0304108	11	0	5.8919	5.90966e-06	38905.8
2	0	0	1	0	0	840.644	0.494225	0.49402	0.0103985	7	0.030447	11	0	8.7879	5.13708e-06	47508.6
2	1	0	0	0	0	843.54	0.508704	0.508518	0.0097143	7	0.0304832	11	0	11.6838	4.9399e-06	52347.4
2	1	0	0	0	0	846.436	0.523184	0.522981	0.0103448	7	0.0305193	11	0	14.5798	5.41014e-06	50554.9
2	1	0	0	0	0	849.332	0.537664	0.537389	0.0116019	7	0.0305554	11	0	17.4758	6.23474e-06	46319
2	1	0	0	0	0	852.228	0.552144	0.551913	0.0124624	7	0.0305923	11	0	20.3718	6.87816e-06	44286.3
2	1	0	0	0	0	855.124	0.566624	0.566414	0.0125071	7	0.0306305	11	0	23.2678	7.08419e-06	45287.5
2	1	0	1	0	0	858.02	0.581103	0.580838	0.016435	7	0.0306715	11	0	26.1637	9.54605e-06	35341.5
2	1	0	1	0	0	860.916	0.595584	0.595385	0.0198493	7	0.0307179	11	0	29.0597	1.1818e-05	29995.3
2	1	0	1	0	0	863.812	0.610064	0.60984	0.0218382	7	0.0307749	11	0	31.9557	1.33178e-05	27925.3
2	1	0	1	0	0	866.708	0.624544	0.624324	0.0289647	7	0.0308517	11	0	34.8517	1.80834e-05	21554.6
2	1	0	1	0	0	869.604	0.639024	0.638805	0.0480587	7	0.0309657	11	0	37.7477	3.07001e-05	13292.2
2	1	0	1	0	0	872.5	0.653504	0.653271	0.0818773	7	0.0311493	11	0	40.6437	5.34881e-05	7978.66
2	1	0	1	0	0	875.396	0.667984	0.667752	0.142157	7	0.0314623	11	0	43.5397	9.49258e-05	4697.28
2	1	0	1	0	0	878.292	0.682464	0.682268	0.249474	7	0.0320107	11	0	46.4357	0.000170208	2734.82
2	1	0	1	0	0	881.188	0.696943	0.696699	0.422992	7	0.0329616	11	0	49.3316	0.000294698	1647.07
2	1	0	1	0	0	883.856	0.689704	0.689506	0.30174	7	0.0340056	11	0	52.0001	0.000208052	2285.1
2	1	0	1	0	0	886.752	0.675224	0.675013	0.164205	7	0.0346622	11	0	54.8961	0.000110841	4110.78
2	1	0	1	0	0	889.648	0.660744	0.660543	0.0833676	7	0.0350119	11	0	57.7921	5.50679e-05	7923.27
2	1	0	1	0	0	892.544	0.646264	0.646071	0.0409515	7	0.0351888	11	0	60.6881	2.64576e-05	15776.5
2	1	0	1	0	0	895.44	0.631783	0.631546	0.0166238	7	0.035271	11	0	63.5841	1.04987e-05	37990.5
2	1	0	1	0	0	898.336	0.617303	0.617074	0.00396248	7	0.0353022	11	0	66.4801	2.44515e-06	155729
2	1	0	1	0	0	901.232	0.602823	0.602577	-0.000379157	7	0.0353062	11	0	0.0999	-2.28471e-07	1.58925e+06
2	1	0	1	0	0	904.128	0.588343	0.588106	-0.00301993	7	0.0352951	11	0	2.9959	-1.77604e-06	194742
2	0	0	1	0	0	907.024	0.573864	0.573641	-0.00592592	7	0.0352753	11	0	5.8918	-3.39935e-06	96802
2	0	0	1	0	0	909.92	0.559384	0.559147	-0.0078432	7	0.0352507	11	0	8.7878	-4.38551e-06	71290.7
2	0	0	1	0	0	912.816	0.544904	0.544687	-0.0106337	7	0.0352233	11	0	11.6838	-5.79201e-06	51222.9
2	0	0	1	0	0	915.712	0.530424	0.530218	-0.0128706	7	0.035194	11	0	14.5798	-6.82422e-06	41196.1
2	0	0	1	0	0	918.608	0.515944	0.515752	-0.0105959	7	0.0351632	11	0	17.4758	-5.46485e-06	48674.8
2	0	0	1	0	0	921.504	0.501465	0.501242	-0.0118004	7	0.0351311	11	0	20.3717	-5.91486e-06	42476.7
2	0	0	1	0	0	924.4	0.486985	0.486804	-0.0134804	7	0.0350981	11	0	23.2677	-6.56232e-06	36111.9
2	1	0	1	0	0	927.296	0.472505	0.472218	-0.0111527	7	0.0350638	11	0	26.1637	-5.2665e-06	42341.1
2	1	0	1	0	0	930.192	0.458025	0.457805	-0.0105194	7	0.0350283	11	0	29.0597	-4.81582e-06	43520.1
2	1	0	1	0	1	932.945	0.455778	0.455566	0.0146263	8	0.0350207	11	0	1.0985	6.66326e-06	31146.9
2	1	0	1	0	1	935.841	0.470258	0.470047	0.0146636	8	0.035056	11	0	3.9945	6.89257e-06	32055.4
2	1	0	1	0	1	938.737	0.484738	0.484501	0.0131556	8	0.0350919	11	0	6.8905	6.37388e-06	36828.7
2	1	0	1	0	1	941.633	0.499218	0.499022	0.0139405	8	0.0351281	11	0	9.7865	6.95661e-06	35796.5
2	0	0	0	0	1	944.529	0.513697	0.513467	0.0101604	8	0.0351639	11	0	12.6824	5.21703e-06	50536.1
2	1	0	0	0	1	947.425	0.528177	0.528016	0.0147975	8	0.0351999	11	0	15.5784	7.81333e-06	35682.7
2	1	0	0	0	1	950.321	0.542657	0.542432	0.0110299	8	0.0352361	11	0	18.4744	5.98298e-06	49178.3
2	1	0	0	0	1	953.217	0.557137	0.556874	0.0136501	8	0.0352731	11	0	21.3704	7.60136e-06	40796.4
2	1	0	0	0	1	956.113	0.571617	0.571402	0.0134041	8	0.0353118	11	0	24.2664	7.65912e-06	42629
2	1	0	1	0	1	959.009	0.586097	0.585878	0.015802	8	0.0353537	11	0	27.1623	9.25805e-06	37076.1
2	1	0	1	0	1	961.905	0.600576	0.600331	0.0174198	8	0.0354028	11	0	30.0583	1.04576e-05	34462.6
2	1	0	1	0	1	964.801	0.615057	0.614847	0.0262513	8	0.0354646	11	0	32.9543	1.61405e-05	23421.6
2	1	0	1	0	1	967.697	0.629537	0.629323	0.0332376	8	0.0355505	11	0	35.8503	2.09172e-05	18934.1
2	1	0	1	0	1	970.593	0.644017	0.643856	0.0587013	8	0.0356817	11	0	38.7463	3.77951e-05	10968.3
2	1	0	1	0	1	973.489	0.658497	0.658249	0.0969152	8	0.0358978	11	0	41.6423	6.37943e-05	6792.01
2	1	0	1	0	1	976.385	0.672977	0.672783	0.16647	8	0.0362717	11	0	44.5383	0.000111999	4041.46
2	1	0	1	0	1	979.281	0.687457	0.68725	0.295666	8	0.0369283	11	0	47.4343	0.000203196	2324.41
2	1	0	0	0	1	981.95	0.69919	0.698963	0.435543	8	0.0379392	11	0	50.1028	0.000304428	1604.81
2	1	0	0	0	1	984.846	0.68471	0.684531	0.241628	8	0.0388975	11	0	52.9988	0.000165402	2832.99
2	1	0	1	0	1	987.741	0.670231	0.669953	0.130994	8	0.0394205	11	0	55.8947	8.77599e-05	5114.37
2	1	0	1	0	1	990.637	0.655751	0.655445	0.0682312	8	0.0396931	11	0	58.7907	4.47218e-05	9606.24
2	1	0	1	0	1	993.533	0.641271	0.641011	0.0318893	8	0.0398278	11	0	61.6867	2.04414e-05	20101.2
2	1	0	1	0	1	996.429	0.626791	0.626531	0.0112989	8	0.0398872	11	0	64.5827	7.07912e-06	55450.6
2	0	0	1	0	1	999.325	0.612311	0.612129	0.000195229	8	0.0399063	11	0	67.4787	1.19506e-07	3.13544e+06
2	0	0	1	0	1	1002.22	0.59783	0.59761	-0.00583935	8	0.0399036	11	0	1.8974	-3.48966e-06	102342
2	0	0	1	0	1	1005.12	0.58335	0.583154	-0.00904796	8	0.0398886	11	0	4.7934	-5.27635e-06	64451.4
2	0	0	1	0	1	1008.01	0.56887	0.568646	-0.0108794	8	0.0398667	11	0	7.6894	-6.18655e-06	52267.9
2	0	0	1	0	1	1010.91	0.554391	0.554153	-0.0118544	8	0.0398409	11	0	10.5853	-6.56916e-06	46746.5
2	0	0	1	0	1	1013.81	0.539911	0.539647	-0.0119834	8	0.0398127	11	0	13.4813	-6.46679e-06	45032.9
2	0	0	1	0	1	1016.7	0.525431	0.525248	-0.0125293	8	0.0397826	11	0	16.3773	-6.58097e-06	41921.8
2	0	0	1	0	1	1019.6	0.510951	0.510731	-0.0129213	8	0.0397514	11	0	19.2733	-6.59932e-06	39526.3
2	0	0	1	0	1	1022.49	0.496471	0.496229	-0.0133455	8	0.039719	11	0	22.1693	-6.62242e-06	37183.3
2	0	0	1	0	1	1025.39	0.481992	0.481758	-0.0132198	8	0.0396854	11	0	25.0652	-6.36875e-06	36442.2
2	0	0	1	0	1	1028.29	0.467512	0.467247	-0.0126229	8	0.0396506	11	0	27.9612	-5.89799e-06	37015.9
2	0	0	1	0	1	1031.18	0.453032	0.452848	-0.012501	8	0.0396147	11	0	30.8572	-5.66106e-06	36224.9
2	0	0	1	0	0	1033.93	0.460771	0.460537	0.010481	9	0.0396314	11	0	2.0971	4.8269e-06	43940.1
2	1	0	1	0	0	1036.83	0.475251	0.474986	0.0111713	9	0.039667	11	0	4.9931	5.30622e-06	42518.4
2	1	0	1	0	0	1039.73	0.489731	0.489526	0.0122742	9	0.0397029	11	0	7.8891	6.00857e-06	39882.4
2	1	0	1	0	0	1042.62	0.504211	0.503957	0.0137704	9	0.039739	11	0	10.7851	6.93969e-06	36597
2	1	0	1	0	0	1045.52	0.518691	0.518497	0.0145851	9	0.0397748	11	0	13.6811	7.56232e-06	35549.8
2	1	0	1	0	0	1048.41	0.533171	0.532984	0.0150872	9	0.0398107	11	0	16.5771	8.04124e-06	35326.9
2	1	0	0	0	0	1051.31	0.54765	0.547457	0.01467	9	0.039847	11	0	19.473	8.0312e-06	37318.2
2	1	0	0	0	0	1054.21	0.56213	0.561882	0.0137498	9	0.0398842	11	0	22.369	7.72578e-06	40864.6
2	1	0	0	0	0	1057.1	0.57661	0.576346	0.0123083	9	0.0399234	11	0	25.265	7.09383e-06	46825.8
2	1	0	0	0	0	1060	0.59109	0.590863	0.0138133	9	0.039967	11	0	28.161	8.16176e-06	42774.9
2	1	0	1	0	0	1062.89	0.60557	0.605405	0.01736	9	0.0400191	11	0	31.0569	1.05098e-05	34873.5
2	1	0	1	0	0	1065.79	0.62005	0.619821	0.0253456	9	0.0400867	11	0	33.9529	1.57098e-05	24454.7
2	1	0	1	0	0	1068.69	0.63453	0.634272	0.0411119	9	0.0401839	11	0	36.8489	2.60761e-05	15428
2	1	0	1	0	0	1071.58	0.64901	0.648881	0.0694539	9	0.0403367	11	0	39.7449	4.50673e-05	9342.61
2	1	0	1	0	0	1074.48	0.66349	0.663305	0.114719	9	0.0405937	11	0	42.6409	7.60937e-05	5781.99
2	1	0	1	0	0	1077.37	0.67797	0.677752	0.200212	9	0.0410419	11	0	45.5369	0.000135694	3385.17
2	1	0	1	0	0	1080.27	0.69245	0.69225	0.35145	9	0.0418249	11	0	48.4329	0.000243292	1969.7
2	1	0	0	0	0	1082.94	0.694197	0.694012	0.352338	9	0.0428914	11	0	51.1014	0.000244527	1969.73
2	1	0	0	0	0	1085.83	0.679717	0.679498	0.193794	9	0.0436579	11	0	53.9974	0.000131683	3506.29
2	1	0	0	0	0	1088.73	0.665237	0.665037	0.0980538	9	0.0440671	11	0	56.8934	6.52094e-05	6782.37
2	1	0	1	0	0	1091.63	0.650758	0.650567	0.050395	9	0.0442772	11	0	59.7893	3.27853e-05	12909.4
2	1	0	1	0	0	1094.52	0.636278	0.636113	0.0240317	9	0.0443777	11	0	62.6853	1.52869e-05	26469.8
2	1	0	1	0	0	1097.42	0.621798	0.621562	0.00519949	9	0.0444189	11	0	65.5813	3.2318e-06	119543
2	0	0	1	0	0	1100.31	0.607318	0.607142	0.000431846	9	0.0444283	11	0	0.000000000000000E+000	2.62192e-07	1.40592e+06
2	1	0	1	0	0	1103.21	0.592838	0.592612	-0.00268137	9	0.0444204	11	0	2.4966	-1.58901e-06	221010
2	0	0	1	0	0	1106.11	0.578358	0.578136	-0.0089848	9	0.0444023	11	0	5.3926	-5.19444e-06	64346
2	0	0	1	0	0	1109	0.563878	0.563652	-0.00985734	9	0.0443787	11	0	8.2886	-5.55611e-06	57180.9
2	0	0	1	0	0	1111.9	0.549397	0.549173	-0.00722089	9	0.044352	11	0	11.1846	-3.96552e-06	76053.3
2	1	0	1	0	0	1114.79	0.534918	0.53472	-0.00910649	9	0.044323	11	0	14.0805	-4.86942e-06	58718.5
2	0	0	1	0	0	1117.69	0.520438	0.520222	-0.0131426	9	0.0442923	11	0	16.9765	-6.83705e-06	39583
2	0	0	1	0	0	1120.59	0.505958	0.505732	-0.0109116	9	0.0442607	11	0	19.8725	-5.51834e-06	46348.1
2	1	0	1	0	0	1123.48	0.491478	0.491279	-0.00899819	9	0.0442281	11	0	22.7685	-4.42062e-06	54597.6
2	1	0	1	0	0	1126.38	0.476998	0.47677	-0.0102079	9	0.0441941	11	0	25.6645	-4.86681e-06	46706.1
2	0	0	1	0	0	1129.27	0.462519	0.462278	-0.0120824	9	0.0441589	11	0	28.5604	-5.58542e-06	38260.5
2	1	0	1	0	1	1132.03	0.451284	0.451068	0.0098625	10	0.0441297	11	0	0.1997	4.44866e-06	45735.7
2	1	0	1	0	1	1134.92	0.465764	0.465514	0.00960118	10	0.0441638	11	0	3.0957	4.46948e-06	48485.1
2	0	0	1	0	1	1137.82	0.480244	0.480012	0.0104863	10	0.0441993	11	0	5.9917	5.03357e-06	45775
2	1	0	1	0	1	1140.72	0.494724	0.494527	0.0143606	10	0.0442352	11	0	8.8877	7.1017e-06	34436.4
2	1	0	1	0	1	1143.61	0.509204	0.508989	0.0140861	10	0.044271	11	0	11.7837	7.16965e-06	36134.2
2	1	0	1	0	1	1146.51	0.523684	0.523443	0.0104428	10	0.0443063	11	0	14.6797	5.46622e-06	50124.7
2	0	0	1	0	1	1149.4	0.538164	0.53792	0.0105182	10	0.044342	11	0	17.5757	5.65793e-06	51142.1
2	1	0	1	0	1	1152.3	0.552644	0.552451	0.0146973	10	0.0443783	11	0	20.4717	8.11952e-06	37588.7
2	1	0	0	0	1	1155.2	0.567123	0.566927	0.0154396	10	0.0444158	11	0	23.3676	8.75315e-06	36719
2	1	0	0	0	1	1158.09	0.581603	0.581329	0.0149081	10	0.0444561	11	0	26.2636	8.66648e-06	38994.3
2	1	0	0	0	1	1160.99	0.596083	0.595846	0.0146875	10	0.0445018	11	0	29.1596	8.75151e-06	40568.1
2	1	0	0	0	1	1163.88	0.610563	0.610365	0.0221889	10	0.0445576	11	0	32.0556	1.35433e-05	27507.6
2	1	0	0	0	1	1166.78	0.625043	0.624821	0.0329646	10	0.0446327	11	0	34.9516	2.0597e-05	18954.3
2	1	0	1	0	1	1169.68	0.639522	0.639301	0.0455242	10	0.0447439	11	0	37.8475	2.91036e-05	14043.1
2	1	0	1	0	1	1172.57	0.654003	0.653837	0.0798086	10	0.0449234	11	0	40.7435	5.21818e-05	8192.56
2	1	0	1	0	1	1175.47	0.668483	0.668278	0.139735	10	0.0452311	11	0	43.6395	9.33817e-05	4782.47
2	1	0	1	0	1	1178.36	0.682963	0.682769	0.241026	10	0.0457711	11	0	46.5355	0.000164565	2832.77
2	1	0	1	0	1	1181.26	0.697443	0.697225	0.419549	10	0.0467095	11	0	49.4315	0.00029252	1661.84
2	1	0	0	0	1	1183.93	0.689204	0.689023	0.287208	10	0.0477061	11	0	52.1	0.000197893	2399.03
2	1	0	0	0	1	1186.82	0.674724	0.674558	0.155699	10	0.0483296	11	0	54.996	0.000105028	4332.46
2	1	0	0	0	1	1189.72	0.660244	0.660029	0.07826	10	0.0486619	11	0	57.892	5.16539e-05	8433.79
2	1	0	0	0	1	1192.62	0.645764	0.645562	0.0374827	10	0.0488275	11	0	60.788	2.41974e-05	17222.9
2	1	0	1	0	1	1195.51	0.631285	0.631056	0.0155071	10	0.0489028	11	0	63.6839	9.78588e-06	40694.5
2	1	0	1	0	1	1198.41	0.616805	0.616564	0.00434485	10	0.0489301	11	0	66.5799	2.67888e-06	141907
2	1	0	1	0	1	1201.3	0.602325	0.602054	-0.00077411	10	0.048932	11	0	0.699	-4.66056e-07	777737
2	1	0	1	0	1	1204.2	0.587845	0.587635	-0.00343561	10	0.0489194	11	0	3.595	-2.01888e-06	171043
2	0	0	1	0	1	1207.1	0.573365	0.57314	-0.00676471	10	0.0488989	11	0	6.491	-3.87713e-06	84725
2	0	0	1	0	1	1209.99	0.558885	0.558702	-0.010771	10	0.0488739	11	0	9.387	-6.01778e-06	51871
2	0	0	1	0	1	1212.89	0.544404	0.544168	-0.0121903	10	0.0488463	11	0	12.283	-6.63357e-06	44639.4
2	0	0	1	0	1	1215.78	0.529924	0.529762	-0.0109585	10	0.0488167	11	0	15.179	-5.80542e-06	48342.4
2	1	0	1	0	1	1218.68	0.515445	0.51521	-0.0085702	10	0.0487858	11	0	18.0749	-4.41545e-06	60116.4
2	0	0	1	0	1	1221.58	0.500965	0.500718	-0.00919521	10	0.0487537	11	0	20.9709	-4.60421e-06	54454.2
2	0	0	1	0	1	1224.47	0.486485	0.486304	-0.0121519	10	0.0487205	11	0	23.8669	-5.90952e-06	40018.7
2	0	0	1	0	1	1227.37	0.472005	0.471794	-0.0142084	10	0.0486861	11	0	26.7629	-6.70344e-06	33205.4
2	0	0	1	0	1	1230.26	0.457525	0.457276	-0.0148066	10	0.0486506	11	0	29.6589	-6.77071e-06	30883.3
2	1	0	1	0	0	1233.02	0.456277	0.45602	0.0124924	11	0.0486454	11	0	1.1983	5.69677e-06	36503.9
2	1	0	1	0	0	1235.91	0.470756	0.47054	0.0145951	11	0.0486805	11	0	4.0943	6.86756e-06	32239.6
2	1	0	1	0	0	1238.81	0.485237	0.48497	0.0141552	11	0.0487162	11	0	6.9903	6.86483e-06	34261.1
2	0	0	1	0	0	1241.71	0.499717	0.499458	0.0108071	11	0.048752	11	0	9.8863	5.39771e-06	46215.6
2	1	0	1	0	0	1244.6	0.514197	0.513955	0.0100434	11	0.0487877	11	0	12.7823	5.16184e-06	51173.5
2	1	0	1	0	0	1247.5	0.528677	0.528491	0.012652	11	0.0488232	11	0	15.6783	6.68645e-06	41771.4
2	1	0	1	0	0	1250.39	0.543157	0.542923	0.0146525	11	0.048859	11	0	18.5743	7.95516e-06	37053.4
2	1	0	1	0	0	1253.29	0.557637	0.557403	0.0144216	11	0.0488955	11	0	21.4703	8.03861e-06	38650.7
2	1	0	0	0	0	1256.19	0.572116	0.571914	0.013822	11	0.0489336	11	0	24.3662	7.90501e-06	41377.1
2	1	0	0	0	0	1259.08	0.586596	0.586382	0.0148106	11	0.0489752	11	0	27.2622	8.6847e-06	39592
2	1	0	0	0	0	1261.98	0.601076	0.600868	0.0177729	11	0.0490234	11	0	30.1582	1.06792e-05	33808
2	1	0	0	0	0	1264.87	0.615556	0.615352	0.0242108	11	0.0490842	11	0	33.0542	1.48982e-05	25416.4
2	1	0	0	0	0	1267.77	0.630036	0.629827	0.0357058	11	0.0491685	11	0	35.9502	2.24885e-05	17639.4
2	1	0	0	0	0	1270.67	0.644516	0.644314	0.0574114	11	0.0492977	11	0	38.8462	3.69909e-05	11222.8
2	1	0	1	0	0	1273.56	0.658995	0.658769	0.0960261	11	0.0495109	11	0	41.7421	6.32591e-05	6860.31
2	1	0	1	0	0	1276.46	0.673476	0.673258	0.167794	11	0.0498815	11	0	44.6381	0.000112968	4012.42
2	1	0	1	0	0	1279.35	0.687956	0.687777	0.292739	11	0.0505358	11	0	47.5341	0.000201339	2349.46
2	1	0	1	0	0	1282.02	0.69869	0.698436	0.421774	11	0.0515406	11	0	50.2027	0.000294582	1655.95
2	1	0	0	0	0	1284.92	0.684211	0.683997	0.234225	11	0.0524667	11	0	53.0986	0.000160209	2920.25
2	1	0	0	0	0	1287.81	0.669731	0.669489	0.125134	11	0.0529697	11	0	55.9946	8.37757e-05	5350.19
2	1	0	0	0	0	1290.71	0.655251	0.655027	0.0631074	11	0.0532309	11	0	58.8906	4.1337e-05	10379.6
2	1	0	0	0	0	1293.61	0.640771	0.640541	0.0311136	11	0.0533577	11	0	61.7866	1.99295e-05	20587.2
2	1	0	0	0	0	1296.5	0.626291	0.626079	0.0102074	11	0.0534127	11	0	64.6826	6.39066e-06	61335.7
2	0	0	1	0	0	1299.4	0.611812	0.611619	-0.00062736	11	0.0534295	11	0	67.5785	-3.83705e-07	974909
2	1	0	1	0	0	1302.29	0.597332	0.597117	-0.0037767	11	0.0534254	11	0	1.5978	-2.25513e-06	158105
2	1	0	1	0	0	1305.19	0.582852	0.582629	-0.00407413	11	0.0534097	11	0	4.4938	-2.37371e-06	143007
2	1	0	1	0	0	1308.09	0.568372	0.568148	-0.00632106	11	0.0533875	11	0	7.3898	-3.5913e-06	89881.8
2	0	0	1	0	0	1310.98	0.553891	0.553678	-0.0086637	11	0.0533617	11	0	10.2858	-4.7969e-06	63907.8
2	0	0	1	0	0	1313.88	0.539411	0.539167	-0.0122987	11	0.0533333	11	0	13.1818	-6.63106e-06	43839.4
2	0	0	1	0	0	1316.77	0.524931	0.524684	-0.0126859	11	0.0533034	11	0	16.0778	-6.6561e-06	41359.6
2	0	0	1	0	0	1319.67	0.510451	0.510218	-0.0116857	11	0.0532723	11	0	18.9738	-5.96227e-06	43661.6
2	1	0	1	0	0	1322.57	0.495972	0.495693	-0.0101854	11	0.0532401	11	0	21.8697	-5.04881e-06	48667.2
2	1	0	1	0	0	1325.46	0.481492	0.48124	-0.00930484	11	0.0532066	11	0	24.7657	-4.47786e-06	51719.3
2	1	0	1	0	0	1328.36	0.467012	0.466783	-0.00931309	11	0.053172	11	0	27.6617	-4.34719e-06	50121.2
2	0	0	1	0	0	1331.25	0.452532	0.452328	-0.0100672	11	0.0531362	11	0	30.5577	-4.55366e-06	44931
2	1	0	1	0	1	1334.01	0.46127	0.461038	0.0129491	12	0.0531553	11	0	2.197	5.97001e-06	35604
2	1	0	1	0	1	1336.9	0.47575	0.475491	0.012625	12	0.0531907	11	0	5.093	6.00305e-06	37662.7
2	1	0	1	0	1	1339.8	0.49023	0.489996	0.0123799	12	0.0532264	11	0	7.9889	6.06609e-06	39580
2	1	0	1	0	1	1342.69	0.50471	0.504463	0.0119832	12	0.0532621	11	0	10.8849	6.04506e-06	42097.6
2	1	0	1	0	1	1345.59	0.51919	0.518933	0.0124764	12	0.0532976	11	0	13.7809	6.47443e-06	41593.1
2	1	0	1	0	1	1348.49	0.53367	0.53346	0.0130973	12	0.0533331	11	0	16.6769	6.98688e-06	40730.5
2	1	0	1	0	1	1351.38	0.54815	0.54794	0.0141	12	0.0533691	11	0	19.5729	7.72596e-06	38860.9
2	1	0	1	0	1	1354.28	0.56263	0.562459	0.0149837	12	0.053406	11	0	22.4689	8.42773e-06	37537.9
2	1	0	1	0	1	1357.17	0.57711	0.576835	0.0165668	12	0.0534448	11	0	25.3649	9.55631e-06	34818.7
2	1	0	1	0	1	1360.07	0.59159	0.591375	0.0185352	12	0.0534881	11	0	28.2609	1.09612e-05	31905.6
2	1	0	0	0	1	1362.97	0.606069	0.605884	0.0221721	12	0.0535396	11	0	31.1568	1.34337e-05	27326.5
2	1	0	0	0	1	1365.86	0.620549	0.620313	0.0292444	12	0.0536064	11	0	34.0528	1.81407e-05	21211.4
2	1	0	0	0	1	1368.76	0.635029	0.634844	0.0426016	12	0.0537024	11	0	36.9488	2.70454e-05	14901.9
2	1	0	0	0	1	1371.65	0.649509	0.649318	0.0675134	12	0.0538535	11	0	39.8448	4.38377e-05	9617.62
2	1	0	1	0	1	1374.55	0.663989	0.663835	0.114611	12	0.0541087	11	0	42.7407	7.60829e-05	5792.07
2	1	0	1	0	1	1377.45	0.678469	0.678253	0.200751	12	0.054556	11	0	45.6367	0.00013616	3378.58
2	1	0	1	0	1	1380.34	0.692949	0.692733	0.351421	12	0.0553447	11	0	48.5327	0.000243441	1971.24
2	1	0	1	0	1	1383.01	0.693698	0.69349	0.346586	12	0.056407	11	0	51.2013	0.000240354	2000.92
2	1	0	1	0	1	1385.91	0.679217	0.678977	0.187804	12	0.0571578	11	0	54.0973	0.000127514	3615.36
2	1	0	0	0	1	1388.8	0.664738	0.664508	0.095029	12	0.0575597	11	0	56.9932	6.31475e-05	6992.69
2	1	0	0	0	1	1391.7	0.650258	0.650051	0.0469415	12	0.0577625	11	0	59.8892	3.05144e-05	13848.1
2	1	0	0	0	1	1394.6	0.635778	0.635538	0.0228357	12	0.0578578	11	0	62.7852	1.4513e-05	27830.9
2	1	0	0	0	1	1397.49	0.621298	0.621002	0.00867106	12	0.0578957	11	0	65.6812	5.38475e-06	71617.8
2	0	0	0	0	1	1400.39	0.606818	0.606627	-0.00246138	12	0.0579032	11	0	0.000000000000000E+000	-1.49314e-06	246458
2	1	0	1	0	1	1403.28	0.592339	0.592109	-0.0027869	12	0.0578941	11	0	2.6962	-1.65015e-06	212461
2	0	0	1	0	1	1406.18	0.577859	0.577619	-0.00976086	12	0.0578754	11	0	5.5922	-5.63806e-06	59177.1
2	1	0	1	0	1	1409.08	0.563379	0.563133	-0.00865521	12	0.0578517	11	0	8.4882	-4.87404e-06	65062.9
2	0	0	1	0	1	1411.97	0.548899	0.548701	-0.00768407	12	0.0578247	11	0	11.3842	-4.21625e-06	71407.6
2	0	0	1	0	1	1414.87	0.534419	0.534199	-0.0122479	12	0.0577956	11	0	14.2802	-6.5428e-06	43615.8
2	0	0	1	0	1	1417.76	0.519939	0.519672	-0.0112862	12	0.0577652	11	0	17.1762	-5.8651e-06	46045
2	1	0	1	0	1	1420.66	0.505458	0.505215	-0.00847296	12	0.0577335	11	0	20.0722	-4.28067e-06	59626.8
2	0	0	1	0	1	1423.56	0.490978	0.490803	-0.0116352	12	0.0577007	11	0	22.9682	-5.71058e-06	42182.7
2	0	0	1	0	1	1426.45	0.476499	0.476237	-0.0143159	12	0.0576667	11	0	25.8641	-6.81778e-06	33266.2
2	0	0	1	0	1	1429.35	0.462019	0.461722	-0.0123687	12	0.0576318	11	0	28.7601	-5.71089e-06	37330
2	1	0	1	0	0	1432.1	0.451783	0.451575	0.0132866	13	0.057605	11	0	0.2996	5.99988e-06	33987.3
2	0	0	1	0	0	1435	0.466263	0.465983	0.0109837	13	0.0576391	11	0	3.1956	5.1182e-06	42425.1
2	1	0	1	0	0	1437.89	0.480743	0.480521	0.0100318	13	0.0576745	11	0	6.0916	4.82047e-06	47900
2	1	0	1	0	0	1440.79	0.495223	0.494972	0.0145337	13	0.0577102	11	0	8.9875	7.19376e-06	34056.9
2	1	0	1	0	0	1443.68	0.509702	0.509482	0.0119147	13	0.0577456	11	0	11.8835	6.07034e-06	42760.7
2	1	0	1	0	0	1446.58	0.524183	0.523931	0.00983418	13	0.0577809	11	0	14.7795	5.15242e-06	53276.5
2	1	0	1	0	0	1449.48	0.538663	0.538442	0.0145992	13	0.0578164	11	0	17.6755	7.86083e-06	36881.6
2	0	0	1	0	0	1452.37	0.553143	0.552889	0.0110456	13	0.0578524	11	0	20.5715	6.10698e-06	50055.3
2	1	0	1	0	0	1455.27	0.567623	0.567458	0.0144172	13	0.0578897	11	0	23.4675	8.18114e-06	39359.9
2	1	0	1	0	0	1458.16	0.582103	0.581855	0.016601	13	0.0579296	11	0	26.3635	9.65938e-06	35049.4
2	1	0	1	0	0	1461.06	0.596583	0.596379	0.0167243	13	0.057975	11	0	29.2595	9.97399e-06	35659.5
2	1	0	1	0	0	1463.96	0.611063	0.610883	0.0192551	13	0.0580304	11	0	32.1555	1.17626e-05	31725.7
2	1	0	0	0	0	1466.85	0.625542	0.625297	0.0291948	13	0.0581045	11	0	35.0514	1.82554e-05	21418.1
2	1	0	0	0	0	1469.75	0.640022	0.639801	0.0484916	13	0.0582147	11	0	37.9474	3.1025e-05	13194.1
2	1	0	0	0	0	1472.64	0.654502	0.654257	0.0811623	13	0.0583929	11	0	40.8434	5.3101e-05	8061.09
2	1	0	0	0	0	1475.54	0.668982	0.668715	0.138215	13	0.0586989	11	0	43.7394	9.24268e-05	4838.21
2	1	0	1	0	0	1478.44	0.683461	0.683296	0.241679	13	0.0592381	11	0	46.6353	0.000165138	2827.28
2	1	0	1	0	0	1481.33	0.697941	0.697752	0.416683	13	0.060178	11	0	49.5313	0.000290742	1674.54
2	1	0	1	0	0	1484	0.688704	0.688475	0.273425	13	0.0611459	11	0	52.1999	0.000188246	2517.96
2	1	0	1	0	0	1486.9	0.674224	0.674029	0.147822	13	0.0617406	11	0	55.0959	9.96366e-05	4559.72
2	1	0	1	0	0	1489.79	0.659744	0.659553	0.0771158	13	0.0620518	11	0	57.9919	5.08619e-05	8552.76
2	1	0	0	0	0	1492.69	0.645265	0.64507	0.0377657	13	0.0622064	11	0	60.8878	2.43616e-05	17080.8
2	1	0	0	0	0	1495.58	0.630785	0.630586	0.0143459	13	0.0622763	11	0	63.7838	9.04633e-06	43955.8
2	0	0	0	0	0	1498.48	0.616305	0.616095	0.00185867	13	0.0623008	11	0	66.6798	1.14512e-06	331471
2	1	0	0	0	0	1501.38	0.601825	0.601614	-0.000238148	13	0.0623012	11	0	1.1983	-1.43273e-07	2.52622e+06
2	0	0	0	0	0	1504.27	0.587345	0.587141	-0.00792581	13	0.0622881	11	0	4.0943	-4.65357e-06	74079.6
2	0	0	1	0	0	1507.17	0.572866	0.572659	-0.00799107	13	0.0622673	11	0	6.9902	-4.57615e-06	71662.4
2	1	0	1	0	0	1510.06	0.558386	0.558164	-0.00765042	13	0.0622425	11	0	9.8862	-4.27019e-06	72958.6
2	0	0	1	0	0	1512.96	0.543906	0.54371	-0.0120229	13	0.0622148	11	0	12.7822	-6.53695e-06	45222.9
2	0	0	1	0	0	1515.86	0.529426	0.529249	-0.00795346	13	0.0621854	11	0	15.6782	-4.20936e-06	66543.1
2	0	0	1	0	0	1518.75	0.514946	0.514711	-0.0122479	13	0.0621545	11	0	18.5742	-6.30413e-06	42024.5
2	0	0	1	0	0	1521.65	0.500466	0.500243	-0.0105047	13	0.0621225	11	0	21.4702	-5.2549e-06	47620.9
2	1	0	1	0	0	1524.54	0.485985	0.485757	-0.0114313	13	0.0620897	11	0	24.3662	-5.55284e-06	42493.5
2	0	0	1	0	0	1527.44	0.471505	0.471312	-0.01243	13	0.0620552	11	0	27.2622	-5.8584e-06	37917.3
2	1	0	1	0	0	1530.34	0.457026	0.45676	-0.0109528	13	0.0620199	11	0	30.1581	-5.00282e-06	41702.5
2	0	0	1	0	1	1533.09	0.456776	0.456555	0.00906054	14	0.0620168	11	0	1.2982	4.13663e-06	50389.3
2	1	0	1	0	1	1535.99	0.471256	0.471055	0.0125798	14	0.0620516	11	0	4.1942	5.92575e-06	37445.5
2	1	0	1	0	1	1538.88	0.485736	0.485563	0.0127188	14	0.062087	11	0	7.0902	6.17576e-06	38176.9
2	1	0	1	0	1	1541.78	0.500216	0.499949	0.0128196	14	0.0621226	11	0	9.9862	6.40916e-06	38998.7
2	1	0	1	0	1	1544.67	0.514696	0.514471	0.0131034	14	0.0621579	11	0	12.8822	6.74131e-06	39262.4
2	1	0	1	0	1	1547.57	0.529175	0.528984	0.014154	14	0.0621931	11	0	15.7781	7.48723e-06	37373.5
2	1	0	1	0	1	1550.47	0.543655	0.543433	0.0146914	14	0.0622287	11	0	18.6741	7.98378e-06	36990
2	1	0	1	0	1	1553.36	0.558136	0.557926	0.0145705	14	0.062265	11	0	21.5701	8.12928e-06	38291.4
2	1	0	1	0	1	1556.26	0.572616	0.572413	0.0128479	14	0.0623028	11	0	24.4661	7.35428e-06	44553.1
2	1	0	1	0	1	1559.15	0.587096	0.586918	0.0126135	14	0.0623439	11	0	27.3621	7.4031e-06	46530.8
2	1	0	1	0	1	1562.05	0.601576	0.601371	0.0162823	14	0.0623917	11	0	30.2581	9.79171e-06	36934
2	1	0	1	0	1	1564.95	0.616056	0.615846	0.0244757	14	0.0624519	11	0	33.1541	1.50733e-05	25161.5
2	1	0	0	0	1	1567.84	0.630535	0.630274	0.0370968	14	0.0625354	11	0	36.05	2.33811e-05	16990
2	1	0	0	0	1	1570.74	0.645015	0.644793	0.0571498	14	0.0626633	11	0	38.946	3.68498e-05	11282.5
2	1	0	0	0	1	1573.63	0.659495	0.659239	0.0933829	14	0.0628752	11	0	41.842	6.15617e-05	7059.53
2	1	0	0	0	1	1576.53	0.673975	0.67377	0.164817	14	0.0632441	11	0	44.738	0.000111049	4087.99
2	1	0	0	0	1	1579.43	0.688455	0.688238	0.295322	14	0.0638956	11	0	47.634	0.000203252	2330.47
2	1	0	1	0	1	1582.09	0.698192	0.697986	0.40632	14	0.064892	11	0	50.3025	0.000283606	1717.82
2	1	0	1	0	1	1584.99	0.683712	0.68351	0.221552	14	0.0657755	11	0	53.1985	0.000151433	3085.11
2	1	0	1	0	1	1587.89	0.669231	0.669014	0.117967	14	0.0662547	11	0	56.0945	7.89217e-05	5671.19
2	1	0	1	0	1	1590.78	0.654751	0.654548	0.0604872	14	0.0665021	11	0	58.9905	3.95917e-05	10821.3
2	1	0	1	0	1	1593.68	0.640271	0.640053	0.0246781	14	0.0666206	11	0	61.8865	1.57953e-05	25936.1
2	1	0	0	0	1	1596.57	0.625792	0.625582	0.0109518	14	0.0666706	11	0	64.7824	6.85128e-06	57121.2
2	1	0	0	0	1	1599.47	0.611312	0.611078	0.00142722	14	0.0666847	11	0	0.000000000000000E+000	8.7214e-07	428161
2	0	0	0	0	1	1602.37	0.596832	0.59659	-0.00630904	14	0.0666791	11	0	1.6977	-3.76391e-06	94561
2	0	0	0	0	1	1605.26	0.582352	0.58213	-0.00765855	14	0.0666626	11	0	4.5937	-4.45827e-06	76010.5
2	1	0	0	0	1	1608.16	0.567872	0.56766	-0.00605753	14	0.06664	11	0	7.4897	-3.43862e-06	93711.4
2	0	0	1	0	1	1611.05	0.553393	0.553202	-0.0104192	14	0.0666138	11	0	10.3856	-5.76391e-06	53094.5
2	0	0	1	0	1	1613.95	0.538913	0.538669	-0.011215	14	0.0665853	11	0	13.2816	-6.04119e-06	48030.9
2	1	0	1	0	1	1616.85	0.524433	0.524229	-0.00808895	14	0.0665552	11	0	16.1776	-4.24046e-06	64808
2	0	0	1	0	1	1619.74	0.509953	0.5097	-0.0124277	14	0.066524	11	0	19.0736	-6.33439e-06	41013.3
2	0	0	1	0	1	1622.64	0.495473	0.495286	-0.0126974	14	0.0664917	11	0	21.9696	-6.28886e-06	39006.8
2	1	0	1	0	1	1625.53	0.480993	0.480805	-0.00935821	14	0.0664584	11	0	24.8656	-4.49947e-06	51377.9
2	0	0	1	0	1	1628.43	0.466513	0.466246	-0.0146185	14	0.0664236	11	0	27.7616	-6.81581e-06	31894.4
2	1	0	1	0	1	1631.33	0.452032	0.451832	-0.010292	14	0.0663878	11	0	30.6576	-4.65025e-06	43901.4
2	0	0	1	0	0	1634.08	0.46177	0.461516	0.0100004	15	0.0664092	11	0	2.2969	4.61535e-06	46149.7
2	1	0	1	0	0	1636.98	0.476249	0.476012	0.0109017	15	0.0664445	11	0	5.1928	5.18935e-06	43664
2	1	0	1	0	0	1639.87	0.490729	0.490506	0.0146984	15	0.0664798	11	0	8.0888	7.20963e-06	33371.4
2	0	0	1	0	0	1642.77	0.505209	0.504924	0.0107506	15	0.0665152	11	0	10.9848	5.42826e-06	46966.9
2	1	0	1	0	0	1645.66	0.519689	0.51948	0.0106612	15	0.0665506	11	0	13.8808	5.53827e-06	48726.3
2	1	0	1	0	0	1648.56	0.534169	0.533987	0.0141845	15	0.0665858	11	0	16.7767	7.57435e-06	37645.8
2	1	0	1	0	0	1651.46	0.548649	0.548425	0.0100733	15	0.0666215	11	0	19.6727	5.52446e-06	54443.2
2	1	0	1	0	0	1654.35	0.563129	0.562935	0.014475	15	0.0666581	11	0	22.5687	8.1485e-06	38890.1
2	1	0	1	0	0	1657.25	0.577609	0.577424	0.0123817	15	0.0666967	11	0	25.4647	7.1495e-06	46635.2
2	1	0	1	0	0	1660.14	0.592089	0.591839	0.0169278	15	0.0667393	11	0	28.3607	1.00185e-05	34962.6
2	1	0	1	0	0	1663.04	0.606569	0.606362	0.0182802	15	0.0667903	11	0	31.2567	1.10845e-05	33170.4
2	1	0	1	0	0	1665.94	0.621049	0.620834	0.0288318	15	0.0668563	11	0	34.1527	1.78998e-05	21533
2	1	0	1	0	0	1668.83	0.635529	0.635315	0.0379346	15	0.0669512	11	0	37.0487	2.41004e-05	16747.6
2	1	0	0	0	0	1671.73	0.650008	0.649827	0.0679238	15	0.067101	11	0	39.9446	4.41387e-05	9567
2	1	0	0	0	0	1674.62	0.664488	0.664277	0.111739	15	0.0673543	11	0	42.8406	7.42255e-05	5944.92
2	1	0	0	0	0	1677.52	0.678968	0.678767	0.20369	15	0.0678007	11	0	45.7366	0.000138258	3332.35
2	1	0	0	0	0	1680.41	0.693448	0.693237	0.349555	15	0.068584	11	0	48.6326	0.000242324	1983.2
2	1	0	1	0	0	1683.08	0.693199	0.692993	0.330004	15	0.0696197	11	0	51.3011	0.000228691	2099.96
2	1	0	1	0	0	1685.98	0.678719	0.678533	0.175059	15	0.0703312	11	0	54.1971	0.000118783	3876.02
2	1	0	1	0	0	1688.88	0.664239	0.664036	0.0927665	15	0.0707085	11	0	57.0931	6.16003e-05	7158.14
2	1	0	1	0	0	1691.77	0.649759	0.649551	0.0435195	15	0.0708979	11	0	59.9891	2.82681e-05	14925.5
2	1	0	1	0	0	1694.67	0.635278	0.635129	0.0190675	15	0.0709862	11	0	62.8851	1.21103e-05	33309.4
2	1	0	1	0	0	1697.56	0.620798	0.620591	0.00571827	15	0.0710208	11	0	65.7811	3.54871e-06	108528
2	0	0	0	0	0	1700.46	0.606319	0.606124	-0.000804716	15	0.0710262	11	0	0.4993	-4.87757e-07	753215
2	0	0	0	0	0	1703.36	0.591839	0.591606	-0.0063234	15	0.0710161	11	0	3.3953	-3.74096e-06	93558.2
2	1	0	0	0	0	1706.25	0.577359	0.577159	-0.00545946	15	0.0709971	11	0	6.2913	-3.15098e-06	105717
2	0	0	0	0	0	1709.15	0.562879	0.562636	-0.0110998	15	0.0709729	11	0	9.1873	-6.24514e-06	50688.9
2	0	0	0	0	0	1712.04	0.548399	0.548179	-0.00734254	15	0.0709459	11	0	12.0833	-4.02503e-06	74657.9
2	0	0	1	0	0	1714.94	0.53392	0.533753	-0.0122531	15	0.0709169	11	0	14.9792	-6.54012e-06	43560.6
2	1	0	1	0	0	1717.84	0.51944	0.51917	-0.00822742	15	0.0708865	11	0	17.8752	-4.27143e-06	63102.4
2	0	0	1	0	0	1720.73	0.50496	0.504674	-0.0128409	15	0.0708548	11	0	20.7712	-6.48049e-06	39302
2	0	0	1	0	0	1723.63	0.49048	0.490272	-0.0124948	15	0.0708225	11	0	23.6672	-6.12586e-06	39238.1
2	0	0	1	0	0	1726.52	0.476	0.475776	-0.00978983	15	0.0707887	11	0	26.5632	-4.65776e-06	48599
2	0	0	1	0	0	1729.42	0.461519	0.461254	-0.0116627	15	0.0707538	11	0	29.4592	-5.37946e-06	39549.6
2	0	0	1	0	0	1731.72	0.450011	0.449945	-0.0269011	15	0.0707251	11	0	31.7581	-1.2104e-05	16725.9