File: ACS_Catal_2026/Figures_Na_K/main_figures/data/EC/20251112_2-148_alpha_reproducibility/20251112_2-148_001_alpha_reproducibility_1_K1_01_CVA_C01.mpt
EC-Lab ASCII FILE
Nb header lines : 66

Cyclic Voltammetry Advanced

Run on channel : 1 (SN 69187)
User :
CE vs. WE compliance from -10 V to 10 V
Electrode connection : standard
Potential control : Ewe
Ewe ctrl range : min = -1.00 V, max = 1.00 V
Safety Limits :
	Do not start on E overload
Acquisition started on : 11/12/2025 13:18:25.019
Loaded Setting File :  C:\Users\User\Documents\EC-Lab\Data\Yatsuzuka\20251030_2-147_gamma_reproducibility\20251030_2-147_001_gamma1_K_1.mps
Saved on :
	File : 20251112_2-148_001_alpha_reproducibility_1_K1_01_CVA_C01.mpr
	Directory : C:\Users\User\Documents\EC-Lab\Data\Yatsuzuka\20251112_2-148_alpha_reproducibility\
	Host : 192.109.209.127
Device : SP-150e (SN .003883)
Address : 192.109.209.128
EC-LAB for windows v11.52 (software)
Internet server v11.52 (firmware)
Command interpretor v11.50 (firmware)
Electrode material :
Initial state :
Electrolyte :
Comments :
Electrode surface area : 0.001 cm2
Characteristic mass : 0.001 g
Equivalent Weight : 0.000 g/eq.
Density : 0.000 g/cm3
Volume (V) : 0.001 cm3
Cycle Definition : Charge/Discharge alternance
Ei (V)              0.350
vs.                 Ref
ti (h:m:s)          0:00:10.0000
dti (s)             0.0000
dE/dt               10.000
dE/dt unit          mV/s
E1 (V)              0.450
vs.                 Ref
t1 (h:m:s)          0:00:0.0000
dt1 (s)             0.1000
Step percent        50
N                   10
E range min (V)     -1.000
E range max (V)     1.000
I Range             Auto
I Range min         Unset
I Range max         Unset
I Range init        Unset
Bandwidth           5
E2 (V)              0.350
vs.                 Ref
t2 (h:m:s)          0:00:0.0000
dt2 (s)             0.1000
nc cycles           9
nr                  1
Reverse Scan        0
Ef (V)              0.000
vs.                 Eoc
tf (h:m:s)          0:00:0.0000
dtf (s)             0.1000

mode	ox/red	error	control changes	Ns changes	counter inc.	time/s	control/V	Ewe/V	<I>/mA	cycle number	(Q-Qo)/C	I Range	Ns	step time/s	Pwe/W	Rwe/Ohm
2	1	0	0	0	0	0.000000000000000E+000	0.34995	0.349743	0.00458474	1	0.0000000E+000	13	0	0.000000000000000E+000	1.60348e-06	76284.2
2	1	0	1	0	0	0.3769	0.353719	0.353489	0.041976	1	1.54918e-05	13	0	0.3496	1.48381e-05	8421.21
2	1	0	1	0	0	0.7763	0.357714	0.357485	0.0421786	1	3.2585e-05	13	0	0.749	1.50782e-05	8475.5
2	1	0	1	0	0	1.1758	0.361709	0.36149	0.0420224	1	4.96539e-05	13	0	1.1485	1.51907e-05	8602.32
2	1	0	1	0	0	1.5752	0.365702	0.365493	0.0416481	1	6.65976e-05	13	0	1.5479	1.52221e-05	8775.76
2	1	0	1	0	0	1.9747	0.369697	0.36949	0.0411243	1	8.34126e-05	13	0	1.9474	1.5195e-05	8984.71
2	1	0	1	0	0	2.3741	0.373692	0.373485	0.0407922	1	0.000100037	13	0	2.3468	1.52353e-05	9155.79
2	1	0	1	0	0	2.7735	0.377686	0.37746	0.0402972	1	0.000116471	13	0	2.7462	1.52106e-05	9366.89
2	1	0	1	0	0	3.173	0.38168	0.381456	0.0400305	1	0.000132729	13	0	3.1457	1.52699e-05	9529.15
2	1	0	1	0	0	3.5725	0.385675	0.385472	0.0394847	1	0.000148792	13	0	3.5452	1.52202e-05	9762.55
2	1	0	1	0	0	3.9719	0.389669	0.389446	0.0389972	1	0.000164662	13	0	3.9446	1.51873e-05	9986.52
2	1	0	1	0	0	4.3713	0.393664	0.393435	0.03869	1	0.000180331	13	0	4.344	1.5222e-05	10168.9
2	1	0	1	0	0	4.7708	0.397659	0.39744	0.0383958	1	0.000195819	13	0	4.7435	1.526e-05	10351.1
2	1	0	1	0	0	5.1703	0.401653	0.401414	0.0378669	1	0.000211119	13	0	5.143	1.52003e-05	10600.7
2	1	0	1	0	0	5.5697	0.405647	0.405408	0.0371856	1	0.000226244	13	0	5.5424	1.50753e-05	10902.3
2	1	0	1	0	0	5.9691	0.409642	0.409422	0.0367409	1	0.000241266	13	0	5.9418	1.50425e-05	11143.5
2	1	0	1	0	0	6.3686	0.413637	0.413481	0.0367606	1	0.000256054	13	0	6.3413	1.51998e-05	11248
2	1	0	1	0	0	6.768	0.41763	0.417461	0.0362159	1	0.000270676	13	0	6.7407	1.51187e-05	11527
2	1	0	1	0	0	7.1675	0.421625	0.421402	0.0357384	1	0.000285155	13	0	7.1402	1.50602e-05	11791.3
2	1	0	1	0	0	7.5669	0.42562	0.425412	0.0352003	1	0.000299474	13	0	7.5396	1.49746e-05	12085.5
2	1	0	1	0	0	7.9663	0.429614	0.429398	0.0350678	1	0.000313651	13	0	7.939	1.5058e-05	12244.8
2	1	0	1	0	0	8.3658	0.433608	0.43336	0.0347916	1	0.000327713	13	0	8.3385	1.50773e-05	12455.9
2	1	0	1	0	0	8.7653	0.437603	0.437391	0.0343609	1	0.000341657	13	0	8.738	1.50291e-05	12729.3
2	1	0	1	0	0	9.1647	0.441597	0.441382	0.0339737	1	0.000355477	13	0	9.1374	1.49954e-05	12991.9
2	0	0	1	0	0	9.5791	0.445742	0.445497	0.0362766	1	0.000369513	13	0	9.5518	1.61611e-05	12280.6
2	1	0	1	0	0	9.986	0.449811	0.449613	0.039406	1	0.000382962	12	0	9.9587	1.77175e-05	11409.8
2	0	0	1	0	0	10.3298	0.446741	0.446508	-0.0146405	1	0.000377505	12	0	0.2996	-6.53712e-06	30498.1
2	1	0	1	0	0	10.7293	0.442746	0.442479	-0.0181716	1	0.000368604	12	0	0.6991	-8.04055e-06	24350.1
2	0	0	1	0	0	11.1287	0.438751	0.438541	-0.0380971	1	0.000359441	12	0	1.0985	-1.67071e-05	11511.1
2	0	0	1	0	0	11.5281	0.434757	0.434516	-0.00760344	1	0.000349513	12	0	1.4979	-3.30382e-06	57147.3
2	1	0	1	0	0	11.9276	0.430762	0.430541	-0.0393041	1	0.000339283	12	0	1.8974	-1.6922e-05	10954.1
2	0	0	1	0	0	12.3271	0.426768	0.426502	-0.0260706	1	0.000329352	12	0	2.2969	-1.11191e-05	16359.5
2	1	0	1	0	0	12.7265	0.422774	0.422491	-0.0133714	1	0.000318938	12	0	2.6963	-5.6493e-06	31596.6
2	0	0	1	0	0	13.1259	0.418779	0.418547	-0.0435954	1	0.000308959	12	0	3.0957	-1.82467e-05	9600.71
2	0	0	1	0	0	13.5254	0.414784	0.414574	-0.0193174	1	0.000298407	12	0	3.4952	-8.00851e-06	21461.1
2	1	0	1	0	0	13.9248	0.410791	0.410558	-0.0171513	1	0.000286935	12	0	3.8946	-7.04158e-06	23937.5
2	0	0	1	0	0	14.3243	0.406796	0.40656	-0.0485051	1	0.000275247	12	0	4.2941	-1.97203e-05	8381.8
2	0	0	1	0	0	14.7237	0.402801	0.402533	-0.0262817	1	0.00026319	12	0	4.6935	-1.05793e-05	15316.1
2	0	0	1	0	0	15.1231	0.398807	0.398558	-0.0155129	1	0.000250453	12	0	5.0929	-6.18278e-06	25692
2	0	0	1	0	0	15.5226	0.394813	0.394539	-0.051876	1	0.000237635	12	0	5.4924	-2.04671e-05	7605.42
2	0	0	1	0	0	15.9221	0.390818	0.390551	-0.0332128	1	0.000224612	12	0	5.8919	-1.29713e-05	11759
2	0	0	1	0	0	16.3215	0.386823	0.386572	-0.0163495	1	0.00021091	12	0	6.2913	-6.32026e-06	23644.3
2	0	0	1	0	0	16.7209	0.382829	0.382541	-0.0475372	1	0.000197056	12	0	6.6907	-1.81849e-05	8047.19
2	0	0	1	0	0	17.1204	0.378834	0.378565	-0.0433846	1	0.000183179	12	0	7.0902	-1.64239e-05	8725.79
2	0	0	1	0	0	17.5199	0.37484	0.374576	-0.0174578	1	0.000168578	12	0	7.4897	-6.53928e-06	21456
2	0	0	1	0	0	17.9193	0.370846	0.370605	-0.049498	1	0.00015368	12	0	7.8891	-1.83442e-05	7487.28
2	0	0	1	0	0	18.3187	0.366851	0.366602	-0.0376891	1	0.000138861	12	0	8.2885	-1.38169e-05	9726.98
2	0	0	1	0	0	18.7182	0.362856	0.362589	-0.033583	1	0.000123095	12	0	8.688	-1.21768e-05	10796.8
2	0	0	1	0	0	19.1176	0.358863	0.358591	-0.0590932	1	0.000107609	12	0	9.0874	-2.11903e-05	6068.23
2	0	0	1	0	0	19.5171	0.354868	0.354618	-0.0217082	1	9.13527e-05	12	0	9.4869	-7.69811e-06	16335.7
2	0	0	1	0	0	19.9165	0.350873	0.350546	-0.0627486	1	7.49775e-05	12	0	9.8863	-2.19962e-05	5586.51
2	1	0	1	0	1	20.1837	0.351822	0.351543	0.0542809	2	7.72429e-05	12	0	0.1498	1.90821e-05	6476.37
2	1	0	1	0	1	20.5832	0.355817	0.35562	0.0176691	2	9.22519e-05	12	0	0.5493	6.2835e-06	20126.7
2	1	0	1	0	1	20.9827	0.359811	0.359567	0.0580765	2	0.000107498	12	0	0.9488	2.08824e-05	6191.26
2	1	0	1	0	1	21.3821	0.363805	0.363554	0.0265942	2	0.000122703	12	0	1.3482	9.66842e-06	13670.5
2	0	0	1	0	1	21.7815	0.3678	0.367571	0.039524	2	0.000138299	12	0	1.7476	1.45279e-05	9299.96
2	1	0	1	0	1	22.181	0.371795	0.371551	0.0483019	2	0.000153217	12	0	2.1471	1.79466e-05	7692.27
2	1	0	1	0	1	22.5804	0.375788	0.375602	0.0191684	2	0.000168552	12	0	2.5465	7.1997e-06	19594.8
2	1	0	1	0	1	22.9799	0.379783	0.379586	0.0557704	2	0.00018344	12	0	2.946	2.11696e-05	6806.23
2	1	0	1	0	1	23.3793	0.383778	0.383548	0.0275005	2	0.000198084	12	0	3.3454	1.05478e-05	13946.9
2	0	0	1	0	1	23.7787	0.387772	0.387525	0.0319566	2	0.000212976	12	0	3.7448	1.2384e-05	12126.6
2	1	0	1	0	1	24.1782	0.391766	0.391502	0.0522765	2	0.000227209	12	0	4.1443	2.04664e-05	7489.07
2	1	0	1	0	1	24.5777	0.395761	0.395533	0.0179305	2	0.000241622	12	0	4.5438	7.09209e-06	22059.2
2	0	0	1	0	1	24.9771	0.399755	0.399514	0.0456133	2	0.000255864	12	0	4.9432	1.82231e-05	8758.71
2	1	0	1	0	1	25.3765	0.40375	0.403529	0.0398943	2	0.000269621	12	0	5.3426	1.60985e-05	10114.9
2	1	0	1	0	1	25.776	0.407745	0.407528	0.0199582	2	0.000283771	12	0	5.7421	8.13354e-06	20419
2	1	0	1	0	1	26.1755	0.411739	0.411542	0.0520137	2	0.000297397	12	0	6.1416	2.14058e-05	7912.18
2	1	0	1	0	1	26.5749	0.415733	0.415529	0.0281346	2	0.000310808	12	0	6.541	1.16907e-05	14769.4
2	1	0	1	0	1	26.9743	0.419728	0.419512	0.0281173	2	0.000324471	12	0	6.9404	1.17955e-05	14920.1
2	1	0	1	0	1	27.3738	0.423723	0.423538	0.0504199	2	0.00033757	12	0	7.3399	2.13547e-05	8400.22
2	1	0	1	0	1	27.7732	0.427716	0.427453	0.0190116	2	0.000350808	12	0	7.7393	8.12659e-06	22483.8
2	1	0	1	0	1	28.1727	0.431711	0.431471	0.039981	2	0.000364025	12	0	8.1388	1.72507e-05	10791.9
2	1	0	1	0	1	28.5721	0.435706	0.435491	0.040683	2	0.000376788	12	0	8.5382	1.77171e-05	10704.5
2	1	0	1	0	1	28.9715	0.4397	0.439467	0.0184445	2	0.000389899	12	0	8.9376	8.10576e-06	23826.5
2	1	0	1	0	1	29.371	0.443694	0.443469	0.0482093	2	0.000402687	12	0	9.3371	2.13794e-05	9198.82
2	1	0	1	0	1	29.7705	0.447689	0.447481	0.027188	2	0.000415323	12	0	9.7366	1.21661e-05	16458.8
2	1	0	1	0	1	30.0767	0.449237	0.448997	-0.0349417	2	0.000421431	12	0	0.0499	-1.56887e-05	12849.9
2	0	0	1	0	1	30.4762	0.445242	0.444969	-0.0146052	2	0.000412827	12	0	0.4494	-6.49886e-06	30466.5
2	1	0	1	0	1	30.8757	0.441248	0.440998	-0.0232069	2	0.000403092	12	0	0.8489	-1.02342e-05	19002.9
2	0	0	1	0	1	31.2751	0.437253	0.436959	-0.0364765	2	0.000393322	12	0	1.2483	-1.59387e-05	11979.2
2	0	0	1	0	1	31.6745	0.433259	0.43302	-0.00970659	2	0.000382778	12	0	1.6477	-4.20314e-06	44610.9
2	1	0	1	0	1	32.074	0.429264	0.429023	-0.0422216	2	0.000372081	12	0	2.0472	-1.81141e-05	10161.2
2	0	0	1	0	1	32.4734	0.425271	0.425033	-0.0193087	2	0.00036121	12	0	2.4466	-8.20683e-06	22012.5
2	1	0	1	0	1	32.8729	0.421276	0.421019	-0.0289814	2	0.000349662	12	0	2.8461	-1.22017e-05	14527.2
2	0	0	1	0	1	33.2723	0.417281	0.41705	-0.0378096	2	0.00033835	12	0	3.2455	-1.57685e-05	11030.3
2	0	0	1	0	1	33.6718	0.413286	0.413121	-0.0150924	2	0.000326281	12	0	3.645	-6.23496e-06	27372.8
2	0	0	1	0	1	34.0712	0.409293	0.409021	-0.0486861	2	0.00031428	12	0	4.0444	-1.99136e-05	8401.18
2	0	0	1	0	1	34.4707	0.405298	0.405006	-0.018055	2	0.000301854	12	0	4.4439	-7.31239e-06	22431.8
2	1	0	1	0	1	34.8701	0.401303	0.401053	-0.0386309	2	0.000288975	12	0	4.8433	-1.5493e-05	10381.7
2	0	0	1	0	1	35.2695	0.397309	0.397035	-0.0378468	2	0.000276314	12	0	5.2427	-1.50265e-05	10490.6
2	0	0	1	0	1	35.669	0.393314	0.393016	-0.0228261	2	0.000262832	12	0	5.6422	-8.97102e-06	17217.8
2	0	0	1	0	1	36.0685	0.38932	0.389009	-0.0530941	2	0.000249564	12	0	6.0417	-2.06541e-05	7326.78
2	0	0	1	0	1	36.4679	0.385325	0.385027	-0.0170607	2	0.000235671	12	0	6.4411	-6.5688e-06	22568.1
2	0	0	1	0	1	36.8673	0.381331	0.381015	-0.0522202	2	0.00022153	12	0	6.8405	-1.98967e-05	7296.31
2	0	0	1	0	1	37.2668	0.377336	0.37707	-0.030266	2	0.000207388	12	0	7.24	-1.14124e-05	12458.6
2	0	0	1	0	1	37.6663	0.373342	0.373105	-0.0376002	2	0.000192423	12	0	7.6395	-1.40288e-05	9922.97
2	0	0	1	0	1	38.0657	0.369348	0.369101	-0.0489327	2	0.000177767	12	0	8.0389	-1.80611e-05	7543.03
2	0	0	1	0	1	38.4651	0.365353	0.365096	-0.0224522	2	0.000162235	12	0	8.4383	-8.1972e-06	16261.1
2	0	0	1	0	1	38.8646	0.361358	0.361079	-0.0609804	2	0.000146751	12	0	8.8378	-2.20187e-05	5921.23
2	0	0	1	0	1	39.264	0.357365	0.357068	-0.0249051	2	0.000130852	12	0	9.2372	-8.89281e-06	14337.2
2	1	0	1	0	1	39.6635	0.35337	0.353143	-0.0485766	2	0.000114332	12	0	9.6367	-1.71545e-05	7269.81
2	0	0	0	0	1	39.998	0.35	0.349724	-0.00945549	2	0.000100219	12	0	9.9712	-3.30681e-06	36986.4
2	1	0	1	0	0	40.3301	0.35332	0.353098	0.0261526	3	0.000111687	12	0	0.3271	9.23444e-06	13501.4
2	0	0	1	0	0	40.7296	0.357315	0.357066	0.0372512	3	0.000126844	12	0	0.7266	1.33011e-05	9585.37
2	1	0	1	0	0	41.129	0.361308	0.361057	0.0489814	3	0.000141635	12	0	1.126	1.76851e-05	7371.32
2	1	0	1	0	0	41.5285	0.365303	0.365067	0.0194491	3	0.000156999	12	0	1.5255	7.10022e-06	18770.4
2	1	0	1	0	0	41.9279	0.369298	0.36905	0.0573583	3	0.000171973	12	0	1.9249	2.11681e-05	6434.11
2	1	0	1	0	0	42.3273	0.373292	0.373092	0.0228366	3	0.000186848	12	0	2.3243	8.52013e-06	16337.5
2	0	0	1	0	0	42.7268	0.377286	0.377046	0.0432214	3	0.000201883	12	0	2.7238	1.62965e-05	8723.58
2	1	0	1	0	0	43.1263	0.381281	0.381039	0.0408634	3	0.000216247	12	0	3.1233	1.55706e-05	9324.7
2	1	0	1	0	0	43.5257	0.385275	0.385016	0.0242804	3	0.000231043	12	0	3.5227	9.34834e-06	15857.1
2	1	0	1	0	0	43.9251	0.38927	0.389018	0.0545564	3	0.000245173	12	0	3.9221	2.12234e-05	7130.57
2	1	0	1	0	0	44.3246	0.393264	0.393003	0.018386	3	0.000259413	12	0	4.3216	7.22575e-06	21375.1
2	1	0	1	0	0	44.7241	0.397259	0.397012	0.048791	3	0.000273494	12	0	4.7211	1.93706e-05	8137
2	1	0	1	0	0	45.1235	0.401253	0.401015	0.0317535	3	0.000287099	12	0	5.1205	1.27336e-05	12629
2	1	0	1	0	0	45.5229	0.405248	0.405023	0.0296106	3	0.000301053	12	0	5.5199	1.1993e-05	13678.3
2	1	0	1	0	0	45.9224	0.409243	0.409025	0.047777	3	0.000314396	12	0	5.9194	1.9542e-05	8561.14
2	1	0	1	0	0	46.3218	0.413236	0.413034	0.0178298	3	0.000327955	12	0	6.3188	7.36432e-06	23165.3
2	1	0	1	0	0	46.7213	0.417231	0.417031	0.0515494	3	0.000341103	12	0	6.7183	2.14977e-05	8089.94
2	1	0	1	0	0	47.1207	0.421226	0.420975	0.0201496	3	0.000354169	12	0	7.1177	8.4825e-06	20892.5
2	1	0	1	0	0	47.5202	0.425221	0.424982	0.0417629	3	0.000367306	12	0	7.5172	1.77485e-05	10176.1
2	1	0	1	0	0	47.9196	0.429214	0.428987	0.033522	3	0.000379938	12	0	7.9166	1.43805e-05	12797.2
2	1	0	1	0	0	48.3191	0.433209	0.432976	0.0244599	3	0.000392963	12	0	8.3161	1.05906e-05	17701.4
2	1	0	1	0	0	48.7185	0.437203	0.436956	0.0463163	3	0.000405432	12	0	8.7155	2.02382e-05	9434.18
2	1	0	1	0	0	49.1179	0.441198	0.440956	0.0154861	3	0.000418153	12	0	9.1149	6.8287e-06	28474.3
2	0	0	1	0	0	49.5174	0.445192	0.44496	0.045954	3	0.000430686	12	0	9.5144	2.04477e-05	9682.72
2	1	0	1	0	0	49.9169	0.449187	0.448979	0.0238125	3	0.000443014	12	0	9.9139	1.06913e-05	18854.8
2	1	0	1	0	0	50.2231	0.447739	0.447476	-0.0366598	3	0.000441054	12	0	0.2271	-1.64044e-05	12206.2
2	0	0	1	0	0	50.6226	0.443744	0.443492	-0.0118463	3	0.000431846	12	0	0.6266	-5.25373e-06	37437.2
2	1	0	1	0	0	51.0221	0.43975	0.439508	-0.029967	3	0.000421797	12	0	1.0261	-1.31708e-05	14666.4
2	0	0	1	0	0	51.4215	0.435755	0.435494	-0.0299573	3	0.000411767	12	0	1.4255	-1.30462e-05	14537.2
2	0	0	1	0	0	51.8209	0.431761	0.431529	-0.0162212	3	0.000400916	12	0	1.8249	-6.99993e-06	26602.8
2	0	0	1	0	0	52.2204	0.427766	0.427483	-0.0441328	3	0.000390168	12	0	2.2244	-1.8866e-05	9686.27
2	0	0	1	0	0	52.6198	0.423773	0.423541	-0.0125293	3	0.000378906	12	0	2.6238	-5.30668e-06	33804
2	0	0	1	0	0	53.0193	0.419778	0.419566	-0.0414912	3	0.000367329	12	0	3.0233	-1.74083e-05	10112.2
2	0	0	1	0	0	53.4187	0.415783	0.415569	-0.0261469	3	0.000355803	12	0	3.4227	-1.08658e-05	15893.6
2	0	0	1	0	0	53.8181	0.411789	0.41157	-0.0265839	3	0.000343543	12	0	3.8221	-1.09411e-05	15481.9
2	0	0	1	0	0	54.2176	0.407795	0.407537	-0.0450858	3	0.000331534	12	0	4.2216	-1.83741e-05	9039.14
2	0	0	1	0	0	54.6171	0.4038	0.403546	-0.0152767	3	0.00031877	12	0	4.6211	-6.16486e-06	26415.7
2	0	0	1	0	0	55.0165	0.399805	0.399561	-0.0502861	3	0.000306048	12	0	5.0205	-2.00924e-05	7945.77
2	0	0	1	0	0	55.4159	0.395811	0.395529	-0.0208582	3	0.000293101	12	0	5.4199	-8.25002e-06	18962.8
2	1	0	1	0	0	55.8154	0.391816	0.391573	-0.0392025	3	0.000279545	12	0	5.8194	-1.53506e-05	9988.46
2	0	0	1	0	0	56.2149	0.387822	0.387505	-0.0396278	3	0.000266239	12	0	6.2189	-1.5356e-05	9778.6
2	0	0	1	0	0	56.6143	0.383828	0.383595	-0.021644	3	0.000252088	12	0	6.6183	-8.3025e-06	17722.9
2	0	0	1	0	0	57.0137	0.379833	0.379565	-0.0544766	3	0.000238101	12	0	7.0177	-2.06774e-05	6967.48
2	0	0	1	0	0	57.4132	0.375838	0.375641	-0.0177464	3	0.000223571	12	0	7.4172	-6.66628e-06	21167.1
2	1	0	1	0	0	57.8126	0.371845	0.371648	-0.0502342	3	0.000208675	12	0	7.8166	-1.86694e-05	7398.31
2	0	0	1	0	0	58.2121	0.36785	0.367587	-0.033157	3	0.000193858	12	0	8.2161	-1.21881e-05	11086.3
2	1	0	1	0	0	58.6115	0.363855	0.363605	-0.0311289	3	0.000178143	12	0	8.6155	-1.13186e-05	11680.6
2	0	0	1	0	0	59.0109	0.359861	0.359557	-0.0563521	3	0.000162696	12	0	9.0149	-2.02618e-05	6380.55
2	0	0	1	0	0	59.4104	0.355867	0.355601	-0.0189757	3	0.000146492	12	0	9.4144	-6.74776e-06	18739.8
2	1	0	1	0	0	59.8099	0.351872	0.351614	-0.0581507	3	0.000130063	12	0	9.8139	-2.04466e-05	6046.6
2	1	0	1	0	1	60.0771	0.350823	0.35061	0.0555643	4	0.000124761	12	0	0.0775	1.94814e-05	6310
2	1	0	1	0	1	60.4765	0.354818	0.35463	0.0177654	4	0.000139118	12	0	0.4769	6.30014e-06	19961.8
2	0	0	1	0	1	60.876	0.358813	0.358571	0.0522451	4	0.000154122	12	0	0.8764	1.87336e-05	6863.26
2	1	0	1	0	1	61.2754	0.362806	0.362588	0.0360958	4	0.000168878	12	0	1.2758	1.30879e-05	10045.2
2	1	0	1	0	1	61.6749	0.366801	0.366559	0.029459	4	0.000184173	12	0	1.6753	1.07985e-05	12443
2	1	0	1	0	1	62.0743	0.370796	0.370562	0.0544794	4	0.000198812	12	0	2.0747	2.0188e-05	6801.86
2	1	0	1	0	1	62.4737	0.37479	0.374581	0.0183288	4	0.00021374	12	0	2.4741	6.86564e-06	20436.7
2	1	0	1	0	1	62.8732	0.378784	0.378549	0.0548762	4	0.00022838	12	0	2.8736	2.07733e-05	6898.24
2	1	0	1	0	1	63.2727	0.382779	0.382495	0.0278795	4	0.000242668	12	0	3.2731	1.06638e-05	13719.6
2	0	0	1	0	1	63.6721	0.386773	0.386528	0.0355816	4	0.000257249	12	0	3.6725	1.37533e-05	10863.2
2	1	0	1	0	1	64.0715	0.390768	0.390469	0.0457971	4	0.000271093	12	0	4.0719	1.78824e-05	8526.06
2	1	0	1	0	1	64.471	0.394763	0.394499	0.0189935	4	0.000285307	12	0	4.4714	7.49291e-06	20770.2
2	1	0	1	0	1	64.8705	0.398757	0.398491	0.0529433	4	0.000298989	12	0	4.8709	2.10974e-05	7526.75
2	1	0	1	0	1	65.2699	0.402751	0.402486	0.0188088	4	0.00031262	12	0	5.2703	7.57027e-06	21398.8
2	0	0	1	0	1	65.6693	0.406746	0.4065	0.0399766	4	0.000326358	12	0	5.6697	1.62505e-05	10168.4
2	1	0	1	0	1	66.0688	0.410741	0.410501	0.0360734	4	0.000339447	12	0	6.0692	1.48082e-05	11379.6
2	0	0	1	0	1	66.4682	0.414734	0.414584	0.0205542	4	0.000352902	12	0	6.4686	8.52143e-06	20170.3
2	1	0	1	0	1	66.8677	0.418729	0.418522	0.0488705	4	0.000365813	12	0	6.8681	2.04534e-05	8563.89
2	1	0	1	0	1	67.2671	0.422724	0.422495	0.0174978	4	0.000378768	12	0	7.2675	7.39275e-06	24145.6
2	0	0	1	0	1	67.6665	0.426718	0.426467	0.0395617	4	0.000391744	12	0	7.6669	1.68718e-05	10779.8
2	1	0	1	0	1	68.066	0.430712	0.430464	0.0336619	4	0.000404225	12	0	8.0664	1.44902e-05	12787.9
2	1	0	1	0	1	68.4655	0.434707	0.434448	0.0216486	4	0.000417074	12	0	8.4659	9.4052e-06	20068.2
2	1	0	1	0	1	68.8649	0.438701	0.438499	0.0476022	4	0.000429426	12	0	8.8653	2.08735e-05	9211.75
2	1	0	1	0	1	69.2643	0.442696	0.442453	0.0178062	4	0.000441889	12	0	9.2647	7.87839e-06	24848.3
2	1	0	1	0	1	69.6638	0.446691	0.446438	0.0384892	4	0.000454393	12	0	9.6642	1.7183e-05	11599
2	1	0	0	0	1	69.9926	0.450011	0.449755	0.0183516	4	0.000464755	12	0	9.993	8.25371e-06	24507.7
2	1	0	1	0	1	70.3695	0.446241	0.445996	-0.0330256	4	0.000456316	12	0	0.3495	-1.47293e-05	13504.5
2	0	0	1	0	1	70.769	0.442246	0.441984	-0.0236071	4	0.000446973	12	0	0.749	-1.04339e-05	18722.5
2	1	0	1	0	1	71.1684	0.438253	0.438011	-0.0175135	4	0.000436701	12	0	1.1484	-7.67111e-06	25009.9
2	0	0	1	0	1	71.5679	0.434258	0.434029	-0.0406955	4	0.000426493	12	0	1.5479	-1.7663e-05	10665.3
2	0	0	1	0	1	71.9673	0.430263	0.430015	-0.0100248	4	0.000415657	12	0	1.9473	-4.31081e-06	42895.1
2	1	0	1	0	1	72.3667	0.426269	0.426015	-0.038244	4	0.00040455	12	0	2.3467	-1.62925e-05	11139.4
2	0	0	1	0	1	72.7662	0.422275	0.422001	-0.0272511	4	0.000393454	12	0	2.7462	-1.15e-05	15485.6
2	1	0	1	0	1	73.1657	0.41828	0.418064	-0.0190196	4	0.00038164	12	0	3.1457	-7.95138e-06	21980.7
2	0	0	1	0	1	73.5651	0.414285	0.414073	-0.0454265	4	0.000370003	12	0	3.5451	-1.88099e-05	9115.23
2	0	0	1	0	1	73.9645	0.410291	0.410053	-0.0135016	4	0.000357854	12	0	3.9445	-5.53636e-06	30370.7
2	1	0	1	0	1	74.364	0.406296	0.406042	-0.0409336	4	0.000345377	12	0	4.344	-1.66207e-05	9919.53
2	0	0	1	0	1	74.7635	0.402302	0.402009	-0.0321871	4	0.000332936	12	0	4.7435	-1.29395e-05	12489.8
2	0	0	1	0	1	75.1629	0.398307	0.398004	-0.02054	4	0.000319801	12	0	5.1429	-8.17502e-06	19377
2	0	0	1	0	1	75.5623	0.394313	0.394	-0.0511812	4	0.000306829	12	0	5.5423	-2.01654e-05	7698.14
2	0	0	1	0	1	75.9618	0.390318	0.390048	-0.018408	4	0.000293406	12	0	5.9418	-7.18e-06	21189.1
2	0	0	1	0	1	76.3613	0.386324	0.386026	-0.0418217	4	0.000279525	12	0	6.3413	-1.61443e-05	9230.28
2	0	0	1	0	1	76.7607	0.38233	0.382019	-0.0413331	4	0.000265834	12	0	6.7407	-1.57901e-05	9242.46
2	0	0	1	0	1	77.1601	0.378335	0.378094	-0.0210431	4	0.000251308	12	0	7.1401	-7.95626e-06	17967.6
2	0	0	1	0	1	77.5596	0.37434	0.374119	-0.0572165	4	0.00023689	12	0	7.5396	-2.14058e-05	6538.65
2	0	0	1	0	1	77.959	0.370347	0.370107	-0.0230955	4	0.000222071	12	0	7.939	-8.54781e-06	16025.1
2	1	0	1	0	1	78.3585	0.366352	0.366085	-0.0428697	4	0.000206635	12	0	8.3385	-1.5694e-05	8539.49
2	0	0	1	0	1	78.7579	0.362357	0.36213	-0.0493636	4	0.000191443	12	0	8.7379	-1.7876e-05	7335.97
2	0	0	1	0	1	79.1573	0.358363	0.358117	-0.0218599	4	0.000175363	12	0	9.1373	-7.8284e-06	16382.4
2	0	0	1	0	1	79.5568	0.354368	0.354116	-0.0617712	4	0.000159307	12	0	9.5368	-2.18741e-05	5732.7
2	0	0	1	0	1	79.9563	0.350374	0.350094	-0.0283528	4	0.000142913	12	0	9.9363	-9.92617e-06	12347.8
2	1	0	1	0	0	80.2235	0.352321	0.352096	0.0139567	5	0.000148888	12	0	0.1998	4.91411e-06	25227.7
2	0	0	1	0	0	80.6229	0.356316	0.3561	0.0492702	5	0.000163537	12	0	0.5992	1.75451e-05	7227.49
2	1	0	1	0	0	81.0223	0.36031	0.360068	0.0357876	5	0.000178142	12	0	0.9986	1.2886e-05	10061.2
2	0	0	1	0	0	81.4218	0.364304	0.364089	0.0250026	5	0.000193377	12	0	1.3981	9.10317e-06	14562
2	1	0	1	0	0	81.8213	0.368299	0.368044	0.0550574	5	0.000208043	12	0	1.7976	2.02635e-05	6684.74
2	1	0	1	0	0	82.2207	0.372294	0.37209	0.018011	5	0.000222868	12	0	2.197	6.70171e-06	20659.1
2	0	0	1	0	0	82.6201	0.376288	0.376069	0.0442616	5	0.000237667	12	0	2.5964	1.66454e-05	8496.5
2	1	0	1	0	0	83.0196	0.380282	0.380032	0.0387792	5	0.00025189	12	0	2.9959	1.47373e-05	9799.89
2	1	0	1	0	0	83.4191	0.384277	0.38402	0.0206749	5	0.000266479	12	0	3.3954	7.93955e-06	18574.2
2	1	0	1	0	0	83.8185	0.388271	0.387995	0.0531628	5	0.000280482	12	0	3.7948	2.06269e-05	7298.25
2	1	0	1	0	0	84.2179	0.392266	0.392019	0.0188096	5	0.000294475	12	0	4.1942	7.37371e-06	20841.5
2	0	0	1	0	0	84.6174	0.396261	0.396021	0.0402358	5	0.000308486	12	0	4.5937	1.59342e-05	9842.49
2	1	0	1	0	0	85.0168	0.400254	0.399983	0.03992	5	0.000321872	12	0	4.9931	1.59673e-05	10019.6
2	1	0	1	0	0	85.4163	0.404249	0.403972	0.0183436	5	0.000335622	12	0	5.3926	7.4103e-06	22022.5
2	1	0	1	0	0	85.8157	0.408244	0.408004	0.051179	5	0.00034892	12	0	5.792	2.08812e-05	7972.1
2	1	0	1	0	0	86.2151	0.412238	0.412023	0.0202668	5	0.000362076	12	0	6.1914	8.3504e-06	20329.9
2	0	0	1	0	0	86.6146	0.416232	0.416014	0.0356604	5	0.000375334	12	0	6.5909	1.48352e-05	11666
2	1	0	1	0	0	87.0141	0.420227	0.419984	0.0407726	5	0.000388022	12	0	6.9904	1.71239e-05	10300.7
2	1	0	1	0	0	87.4135	0.424221	0.423953	0.0166743	5	0.000401011	12	0	7.3898	7.0691e-06	25425.6
2	1	0	1	0	0	87.8129	0.428216	0.428003	0.047624	5	0.000413634	12	0	7.7892	2.03832e-05	8987.13
2	1	0	1	0	0	88.2124	0.43221	0.431971	0.0247721	5	0.000426068	12	0	8.1887	1.07008e-05	17437.8
2	1	0	1	0	0	88.6119	0.436205	0.436002	0.0286105	5	0.000438765	12	0	8.5882	1.24742e-05	15239.2
2	1	0	1	0	0	89.0113	0.440199	0.440023	0.043833	5	0.00045093	12	0	8.9876	1.92875e-05	10038.6
2	1	0	1	0	0	89.4107	0.444194	0.444004	0.0152223	5	0.000463355	12	0	9.387	6.75877e-06	29167.9
2	1	0	1	0	0	89.8102	0.448189	0.447953	0.0437922	5	0.000475622	12	0	9.7865	1.96169e-05	10229.1
2	0	0	1	0	0	90.1165	0.448737	0.448504	-0.00569597	5	0.000478548	12	0	0.0999	-2.55467e-06	78740.6
2	1	0	1	0	0	90.5159	0.444743	0.444492	-0.0367431	5	0.000469422	12	0	0.4993	-1.6332e-05	12097.3
2	0	0	1	0	0	90.9154	0.440748	0.440483	-0.0203067	5	0.000459788	12	0	0.8988	-8.94474e-06	21691.5
2	1	0	1	0	0	91.3148	0.436755	0.436487	-0.019784	5	0.000449345	12	0	1.2982	-8.63546e-06	22062.7
2	0	0	1	0	0	91.7143	0.43276	0.432509	-0.039753	5	0.000439004	12	0	1.6977	-1.71935e-05	10879.9
2	0	0	1	0	0	92.1137	0.428765	0.428489	-0.0101379	5	0.000428049	12	0	2.0971	-4.34397e-06	42266.2
2	1	0	1	0	0	92.5131	0.424771	0.424524	-0.0387248	5	0.000416841	12	0	2.4965	-1.64396e-05	10962.6
2	0	0	1	0	0	92.9126	0.420776	0.420519	-0.0285709	5	0.000405639	12	0	2.896	-1.20146e-05	14718.4
2	1	0	1	0	0	93.3121	0.416782	0.416533	-0.017429	5	0.00039374	12	0	3.2955	-7.25975e-06	23898.9
2	0	0	1	0	0	93.7115	0.412787	0.412519	-0.0463924	5	0.000381979	12	0	3.6949	-1.91378e-05	8891.96
2	0	0	1	0	0	94.1109	0.408793	0.40854	-0.0162506	5	0.000369831	12	0	4.0943	-6.63901e-06	25140.1
2	1	0	1	0	0	94.5104	0.404798	0.404546	-0.0343912	5	0.000357129	12	0	4.4938	-1.39128e-05	11763.1
2	0	0	1	0	0	94.9099	0.400804	0.400535	-0.0409007	5	0.000344687	12	0	4.8933	-1.63821e-05	9792.85
2	0	0	1	0	0	95.3093	0.39681	0.396535	-0.0147077	5	0.000331526	12	0	5.2927	-5.8321e-06	26961.2
2	1	0	1	0	0	95.7087	0.392815	0.392534	-0.0496505	5	0.000318345	12	0	5.6921	-1.94895e-05	7905.94
2	0	0	1	0	0	96.1082	0.38882	0.388497	-0.0261249	5	0.000305002	12	0	6.0916	-1.01495e-05	14870.8
2	1	0	1	0	0	96.5076	0.384827	0.384544	-0.0308282	5	0.00029095	12	0	6.491	-1.18548e-05	12473.8
2	0	0	1	0	0	96.9071	0.380832	0.380568	-0.0502548	5	0.000277136	12	0	6.8905	-1.91254e-05	7572.78
2	0	0	1	0	0	97.3065	0.376837	0.376582	-0.0168668	5	0.000262628	12	0	7.2899	-6.35175e-06	22326.8
2	0	0	1	0	0	97.7059	0.372843	0.37262	-0.0518856	5	0.000247919	12	0	7.6893	-1.93336e-05	7181.57
2	0	0	1	0	0	98.1054	0.368849	0.368561	-0.0332632	5	0.000233177	12	0	8.0888	-1.22595e-05	11080.2
2	0	0	1	0	0	98.5049	0.364854	0.364643	-0.0305956	5	0.000217588	12	0	8.4883	-1.11565e-05	11918.1
2	0	0	1	0	0	98.9043	0.360859	0.360622	-0.0580181	5	0.000202245	12	0	8.8877	-2.09226e-05	6215.69
2	0	0	1	0	0	99.3037	0.356865	0.356582	-0.0205831	5	0.000186213	12	0	9.2871	-7.33957e-06	17324
2	0	0	1	0	0	99.7032	0.35287	0.352611	-0.0527222	5	0.000169791	12	0	9.6866	-1.85904e-05	6688.09
2	0	0	1	0	1	99.9928	0.35005	0.349801	-0.0158597	6	0.000158551	12	0	9.9762	-5.54774e-06	22055.9
2	1	0	1	0	1	100.37	0.353819	0.353561	0.0261761	6	0.000170946	12	0	0.3496	9.25484e-06	13507
2	1	0	1	0	1	100.769	0.357814	0.357561	0.0354853	6	0.000185926	12	0	0.749	1.26882e-05	10076.3
2	1	0	1	0	1	101.169	0.361808	0.361604	0.0517137	6	0.000200487	12	0	1.1484	1.86999e-05	6992.42
2	1	0	1	0	1	101.568	0.365802	0.365538	0.0173323	6	0.000215537	12	0	1.5479	6.33563e-06	21090
2	1	0	1	0	1	101.968	0.369797	0.369559	0.0538044	6	0.000230332	12	0	1.9474	1.98839e-05	6868.56
2	1	0	1	0	1	102.367	0.373791	0.373592	0.0329617	6	0.000244787	12	0	2.3468	1.23142e-05	11334.1
2	1	0	1	0	1	102.766	0.377786	0.377553	0.0276384	6	0.000259608	12	0	2.7462	1.0435e-05	13660.4
2	1	0	1	0	1	103.166	0.381781	0.381531	0.0537292	6	0.000273764	12	0	3.1457	2.04994e-05	7100.99
2	1	0	1	0	1	103.565	0.385775	0.385532	0.0175527	6	0.000288057	12	0	3.5452	6.76715e-06	21964.2
2	0	0	1	0	1	103.965	0.389769	0.389491	0.0462844	6	0.000302221	12	0	3.9446	1.80274e-05	8415.17
2	1	0	1	0	1	104.364	0.393764	0.393501	0.0348487	6	0.000315825	12	0	4.344	1.3713e-05	11291.7
2	1	0	1	0	1	104.764	0.397759	0.3975	0.0235835	6	0.000329807	12	0	4.7435	9.37445e-06	16855
2	1	0	1	0	1	105.163	0.401752	0.401491	0.0510298	6	0.000343158	12	0	5.1429	2.0488e-05	7867.78
2	1	0	1	0	1	105.563	0.405747	0.405458	0.0171357	6	0.000356589	12	0	5.5424	6.9478e-06	23661.6
2	0	0	1	0	1	105.962	0.409742	0.409524	0.0398916	6	0.000370013	12	0	5.9418	1.63366e-05	10265.9
2	1	0	1	0	1	106.361	0.413736	0.413516	0.0383332	6	0.000382858	12	0	6.3412	1.58514e-05	10787.4
2	1	0	1	0	1	106.761	0.41773	0.417506	0.0175099	6	0.00039601	12	0	6.7407	7.31051e-06	23843.9
2	1	0	1	0	1	107.16	0.421725	0.421462	0.0486384	6	0.000408724	12	0	7.1402	2.04992e-05	8665.21
2	1	0	1	0	1	107.56	0.425719	0.425467	0.0207073	6	0.000421313	12	0	7.5396	8.81028e-06	20546.7
2	0	0	1	0	1	107.959	0.429714	0.429453	0.0309136	6	0.000434083	12	0	7.939	1.32759e-05	13892
2	1	0	1	0	1	108.359	0.433709	0.433456	0.0412584	6	0.000446314	12	0	8.3385	1.78837e-05	10505.9
2	1	0	1	0	1	108.758	0.437703	0.437471	0.0148119	6	0.00045884	12	0	8.738	6.47978e-06	29535.1
2	0	0	1	0	1	109.158	0.441697	0.441499	0.043503	6	0.000471109	12	0	9.1374	1.92065e-05	10148.7
2	1	0	1	0	1	109.557	0.445692	0.445498	0.027209	6	0.000483146	12	0	9.5368	1.21216e-05	16373.2
2	0	0	1	0	1	109.957	0.449687	0.449456	0.0217364	6	0.000495506	12	0	9.9363	9.76957e-06	20677.5
2	0	0	1	0	1	110.263	0.44724	0.446983	-0.0184628	6	0.000490676	12	0	0.2497	-8.25255e-06	24210
2	1	0	1	0	1	110.662	0.443245	0.442992	-0.0156055	6	0.000481008	12	0	0.6491	-6.91311e-06	28387
2	0	0	1	0	1	111.062	0.43925	0.438974	-0.0404906	6	0.000471201	12	0	1.0486	-1.77744e-05	10841.4
2	0	0	1	0	1	111.461	0.435257	0.434989	-0.0122311	6	0.000460837	12	0	1.448	-5.32041e-06	35564.1
2	1	0	1	0	1	111.861	0.431262	0.430981	-0.0291009	6	0.000449984	12	0	1.8475	-1.25419e-05	14809.9
2	0	0	1	0	1	112.26	0.427267	0.427032	-0.0347322	6	0.000439265	12	0	2.2469	-1.48318e-05	12295
2	0	0	1	0	1	112.659	0.423273	0.422972	-0.0117406	6	0.000427844	12	0	2.6463	-4.96595e-06	36026.4
2	1	0	1	0	1	113.059	0.419278	0.419006	-0.0434038	6	0.000416391	12	0	3.0458	-1.81864e-05	9653.68
2	0	0	1	0	1	113.458	0.415284	0.415047	-0.0237756	6	0.000404792	12	0	3.4453	-9.86801e-06	17456.8
2	1	0	1	0	1	113.858	0.411289	0.411092	-0.0212678	6	0.000392549	12	0	3.8447	-8.74302e-06	19329.3
2	0	0	1	0	1	114.257	0.407295	0.407024	-0.0468154	6	0.000380486	12	0	4.2441	-1.9055e-05	8694.25
2	0	0	1	0	1	114.657	0.4033	0.40304	-0.0145012	6	0.000367863	12	0	4.6436	-5.84458e-06	27793.5
2	1	0	1	0	1	115.056	0.399306	0.399025	-0.0380606	6	0.000354926	12	0	5.0431	-1.51871e-05	10484
2	0	0	1	0	1	115.456	0.395312	0.395075	-0.0385936	6	0.000342144	12	0	5.4425	-1.52474e-05	10236.8
2	0	0	1	0	1	115.855	0.391317	0.391043	-0.0163168	6	0.000328612	12	0	5.8419	-6.38058e-06	23965.6
2	1	0	1	0	1	116.255	0.387322	0.387024	-0.0512917	6	0.000315099	12	0	6.2414	-1.98511e-05	7545.55
2	0	0	1	0	1	116.654	0.383329	0.383041	-0.026149	6	0.000301373	12	0	6.6408	-1.00161e-05	14648.4
2	1	0	1	0	1	117.053	0.379334	0.379041	-0.0285843	6	0.000286948	12	0	7.0403	-1.08346e-05	13260.5
2	0	0	1	0	1	117.453	0.375339	0.37511	-0.0527696	6	0.000272741	12	0	7.4397	-1.97944e-05	7108.44
2	0	0	1	0	1	117.852	0.371345	0.371079	-0.0177782	6	0.000257891	12	0	7.8391	-6.59712e-06	20872.7
2	1	0	1	0	1	118.252	0.36735	0.367075	-0.0471968	6	0.000242678	12	0	8.2386	-1.73248e-05	7777.55
2	0	0	1	0	1	118.651	0.363356	0.363079	-0.041656	6	0.000227583	12	0	8.6381	-1.51244e-05	8716.15
2	1	0	1	0	1	119.051	0.359361	0.359124	-0.0236269	6	0.000211589	12	0	9.0375	-8.48497e-06	15199.8
2	0	0	1	0	1	119.45	0.355367	0.355126	-0.0605613	6	0.000195719	12	0	9.4369	-2.15069e-05	5863.91
2	0	0	1	0	1	119.85	0.351372	0.351096	-0.0257045	6	0.000179408	12	0	9.8364	-9.02473e-06	13658.9
2	1	0	1	0	0	120.117	0.351322	0.351028	0.0134724	7	0.000177775	12	0	0.0999	4.72917e-06	26055.4
2	0	0	1	0	0	120.516	0.355317	0.355075	0.0481104	7	0.00019215	12	0	0.4994	1.70828e-05	7380.42
2	1	0	1	0	0	120.916	0.359311	0.359094	0.0388791	7	0.000206593	12	0	0.8988	1.39612e-05	9236.18
2	1	0	1	0	0	121.315	0.363306	0.363079	0.0215952	7	0.000221712	12	0	1.2982	7.84078e-06	16813
2	1	0	1	0	0	121.715	0.3673	0.367059	0.0564271	7	0.000236344	12	0	1.6977	2.07121e-05	6505.01
2	1	0	1	0	0	122.114	0.371295	0.37104	0.0215994	7	0.000250978	12	0	2.0972	8.01422e-06	17178.3
2	0	0	1	0	0	122.513	0.375289	0.375023	0.0380092	7	0.000265773	12	0	2.4966	1.42543e-05	9866.64
2	1	0	1	0	0	122.913	0.379284	0.379065	0.047334	7	0.000279906	12	0	2.896	1.79427e-05	8008.31
2	1	0	1	0	0	123.312	0.383279	0.382992	0.0160345	7	0.000294356	12	0	3.2955	6.14108e-06	23885.5
2	1	0	1	0	0	123.712	0.387272	0.387004	0.0506554	7	0.000308435	12	0	3.6949	1.96038e-05	7639.93
2	1	0	1	0	0	124.111	0.391267	0.391016	0.0295319	7	0.000322158	12	0	4.0944	1.15474e-05	13240.5
2	0	0	1	0	0	124.511	0.395262	0.395003	0.0255742	7	0.000336178	12	0	4.4938	1.01019e-05	15445.4
2	1	0	1	0	0	124.91	0.399256	0.399012	0.0506137	7	0.000349564	12	0	4.8932	2.01955e-05	7883.48
2	1	0	1	0	0	125.31	0.40325	0.403014	0.0165359	7	0.000363038	12	0	5.2927	6.6642e-06	24372
2	0	0	1	0	0	125.709	0.407245	0.407032	0.0403151	7	0.00037652	12	0	5.6922	1.64095e-05	10096.3
2	1	0	1	0	0	126.108	0.411239	0.411076	0.0373543	7	0.000389388	12	0	6.0916	1.53554e-05	11004.8
2	1	0	1	0	0	126.508	0.415234	0.414997	0.0174569	7	0.000402597	12	0	6.491	7.24458e-06	23772.7
2	1	0	1	0	0	126.907	0.419228	0.419013	0.0486493	7	0.000415346	12	0	6.8905	2.03847e-05	8612.94
2	1	0	1	0	0	127.307	0.423223	0.423006	0.0219551	7	0.000427947	12	0	7.29	9.28713e-06	19266.9
2	0	0	1	0	0	127.706	0.427217	0.426946	0.0299245	7	0.000440764	12	0	7.6894	1.27762e-05	14267.4
2	1	0	1	0	0	128.106	0.431212	0.430991	0.0425439	7	0.000453013	12	0	8.0888	1.8336e-05	10130.5
2	1	0	1	0	0	128.505	0.435207	0.434964	0.0150514	7	0.000465532	12	0	8.4883	6.54681e-06	28898.6
2	1	0	1	0	0	128.905	0.4392	0.438956	0.0441117	7	0.00047781	12	0	8.8877	1.93631e-05	9951.03
2	1	0	1	0	0	129.304	0.443195	0.442982	0.0268729	7	0.000489833	12	0	9.2872	1.19042e-05	16484.4
2	1	0	1	0	0	129.703	0.44719	0.446979	0.0225254	7	0.000502175	12	0	9.6866	1.00684e-05	19843.3
2	0	0	1	0	0	130.01	0.449737	0.449507	-0.0162808	7	0.000510171	12	0	0.000000000000000E+000	-7.31833e-06	27609.7
2	0	0	1	0	0	130.409	0.445742	0.445459	-0.0159629	7	0.000501083	12	0	0.3995	-7.11082e-06	27905.9
2	0	0	1	0	0	130.809	0.441747	0.441485	-0.0416899	7	0.00049156	12	0	0.7989	-1.84055e-05	10589.7
2	0	0	1	0	0	131.208	0.437753	0.437504	-0.013174	7	0.000481416	12	0	1.1983	-5.76366e-06	33209.8
2	1	0	1	0	0	131.608	0.433759	0.433484	-0.0313125	7	0.000470763	12	0	1.5978	-1.35735e-05	13843.8
2	0	0	1	0	0	132.007	0.429764	0.429487	-0.0358321	7	0.000460208	12	0	1.9973	-1.53894e-05	11986.1
2	0	0	1	0	0	132.406	0.425769	0.425506	-0.0136248	7	0.000448961	12	0	2.3967	-5.79741e-06	31230.3
2	0	0	1	0	0	132.806	0.421775	0.42151	-0.0451089	7	0.000437687	12	0	2.7961	-1.90138e-05	9344.28
2	0	0	1	0	0	133.205	0.41778	0.417535	-0.0234002	7	0.000426232	12	0	3.1956	-9.77041e-06	17843.2
2	0	0	1	0	0	133.605	0.413786	0.413572	-0.0255437	7	0.000414159	12	0	3.5951	-1.05641e-05	16190.8
2	0	0	1	0	0	134.004	0.409791	0.409524	-0.0462742	7	0.00040229	12	0	3.9945	-1.89504e-05	8849.95
2	0	0	1	0	0	134.404	0.405797	0.405512	-0.015917	7	0.00038982	12	0	4.3939	-6.45454e-06	25476.6
2	1	0	1	0	0	134.803	0.401802	0.401578	-0.0442961	7	0.000377098	12	0	4.7934	-1.77883e-05	9065.76
2	0	0	1	0	0	135.203	0.397809	0.397531	-0.0330154	7	0.000364474	12	0	5.1928	-1.31247e-05	12040.8
2	0	0	1	0	0	135.602	0.393814	0.393548	-0.0234701	7	0.000351085	12	0	5.5923	-9.23661e-06	16768.1
2	0	0	1	0	0	136.001	0.389819	0.389541	-0.0526705	7	0.000337884	12	0	5.9917	-2.05173e-05	7395.81
2	0	0	1	0	0	136.401	0.385825	0.385561	-0.019228	7	0.000324197	12	0	6.3911	-7.41355e-06	20052.1
2	1	0	1	0	0	136.8	0.381831	0.381566	-0.0424565	7	0.000310047	12	0	6.7906	-1.62e-05	8987.22
2	0	0	1	0	0	137.2	0.377836	0.377579	-0.0430328	7	0.000296078	12	0	7.1901	-1.62483e-05	8774.22
2	0	0	1	0	0	137.599	0.373841	0.373583	-0.0212212	7	0.000281288	12	0	7.5895	-7.92788e-06	17604.3
2	0	0	1	0	0	137.999	0.369847	0.369608	-0.0577402	7	0.000266567	12	0	7.9889	-2.13412e-05	6401.22
2	0	0	1	0	0	138.398	0.365852	0.365604	-0.0240848	7	0.000251466	12	0	8.3884	-8.8055e-06	15179.9
2	1	0	1	0	0	138.798	0.361858	0.361568	-0.0417353	7	0.000235735	12	0	8.7879	-1.50902e-05	8663.35
2	0	0	1	0	0	139.197	0.357864	0.357539	-0.0514521	7	0.000220223	12	0	9.1873	-1.83961e-05	6948.97
2	0	0	1	0	0	139.596	0.353869	0.353612	-0.0206824	7	0.000203878	12	0	9.5867	-7.31354e-06	17097.3
2	0	0	1	0	0	139.976	0.350074	0.34981	-0.0165724	7	0.000188773	12	0	9.9663	-5.7972e-06	21108
2	1	0	1	0	1	140.263	0.35282	0.352605	0.0551383	8	0.000197231	12	0	0.2497	1.9442e-05	6394.92
2	1	0	1	0	1	140.663	0.356815	0.356549	0.0178694	8	0.000211771	12	0	0.6492	6.37131e-06	19953.1
2	0	0	1	0	1	141.062	0.360809	0.360537	0.0445002	8	0.000226681	12	0	1.0486	1.6044e-05	8101.91
2	1	0	1	0	1	141.461	0.364804	0.364593	0.0419803	8	0.000241166	12	0	1.448	1.53057e-05	8684.86
2	1	0	1	0	1	141.861	0.368799	0.368524	0.0196355	8	0.000256161	12	0	1.8475	7.23614e-06	18768.2
2	1	0	1	0	1	142.26	0.372793	0.372562	0.0555591	8	0.000270643	12	0	2.247	2.06992e-05	6705.68
2	1	0	1	0	1	142.66	0.376787	0.376531	0.0221503	8	0.000285048	12	0	2.6464	8.34028e-06	16998.9
2	0	0	1	0	1	143.059	0.380782	0.380532	0.0356167	8	0.000299605	12	0	3.0458	1.35533e-05	10684.1
2	1	0	1	0	1	143.459	0.384777	0.384503	0.0453956	8	0.000313484	12	0	3.4453	1.74547e-05	8470.05
2	1	0	1	0	1	143.858	0.38877	0.388533	0.0166212	8	0.0003277	12	0	3.8447	6.45788e-06	23375.8
2	1	0	1	0	1	144.258	0.392765	0.392497	0.0521522	8	0.000341445	12	0	4.2442	2.04696e-05	7526
2	1	0	1	0	1	144.657	0.39676	0.396438	0.0223021	8	0.000354989	12	0	4.6436	8.8414e-06	17775.8
2	0	0	1	0	1	145.056	0.400754	0.400507	0.0338263	8	0.000368714	12	0	5.043	1.35477e-05	11840.1
2	1	0	1	0	1	145.456	0.404748	0.404541	0.0426196	8	0.000381776	12	0	5.4425	1.72414e-05	9491.89
2	1	0	1	0	1	145.855	0.408743	0.408539	0.0159537	8	0.000395236	12	0	5.842	6.51769e-06	25607.9
2	1	0	1	0	1	146.255	0.412737	0.412532	0.0490854	8	0.000408169	12	0	6.2414	2.02493e-05	8404.37
2	1	0	1	0	1	146.654	0.416732	0.416541	0.0215717	8	0.000420928	12	0	6.6408	8.98547e-06	19309.6
2	0	0	1	0	1	147.054	0.420727	0.420517	0.0327979	8	0.000433889	12	0	7.0403	1.37921e-05	12821.5
2	1	0	1	0	1	147.453	0.424721	0.42451	0.0404618	8	0.00044625	12	0	7.4398	1.71765e-05	10491.6
2	1	0	1	0	1	147.853	0.428715	0.428436	0.0162433	8	0.000458932	12	0	7.8392	6.95923e-06	26376.2
2	1	0	1	0	1	148.252	0.43271	0.432485	0.0472097	8	0.000471226	12	0	8.2386	2.04175e-05	9160.95
2	1	0	1	0	1	148.652	0.436705	0.436491	0.0190043	8	0.000483422	12	0	8.6381	8.29518e-06	22968
2	0	0	1	0	1	149.051	0.440698	0.440484	0.0351475	8	0.000495786	12	0	9.0375	1.54819e-05	12532.5
2	1	0	1	0	1	149.45	0.444693	0.444449	0.0343028	8	0.00050764	12	0	9.437	1.52459e-05	12956.6
2	1	0	1	0	1	149.85	0.448687	0.448461	0.0189348	8	0.000519876	12	0	9.8364	8.49153e-06	23684.4
2	0	0	1	0	1	150.156	0.448239	0.447962	-0.022193	8	0.000520179	12	0	0.1772	-9.94161e-06	20184.9
2	1	0	1	0	1	150.556	0.444244	0.444028	-0.0182533	8	0.000510651	12	0	0.5767	-8.10498e-06	24325.9
2	0	0	1	0	1	150.955	0.440249	0.440013	-0.040317	8	0.000500987	12	0	0.9761	-1.774e-05	10913.8
2	0	0	1	0	1	151.354	0.436255	0.436029	-0.0114366	8	0.000490616	12	0	1.3755	-4.98668e-06	38125.8
2	0	0	1	0	1	151.754	0.43226	0.432021	-0.0405341	8	0.000479971	12	0	1.775	-1.75116e-05	10658.2
2	0	0	1	0	1	152.153	0.428266	0.428	-0.0242623	8	0.000469271	12	0	2.1745	-1.03842e-05	17640.5
2	1	0	1	0	1	152.553	0.424271	0.424014	-0.0244327	8	0.000457869	12	0	2.5739	-1.03598e-05	17354.4
2	0	0	1	0	1	152.952	0.420277	0.420009	-0.0428527	8	0.000446695	12	0	2.9733	-1.79985e-05	9801.21
2	0	0	1	0	1	153.352	0.416282	0.416067	-0.0137049	8	0.000434884	12	0	3.3728	-5.70217e-06	30359
2	0	0	1	0	1	153.751	0.412288	0.412064	-0.0459968	8	0.000422973	12	0	3.7723	-1.89536e-05	8958.55
2	0	0	1	0	1	154.151	0.408294	0.408012	-0.0233952	8	0.000410966	12	0	4.1717	-9.54553e-06	17440
2	1	0	1	0	1	154.55	0.404299	0.404016	-0.0323281	8	0.000398215	12	0	4.5711	-1.30611e-05	12497.4
2	0	0	1	0	1	154.95	0.400304	0.400036	-0.0427847	8	0.000385814	12	0	4.9706	-1.71155e-05	9349.98
2	0	0	1	0	1	155.349	0.396311	0.396095	-0.0167418	8	0.000372665	12	0	5.37	-6.63134e-06	23659
2	0	0	1	0	1	155.748	0.392316	0.392097	-0.051759	8	0.000359546	12	0	5.7695	-2.02946e-05	7575.44
2	0	0	1	0	1	156.148	0.388321	0.388037	-0.0223947	8	0.000346164	12	0	6.1689	-8.68996e-06	17327.2
2	1	0	1	0	1	156.547	0.384327	0.384055	-0.0385099	8	0.00033215	12	0	6.5683	-1.47899e-05	9972.89
2	0	0	1	0	1	156.947	0.380332	0.380045	-0.0433221	8	0.0003184	12	0	6.9678	-1.64643e-05	8772.54
2	0	0	1	0	1	157.346	0.376338	0.376092	-0.0206854	8	0.000303821	12	0	7.3673	-7.77962e-06	18181.5
2	0	0	1	0	1	157.746	0.372343	0.372062	-0.0566427	8	0.000289311	12	0	7.7667	-2.10746e-05	6568.59
2	0	0	1	0	1	158.145	0.368349	0.36811	-0.0227959	8	0.000274415	12	0	8.1661	-8.39139e-06	16148.1
2	1	0	1	0	1	158.545	0.364354	0.364046	-0.0440204	8	0.000258929	12	0	8.5656	-1.60254e-05	8269.94
2	0	0	1	0	1	158.944	0.36036	0.36006	-0.0463489	8	0.000243661	12	0	8.9651	-1.66884e-05	7768.47
2	0	0	1	0	1	159.343	0.356366	0.356133	-0.0241966	8	0.000227483	12	0	9.3645	-8.61718e-06	14718.3
2	0	0	1	0	1	159.743	0.352371	0.352121	-0.0616912	8	0.000211425	12	0	9.7639	-2.17227e-05	5707.79
2	1	0	1	0	0	160.01	0.350324	0.3501	0.0455224	9	0.000202158	12	0	0.000000000000000E+000	1.59374e-05	7690.74
2	1	0	1	0	0	160.41	0.354318	0.354078	0.0166394	9	0.00021632	12	0	0.3995	5.89165e-06	21279.4
2	1	0	1	0	0	160.809	0.358313	0.3581	0.0561597	9	0.000230856	12	0	0.799	2.01108e-05	6376.45
2	1	0	1	0	0	161.208	0.362307	0.362084	0.0235092	9	0.000245469	12	0	1.1984	8.51229e-06	15401.8
2	0	0	1	0	0	161.608	0.366302	0.36602	0.0390699	9	0.00026045	12	0	1.5978	1.43003e-05	9368.34
2	1	0	1	0	0	162.007	0.370297	0.370029	0.0444204	9	0.000274787	12	0	1.9973	1.64368e-05	8330.15
2	1	0	1	0	0	162.407	0.37429	0.374077	0.0189084	9	0.000289535	12	0	2.3967	7.0732e-06	19783.6
2	1	0	1	0	0	162.806	0.378285	0.378058	0.0550626	9	0.000303783	12	0	2.7962	2.08169e-05	6865.98
2	1	0	1	0	0	163.206	0.38228	0.38204	0.0205761	9	0.000317927	12	0	3.1956	7.86089e-06	18567.1
2	0	0	1	0	0	163.605	0.386274	0.386027	0.0412675	9	0.000332168	12	0	3.595	1.59304e-05	9354.27
2	1	0	1	0	0	164.005	0.390268	0.390011	0.037582	9	0.000345753	12	0	3.9945	1.46574e-05	10377.6
2	0	0	1	0	0	164.404	0.394263	0.394035	0.0216472	9	0.000359718	12	0	4.394	8.52974e-06	18202.6
2	1	0	1	0	0	164.803	0.398257	0.398031	0.0508117	9	0.000373054	12	0	4.7934	2.02246e-05	7833.45
2	1	0	1	0	0	165.203	0.402252	0.401996	0.0161872	9	0.000386477	12	0	5.1928	6.50719e-06	24834.2
2	0	0	1	0	0	165.602	0.406246	0.406008	0.0459902	9	0.000399808	12	0	5.5923	1.86724e-05	8828.16
2	1	0	1	0	0	166.002	0.410241	0.410042	0.0307813	9	0.000412659	12	0	5.9918	1.26216e-05	13321.2
2	0	0	1	0	0	166.401	0.414235	0.41403	0.0242914	9	0.000425831	12	0	6.3912	1.00574e-05	17044.3
2	1	0	1	0	0	166.801	0.41823	0.418025	0.0467024	9	0.000438386	12	0	6.7906	1.95228e-05	8950.81
2	1	0	1	0	0	167.2	0.422225	0.422024	0.0142668	9	0.00045113	12	0	7.1901	6.02093e-06	29580.9
2	0	0	1	0	0	167.6	0.426219	0.425986	0.0447507	9	0.000463683	12	0	7.5896	1.90632e-05	9519.09
2	1	0	1	0	0	167.999	0.430213	0.429969	0.0240179	9	0.000475894	12	0	7.989	1.0327e-05	17902
2	0	0	1	0	0	168.398	0.434208	0.433947	0.0281669	9	0.000488413	12	0	8.3884	1.22229e-05	15406.3
2	1	0	1	0	0	168.798	0.438203	0.437932	0.0408134	9	0.000500367	12	0	8.7879	1.78735e-05	10730.1
2	1	0	1	0	0	169.197	0.442196	0.441923	0.0148635	9	0.000512634	12	0	9.1873	6.56852e-06	29732.1
2	1	0	1	0	0	169.597	0.446191	0.44599	0.0455007	9	0.000524586	12	0	9.5868	2.02929e-05	9801.83
2	1	0	0	0	0	169.974	0.449961	0.449679	0.058611	9	0.000536126	12	0	9.9637	2.63561e-05	7672.25
2	0	0	1	0	0	170.303	0.446741	0.446485	-0.0390404	9	0.000529007	12	0	0.2996	-1.74309e-05	11436.5
2	0	0	1	0	0	170.702	0.442746	0.442467	-0.010365	9	0.00051938	12	0	0.6991	-4.58615e-06	42688.7
2	1	0	1	0	0	171.101	0.438751	0.438491	-0.0378529	9	0.000509248	12	0	1.0985	-1.65982e-05	11584.1
2	0	0	1	0	0	171.501	0.434757	0.434488	-0.0229173	9	0.000499048	12	0	1.4979	-9.95727e-06	18959
2	1	0	1	0	0	171.9	0.430762	0.430499	-0.0256767	9	0.000488086	12	0	1.8974	-1.10538e-05	16766.1
2	0	0	1	0	0	172.3	0.426768	0.426491	-0.0374421	9	0.000477356	12	0	2.2969	-1.59687e-05	11390.7
2	0	0	1	0	0	172.699	0.422774	0.422474	-0.0152612	9	0.000465904	12	0	2.6963	-6.44744e-06	27683
2	0	0	1	0	0	173.099	0.418779	0.418533	-0.0465491	9	0.000454531	12	0	3.0957	-1.94823e-05	8991.22
2	0	0	1	0	0	173.498	0.414784	0.414523	-0.0148268	9	0.000442784	12	0	3.4952	-6.14603e-06	27957.8
2	1	0	1	0	0	173.898	0.410791	0.410544	-0.0415449	9	0.000430649	12	0	3.8946	-1.7056e-05	9881.94
2	0	0	1	0	0	174.297	0.406796	0.406536	-0.0295972	9	0.000418646	12	0	4.2941	-1.20323e-05	13735.6
2	0	0	1	0	0	174.696	0.402801	0.402531	-0.0265128	9	0.000405797	12	0	4.6935	-1.06723e-05	15182.5
2	0	0	1	0	0	175.096	0.398807	0.398508	-0.0464381	9	0.000393305	12	0	5.0929	-1.85059e-05	8581.49
2	0	0	1	0	0	175.495	0.394813	0.394561	-0.0167749	9	0.000380107	12	0	5.4924	-6.61873e-06	23520.9
2	0	0	1	0	0	175.895	0.390818	0.390501	-0.0529624	9	0.000366908	12	0	5.8919	-2.06819e-05	7373.18
2	0	0	1	0	0	176.294	0.386823	0.386512	-0.0191896	9	0.000353408	12	0	6.2913	-7.41701e-06	20141.7
2	1	0	1	0	0	176.694	0.382829	0.382533	-0.0452995	9	0.00033938	12	0	6.6907	-1.73285e-05	8444.53
2	0	0	1	0	0	177.093	0.378834	0.378617	-0.0351272	9	0.000325525	12	0	7.0902	-1.32998e-05	10778.4
2	0	0	1	0	0	177.493	0.37484	0.374592	-0.0311128	9	0.00031081	12	0	7.4897	-1.16546e-05	12039.8
2	0	0	1	0	0	177.892	0.370846	0.370583	-0.0520068	9	0.000296372	12	0	7.8891	-1.92728e-05	7125.65
2	0	0	1	0	0	178.291	0.366851	0.366611	-0.0204863	9	0.000281126	12	0	8.2885	-7.51051e-06	17895.4
2	0	0	1	0	0	178.691	0.362856	0.362564	-0.0604063	9	0.00026588	12	0	8.688	-2.19011e-05	6002.08
2	0	0	1	0	0	179.09	0.358863	0.358557	-0.0240569	9	0.000250264	12	0	9.0874	-8.62577e-06	14904.6
2	0	0	1	0	0	179.49	0.354868	0.354634	-0.0498062	9	0.000234052	12	0	9.4869	-1.7663e-05	7120.27
2	0	0	1	0	0	179.889	0.350873	0.350586	-0.0435945	9	0.000218041	12	0	9.8863	-1.52836e-05	8041.97
2	1	0	1	0	1	180.156	0.351822	0.351562	0.02204	10	0.000220036	12	0	0.1773	7.74841e-06	15951.1
2	0	0	1	0	1	180.556	0.355817	0.355566	0.0444678	10	0.000234573	12	0	0.5768	1.58112e-05	7996.03
2	1	0	1	0	1	180.955	0.359811	0.359577	0.0426113	10	0.000248911	12	0	0.9763	1.53221e-05	8438.54
2	1	0	1	0	1	181.355	0.363805	0.363545	0.0251816	10	0.000263944	12	0	1.3757	9.15463e-06	14436.9
2	1	0	1	0	1	181.754	0.3678	0.367552	0.056264	10	0.000278384	12	0	1.7751	2.068e-05	6532.64
2	1	0	1	0	1	182.154	0.371795	0.371562	0.0185909	10	0.000293041	12	0	2.1746	6.90768e-06	19986.2
2	1	0	1	0	1	182.553	0.375788	0.375532	0.0526254	10	0.00030755	12	0	2.574	1.97625e-05	7135.95
2	1	0	1	0	1	182.953	0.379783	0.379576	0.0297466	10	0.000321606	12	0	2.9735	1.12911e-05	12760.3
2	1	0	1	0	1	183.352	0.383778	0.383464	0.034842	10	0.000336019	12	0	3.3729	1.33607e-05	11005.8
2	1	0	1	0	1	183.751	0.387772	0.38754	0.0454481	10	0.000349668	12	0	3.7723	1.76129e-05	8527.08
2	1	0	1	0	1	184.151	0.391766	0.391508	0.0208685	10	0.000363702	12	0	4.1718	8.1702e-06	18760.7
2	1	0	1	0	1	184.55	0.395761	0.395472	0.0532538	10	0.000377145	12	0	4.5713	2.10604e-05	7426.18
2	1	0	1	0	1	184.95	0.399755	0.39949	0.0176652	10	0.000390628	12	0	4.9707	7.05709e-06	22614.5
2	1	0	1	0	1	185.349	0.40375	0.403495	0.0463607	10	0.000404005	12	0	5.3701	1.87063e-05	8703.37
2	1	0	1	0	1	185.749	0.407745	0.40756	0.0296435	10	0.000416968	12	0	5.7696	1.20815e-05	13748.7
2	1	0	1	0	1	186.148	0.411739	0.411521	0.0297944	10	0.000430205	12	0	6.1691	1.2261e-05	13812
2	1	0	1	0	1	186.548	0.415733	0.415543	0.0426756	10	0.000442772	12	0	6.5685	1.77335e-05	9737.26
2	1	0	1	0	1	186.947	0.419728	0.419517	0.0183203	10	0.000455674	12	0	6.9679	7.68568e-06	22899
2	1	0	1	0	1	187.347	0.423723	0.423551	0.0493734	10	0.000468076	12	0	7.3674	2.09121e-05	8578.53
2	1	0	1	0	1	187.746	0.427716	0.427444	0.0160094	10	0.000480567	12	0	7.7668	6.84313e-06	26699.5
2	1	0	1	0	1	188.145	0.431711	0.431484	0.0454495	10	0.000492944	12	0	8.1663	1.96107e-05	9493.7
2	1	0	1	0	1	188.545	0.435706	0.435465	0.022919	10	0.000505004	12	0	8.5657	9.9804e-06	19000.2
2	1	0	1	0	1	188.944	0.4397	0.439437	0.0353529	10	0.00051735	12	0	8.9651	1.55354e-05	12430
2	1	0	1	0	1	189.344	0.443694	0.443464	0.0339328	10	0.000529138	12	0	9.3646	1.5048e-05	13068.9
2	1	0	1	0	1	189.743	0.447689	0.44744	0.022534	10	0.000541342	12	0	9.7641	1.00826e-05	19856.2
2	0	0	1	0	1	190.049	0.449237	0.448989	-0.0149185	10	0.000546728	12	0	0.0499	-6.69822e-06	30096.1
2	1	0	1	0	1	190.449	0.445242	0.444971	-0.0272486	10	0.000537444	12	0	0.4494	-1.21248e-05	16330.1
2	0	0	1	0	1	190.848	0.441248	0.441009	-0.0295386	10	0.000527942	12	0	0.8489	-1.30268e-05	14929.9
2	0	0	1	0	1	191.248	0.437253	0.436988	-0.018786	10	0.000517523	12	0	1.2483	-8.20925e-06	23261.4
2	0	0	1	0	1	191.647	0.433259	0.433025	-0.0404882	10	0.000507238	12	0	1.6477	-1.75324e-05	10695.1
2	0	0	1	0	1	192.047	0.429264	0.428986	-0.0129662	10	0.000496278	12	0	2.0472	-5.56233e-06	33084.9
2	0	0	1	0	1	192.446	0.425271	0.425001	-0.0454466	10	0.00048529	12	0	2.4466	-1.93148e-05	9351.66
2	0	0	1	0	1	192.846	0.421276	0.420998	-0.0152378	10	0.000473997	12	0	2.8461	-6.41509e-06	27628.4
2	1	0	1	0	1	193.245	0.417281	0.417013	-0.0417125	10	0.000462277	12	0	3.2455	-1.73947e-05	9997.31
2	0	0	1	0	1	193.645	0.413286	0.41306	-0.0248564	10	0.000450679	12	0	3.645	-1.02672e-05	16617.8
2	1	0	1	0	1	194.044	0.409293	0.409063	-0.0322987	10	0.000438346	12	0	4.0444	-1.32122e-05	12665
2	0	0	1	0	1	194.443	0.405298	0.405046	-0.0382028	10	0.000426241	12	0	4.4439	-1.54739e-05	10602.5
2	0	0	1	0	1	194.843	0.401303	0.401067	-0.020404	10	0.000413402	12	0	4.8433	-8.18335e-06	19656.3
2	0	0	1	0	1	195.242	0.397309	0.397006	-0.050794	10	0.000400769	12	0	5.2427	-2.01655e-05	7816
2	0	0	1	0	1	195.642	0.393314	0.393062	-0.0160551	10	0.00038757	12	0	5.6422	-6.31065e-06	24482
2	0	0	1	0	1	196.041	0.38932	0.389025	-0.0515167	10	0.000374192	12	0	6.0417	-2.00412e-05	7551.43
2	0	0	1	0	1	196.441	0.385325	0.38506	-0.0234584	10	0.000360678	12	0	6.4411	-9.03289e-06	16414.6
2	1	0	1	0	1	196.84	0.381331	0.381075	-0.0412479	10	0.000346506	12	0	6.8405	-1.57185e-05	9238.66
2	0	0	1	0	1	197.24	0.377336	0.377064	-0.0418965	10	0.000332589	12	0	7.24	-1.57977e-05	8999.89
2	0	0	1	0	1	197.639	0.373342	0.373102	-0.0246133	10	0.00031781	12	0	7.6395	-9.18329e-06	15158.5
2	0	0	1	0	1	198.038	0.369348	0.369066	-0.0575319	10	0.00030321	12	0	8.0389	-2.12331e-05	6414.98
2	0	0	1	0	1	198.438	0.365353	0.365104	-0.0191213	10	0.000287989	12	0	8.4383	-6.98128e-06	19094
2	0	0	1	0	1	198.837	0.361358	0.361069	-0.0577562	10	0.000272503	12	0	8.8378	-2.0854e-05	6251.6
2	0	0	1	0	1	199.237	0.357365	0.357102	-0.0310305	10	0.000256928	12	0	9.2372	-1.1081e-05	11508.1
2	1	0	1	0	1	199.636	0.35337	0.353163	-0.0434934	10	0.000240521	12	0	9.6367	-1.53602e-05	8119.92
2	0	0	0	0	1	199.971	0.35	0.349762	-0.0204886	10	0.000226559	12	0	9.9712	-7.16614e-06	17071.1