File: ACS_Catal_2026/Figures_Na_K/main_figures/data/EC/20251112_2-148_alpha_reproducibility/20251112_2-148_004_Na_first_2_K2_01_CVA_C02.mpt
EC-Lab ASCII FILE
Nb header lines : 66

Cyclic Voltammetry Advanced

Run on channel : 2 (SN 69290)
User :
CE vs. WE compliance from -10 V to 10 V
Electrode connection : standard
Potential control : Ewe
Ewe ctrl range : min = -1.00 V, max = 1.00 V
Safety Limits :
	Do not start on E overload
Acquisition started on : 11/12/2025 17:44:04.753
Loaded Setting File :  C:\Users\User\Documents\EC-Lab\Data\Yatsuzuka\20251112_2-148_alpha_reproducibility\20251112_2-148_002_alpha_reproducibility_2_K1.mps
Saved on :
	File : 20251112_2-148_004_Na_first_2_K2_01_CVA_C02.mpr
	Directory : C:\Users\User\Documents\EC-Lab\Data\Yatsuzuka\20251112_2-148_alpha_reproducibility\
	Host : 192.109.209.127
Device : SP-150e (SN .003883)
Address : 192.109.209.128
EC-Lab for windows v11.52 (software)
Internet server v11.52 (firmware)
Command interpretor v11.50 (firmware)
Electrode material :
Initial state :
Electrolyte :
Comments :
Electrode surface area : 0.001 cm2
Characteristic mass : 0.001 g
Equivalent Weight : 0.000 g/eq.
Density : 0.000 g/cm3
Volume (V) : 0.001 cm3
Cycle Definition : Charge/Discharge alternance
Ei (V)              0.350
vs.                 Ref
ti (h:m:s)          0:00:10.0000
dti (s)             0.0000
dE/dt               10.000
dE/dt unit          mV/s
E1 (V)              0.450
vs.                 Ref
t1 (h:m:s)          0:00:0.0000
dt1 (s)             0.1000
Step percent        50
N                   10
E range min (V)     -1.000
E range max (V)     1.000
I Range             Auto
I Range min         Unset
I Range max         Unset
I Range init        Unset
Bandwidth           5
E2 (V)              0.350
vs.                 Ref
t2 (h:m:s)          0:00:0.0000
dt2 (s)             0.1000
nc cycles           9
nr                  1
Reverse Scan        0
Ef (V)              0.000
vs.                 Eoc
tf (h:m:s)          0:00:0.0000
dtf (s)             0.1000

mode	ox/red	error	control changes	Ns changes	counter inc.	time/s	control/V	Ewe/V	<I>/mA	cycle number	(Q-Qo)/C	I Range	Ns	step time/s	P/W
2	0	0	0	0	0	0.000000000000000E+000	0.349989	0.349459	-0.0171605	1	0.0000000E+000	13	0	0.000000000000000E+000	-5.9969e-06
2	1	0	1	0	0	0.3871	0.353859	0.353403	0.0429657	1	1.23395e-05	13	0	0.3596	1.51842e-05
2	1	0	1	0	0	0.7367	0.357355	0.35692	0.0367303	1	2.39054e-05	13	0	0.7092	1.31098e-05
2	1	0	1	0	0	1.0863	0.360851	0.360414	0.028385	1	3.5512e-05	13	0	1.0588	1.02304e-05
2	1	0	1	0	0	1.4359	0.364347	0.363899	0.0228899	1	4.70379e-05	13	0	1.4084	8.3296e-06
2	1	0	1	0	0	1.7855	0.367843	0.36738	0.021744	1	5.84367e-05	13	0	1.758	7.9883e-06
2	1	0	1	0	0	2.1351	0.371339	0.370855	0.0215468	1	6.9685e-05	13	0	2.1076	7.99075e-06
2	1	0	1	0	0	2.4847	0.374835	0.374358	0.0256131	1	8.07858e-05	13	0	2.4572	9.58845e-06
2	1	0	1	0	0	2.8343	0.37833	0.377812	0.0296382	1	9.173e-05	13	0	2.8068	1.11977e-05
2	1	0	1	0	0	3.1838	0.381826	0.381328	0.034116	1	0.000102506	13	0	3.1563	1.30094e-05
2	1	0	1	0	0	3.5334	0.385322	0.384861	0.0381742	1	0.000113104	13	0	3.5059	1.46918e-05
2	1	0	1	0	0	3.883	0.388818	0.388365	0.0406424	1	0.000123588	13	0	3.8555	1.57841e-05
2	1	0	1	0	0	4.2326	0.392315	0.391837	0.0392528	1	0.000133903	13	0	4.2051	1.53807e-05
2	1	0	1	0	0	4.5821	0.39581	0.395387	0.0357328	1	0.000144075	13	0	4.5546	1.41283e-05
2	1	0	1	0	0	4.9317	0.399306	0.39887	0.028274	1	0.000154096	13	0	4.9042	1.12776e-05
2	1	0	1	0	0	5.2813	0.402801	0.402348	0.0226947	1	0.000164004	13	0	5.2538	9.13119e-06
2	1	0	1	0	0	5.6309	0.406297	0.405827	0.0180137	1	0.000173766	13	0	5.6034	7.31045e-06
2	1	0	1	0	0	5.9805	0.409793	0.409326	0.0171512	1	0.000183308	13	0	5.953	7.02043e-06
2	1	0	1	0	0	6.3301	0.413289	0.412761	0.0200685	1	0.000192788	13	0	6.3026	8.28348e-06
2	1	0	1	0	0	6.6797	0.416785	0.416302	0.024385	1	0.000202136	13	0	6.6522	1.01515e-05
2	1	0	1	0	0	7.0293	0.420281	0.419777	0.0300071	1	0.000211372	13	0	7.0018	1.25963e-05
2	1	0	1	0	0	7.3789	0.423777	0.42326	0.0340052	1	0.000220474	13	0	7.3514	1.4393e-05
2	1	0	1	0	0	7.7285	0.427272	0.426828	0.0354642	1	0.00022949	13	0	7.701	1.51371e-05
2	1	0	1	0	0	8.078	0.430768	0.43031	0.0341537	1	0.000238363	13	0	8.0505	1.46967e-05
2	1	0	1	0	0	8.4276	0.434264	0.433755	0.0300593	1	0.000247164	13	0	8.4001	1.30383e-05
2	1	0	1	0	0	8.7772	0.43776	0.437277	0.0218812	1	0.000255847	13	0	8.7497	9.56814e-06
2	1	0	1	0	0	9.1268	0.441257	0.440771	0.0163064	1	0.00026449	13	0	9.0993	7.18738e-06
2	1	0	1	0	0	9.4763	0.444752	0.444243	0.015198	1	0.000273005	13	0	9.4488	6.75161e-06
2	1	0	1	0	0	9.8259	0.448247	0.447804	0.0207886	1	0.000281471	13	0	9.7984	9.30921e-06
2	0	0	1	0	0	10.1713	0.448297	0.447781	-0.0206985	1	0.000283552	12	0	0.1299	-9.26838e-06
2	0	0	1	0	0	10.5358	0.444653	0.444154	-0.0123522	1	0.00027601	13	0	0.4944	-5.48628e-06
2	0	0	1	0	0	10.8854	0.441156	0.440644	-0.0199578	1	0.000268723	13	0	0.844	-8.79428e-06
2	0	0	1	0	0	11.235	0.43766	0.437172	-0.0288101	1	0.000261145	13	0	1.1936	-1.2595e-05
2	0	0	1	0	0	11.5846	0.434163	0.433634	-0.0322675	1	0.000253386	13	0	1.5432	-1.39923e-05
2	0	0	1	0	0	11.9341	0.430668	0.430124	-0.0303228	1	0.000245407	13	0	1.8927	-1.30425e-05
2	0	0	1	0	0	12.2837	0.427173	0.426633	-0.0221208	1	0.000237248	13	0	2.2423	-9.43745e-06
2	0	0	1	0	0	12.6333	0.423677	0.423156	-0.0157018	1	0.000228866	13	0	2.5919	-6.64431e-06
2	0	0	1	0	0	12.9829	0.420181	0.419683	-0.0150213	1	0.000220337	13	0	2.9415	-6.30416e-06
2	0	0	1	0	0	13.3325	0.416685	0.416181	-0.0209032	1	0.00021162	13	0	3.2911	-8.69952e-06
2	0	0	1	0	0	13.6821	0.413189	0.412738	-0.0297898	1	0.000202745	13	0	3.6407	-1.22954e-05
2	0	0	1	0	0	14.0317	0.409693	0.409181	-0.0364872	1	0.000193704	13	0	3.9903	-1.49298e-05
2	0	0	1	0	0	14.3813	0.406197	0.405659	-0.0347152	1	0.000184574	13	0	4.3399	-1.40825e-05
2	0	0	1	0	0	14.7309	0.402701	0.402191	-0.0287104	1	0.000175188	13	0	4.6895	-1.15471e-05
2	0	0	1	0	0	15.0805	0.399206	0.398666	-0.019589	1	0.00016559	13	0	5.0391	-7.80947e-06
2	0	0	1	0	0	15.43	0.395711	0.395214	-0.0180436	1	0.000155785	13	0	5.3886	-7.13107e-06
2	0	0	1	0	0	15.7796	0.392214	0.391744	-0.0238297	1	0.000145793	13	0	5.7382	-9.33514e-06
2	0	0	1	0	0	16.1292	0.388718	0.388242	-0.0341698	1	0.000135618	13	0	6.0878	-1.32662e-05
2	0	0	1	0	0	16.4788	0.385221	0.384747	-0.0406355	1	0.00012525	13	0	6.4374	-1.56344e-05
2	0	0	1	0	0	16.8283	0.381726	0.381181	-0.0387021	1	0.000114683	13	0	6.7869	-1.47525e-05
2	0	0	1	0	0	17.1779	0.378231	0.377679	-0.0299979	1	0.000103879	13	0	7.1365	-1.13296e-05
2	0	0	1	0	0	17.5275	0.374735	0.374208	-0.0231872	1	9.27933e-05	13	0	7.4861	-8.67683e-06
2	0	0	1	0	0	17.8771	0.371239	0.370758	-0.0217642	1	8.14813e-05	13	0	7.8357	-8.06923e-06
2	0	0	1	0	0	18.2267	0.367743	0.367249	-0.0292504	1	6.99202e-05	13	0	8.1853	-1.07422e-05
2	0	0	1	0	0	18.5763	0.364247	0.363772	-0.0394889	1	5.81506e-05	13	0	8.5349	-1.4365e-05
2	0	0	1	0	0	18.9259	0.360751	0.360253	-0.0459558	1	4.61182e-05	13	0	8.8845	-1.65557e-05
2	0	0	1	0	0	19.2755	0.357255	0.356783	-0.0442421	1	3.38545e-05	13	0	9.2341	-1.57848e-05
2	0	0	1	0	0	19.6251	0.35376	0.353275	-0.036399	1	2.13316e-05	13	0	9.5837	-1.28588e-05
2	0	0	1	0	0	19.9747	0.350264	0.34973	-0.0272988	1	8.49523e-06	13	0	9.9333	-9.54722e-06
2	1	0	1	0	1	20.2609	0.352611	0.352144	0.0248877	2	1.30829e-05	12	0	0.1798	8.76406e-06
2	1	0	1	0	1	20.6405	0.356406	0.35593	0.0349561	2	2.49177e-05	13	0	0.5594	1.24419e-05
2	1	0	1	0	1	20.99	0.359902	0.35942	0.0425116	2	3.59271e-05	13	0	0.9089	1.52795e-05
2	1	0	1	0	1	21.3396	0.363398	0.362954	0.0409075	2	4.70569e-05	13	0	1.2585	1.48475e-05
2	1	0	1	0	1	21.6892	0.366894	0.366518	0.0318991	2	5.81176e-05	13	0	1.6081	1.16916e-05
2	1	0	1	0	1	22.0388	0.370391	0.369969	0.0227697	2	6.91613e-05	13	0	1.9577	8.42408e-06
2	1	0	1	0	1	22.3883	0.373886	0.373392	0.0199932	2	8.00551e-05	13	0	2.3072	7.46529e-06
2	1	0	1	0	1	22.7379	0.377382	0.376919	0.0262093	2	9.08628e-05	13	0	2.6568	9.87878e-06
2	1	0	1	0	1	23.0875	0.380877	0.380381	0.0345562	2	0.000101478	13	0	3.0064	1.31445e-05
2	1	0	1	0	1	23.4371	0.384373	0.383916	0.0405128	2	0.000111968	13	0	3.356	1.55535e-05
2	1	0	1	0	1	23.7867	0.387869	0.387426	0.0384986	2	0.000122284	13	0	3.7056	1.49153e-05
2	1	0	1	0	1	24.1363	0.391365	0.390925	0.0303644	2	0.000132522	13	0	4.0552	1.18702e-05
2	1	0	1	0	1	24.4859	0.394861	0.394378	0.0221508	2	0.000142588	13	0	4.4048	8.7358e-06
2	1	0	1	0	1	24.8355	0.398357	0.397892	0.0177138	2	0.000152561	13	0	4.7544	7.04818e-06
2	1	0	1	0	1	25.1851	0.401853	0.401412	0.0195256	2	0.000162384	13	0	5.104	7.8378e-06
2	1	0	1	0	1	25.5347	0.405348	0.404851	0.0277418	2	0.000172074	13	0	5.4536	1.12313e-05
2	1	0	1	0	1	25.8842	0.408844	0.40835	0.0341151	2	0.000181517	13	0	5.8031	1.39309e-05
2	1	0	1	0	1	26.2338	0.41234	0.411864	0.0374918	2	0.000190925	13	0	6.1527	1.54415e-05
2	1	0	1	0	1	26.5834	0.415836	0.415366	0.0337378	2	0.000200194	13	0	6.5023	1.40135e-05
2	1	0	1	0	1	26.933	0.419333	0.418856	0.0259846	2	0.000209374	13	0	6.8519	1.08838e-05
2	1	0	1	0	1	27.2825	0.422828	0.422326	0.0184648	2	0.000218442	13	0	7.2014	7.79816e-06
2	1	0	1	0	1	27.6321	0.426323	0.425843	0.0156677	2	0.000227432	13	0	7.551	6.67199e-06
2	1	0	1	0	1	27.9817	0.429819	0.42934	0.0191784	2	0.000236294	13	0	7.9006	8.23403e-06
2	1	0	1	0	1	28.3313	0.433315	0.432775	0.0276788	2	0.000245052	13	0	8.2502	1.19787e-05
2	1	0	1	0	1	28.6809	0.436811	0.436302	0.033082	2	0.000253667	13	0	8.5998	1.44337e-05
2	1	0	1	0	1	29.0305	0.440307	0.439857	0.0336029	2	0.000262238	13	0	8.9494	1.47805e-05
2	1	0	1	0	1	29.3801	0.443803	0.443346	0.0269621	2	0.000270689	13	0	9.299	1.19535e-05
2	1	0	1	0	1	29.7297	0.447299	0.446851	0.0192889	2	0.00027911	13	0	9.6486	8.61925e-06
2	1	0	1	0	1	30.025	0.449747	0.449199	-0.00454345	2	0.000285385	13	0	0.000000000000000E+000	-2.04091e-06
2	0	0	1	0	1	30.3746	0.44625	0.44573	-0.0107703	2	0.000278987	13	0	0.3496	-4.80067e-06
2	0	0	1	0	1	30.7242	0.442754	0.442245	-0.0122762	2	0.000271778	13	0	0.6992	-5.4291e-06
2	0	0	1	0	1	31.0738	0.439258	0.43876	-0.0189294	2	0.000264291	13	0	1.0488	-8.30548e-06
2	0	0	1	0	1	31.4233	0.435762	0.435296	-0.026449	2	0.00025656	13	0	1.3983	-1.15131e-05
2	0	0	1	0	1	31.7729	0.432266	0.431732	-0.032548	2	0.000248671	13	0	1.7479	-1.4052e-05
2	0	0	1	0	1	32.1225	0.428771	0.428245	-0.0324173	2	0.000240568	13	0	2.0975	-1.38825e-05
2	0	0	1	0	1	32.4721	0.425275	0.424719	-0.0272175	2	0.00023229	13	0	2.4471	-1.15598e-05
2	0	0	1	0	1	32.8217	0.421779	0.421239	-0.0200932	2	0.000223823	13	0	2.7967	-8.46405e-06
2	0	0	1	0	1	33.1713	0.418283	0.417766	-0.0148051	2	0.000215188	13	0	3.1463	-6.18507e-06
2	0	0	1	0	1	33.5209	0.414787	0.414299	-0.0171505	2	0.000206355	13	0	3.4959	-7.10544e-06
2	0	0	1	0	1	33.8705	0.411291	0.410772	-0.0244241	2	0.000197388	13	0	3.8455	-1.00327e-05
2	0	0	1	0	1	34.2201	0.407795	0.407272	-0.0331941	2	0.000188252	13	0	4.1951	-1.3519e-05
2	0	0	1	0	1	34.5697	0.4043	0.403803	-0.0371976	2	0.000179033	13	0	4.5447	-1.50205e-05
2	0	0	1	0	1	34.9192	0.400805	0.400279	-0.0334236	2	0.000169529	13	0	4.8942	-1.33788e-05
2	0	0	1	0	1	35.2688	0.397308	0.396789	-0.0244957	2	0.000159852	13	0	5.2438	-9.71964e-06
2	0	0	1	0	1	35.6184	0.393812	0.393305	-0.0188557	2	0.000149927	13	0	5.5934	-7.41606e-06
2	0	0	1	0	1	35.968	0.390316	0.389802	-0.0201024	2	0.000139847	13	0	5.943	-7.83597e-06
2	0	0	1	0	1	36.3175	0.38682	0.386334	-0.0300553	2	0.000129523	13	0	6.2925	-1.16114e-05
2	0	0	1	0	1	36.6671	0.383325	0.382824	-0.0390788	2	0.000119067	13	0	6.6421	-1.49603e-05
2	0	0	1	0	1	37.0167	0.379829	0.37933	-0.0416614	2	0.000108367	13	0	6.9917	-1.58034e-05
2	0	0	1	0	1	37.3663	0.376333	0.375798	-0.036552	2	9.74544e-05	13	0	7.3413	-1.37362e-05
2	0	0	1	0	1	37.7159	0.372837	0.372281	-0.0282603	2	8.62459e-05	13	0	7.6909	-1.05208e-05
2	0	0	1	0	1	38.0655	0.369341	0.368827	-0.0222738	2	7.48374e-05	13	0	8.0405	-8.21517e-06
2	0	0	1	0	1	38.4151	0.365845	0.365359	-0.023683	2	6.31536e-05	13	0	8.3901	-8.6528e-06
2	0	0	1	0	1	38.7647	0.362349	0.361833	-0.0302958	2	5.12479e-05	13	0	8.7397	-1.0962e-05
2	0	0	1	0	1	39.1143	0.358854	0.358357	-0.0408293	2	3.90874e-05	13	0	9.0893	-1.46315e-05
2	0	0	1	0	1	39.4639	0.355358	0.354861	-0.0466541	2	2.67192e-05	13	0	9.4389	-1.65557e-05
2	0	0	1	0	1	39.8134	0.351863	0.35138	-0.0474412	2	1.40295e-05	13	0	9.7884	-1.66699e-05
2	0	0	1	0	0	40.0297	0.350314	0.349866	0.0194397	3	7.20165e-06	13	0	0.000000000000000E+000	6.80127e-06
2	1	0	1	0	0	40.4393	0.354409	0.353928	0.0421066	3	1.89129e-05	13	0	0.4096	1.49027e-05
2	1	0	1	0	0	40.7889	0.357905	0.357482	0.04179	3	2.98564e-05	13	0	0.7592	1.49392e-05
2	1	0	1	0	0	41.1385	0.3614	0.360982	0.036744	3	4.09473e-05	13	0	1.1088	1.32639e-05
2	1	0	1	0	0	41.488	0.364895	0.364424	0.0271002	3	5.20777e-05	13	0	1.4583	9.87598e-06
2	1	0	1	0	0	41.8376	0.368392	0.367942	0.0213636	3	6.31372e-05	13	0	1.8079	7.86058e-06
2	1	0	1	0	0	42.1872	0.371888	0.371452	0.0209164	3	7.41175e-05	13	0	2.1575	7.76943e-06
2	1	0	1	0	0	42.5368	0.375385	0.374912	0.025331	3	8.4953e-05	13	0	2.5071	9.4969e-06
2	1	0	1	0	0	42.8863	0.37888	0.378419	0.0332053	3	9.56619e-05	13	0	2.8566	1.25655e-05
2	1	0	1	0	0	43.2359	0.382376	0.381932	0.0397068	3	0.000106193	13	0	3.2062	1.51653e-05
2	1	0	1	0	0	43.5855	0.385871	0.385424	0.0398744	3	0.000116601	13	0	3.5558	1.53685e-05
2	1	0	1	0	0	43.9351	0.389367	0.388915	0.0345707	3	0.000126872	13	0	3.9054	1.3445e-05
2	1	0	1	0	0	44.2847	0.392863	0.392414	0.0249814	3	0.000137013	13	0	4.255	9.80307e-06
2	1	0	1	0	0	44.6343	0.396359	0.395913	0.0188551	3	0.000147043	13	0	4.6046	7.46496e-06
2	1	0	1	0	0	44.9839	0.399855	0.399377	0.018883	3	0.000156947	13	0	4.9542	7.54144e-06
2	1	0	1	0	0	45.3335	0.403351	0.402872	0.024892	3	0.000166699	13	0	5.3038	1.00283e-05
2	1	0	1	0	0	45.6831	0.406847	0.406368	0.0336271	3	0.000176303	13	0	5.6534	1.3665e-05
2	1	0	1	0	0	46.0327	0.410342	0.409893	0.037112	3	0.000185682	13	0	6.003	1.5212e-05
2	1	0	1	0	0	46.3823	0.413838	0.413328	0.0342678	3	0.000195018	13	0	6.3526	1.41639e-05
2	1	0	1	0	0	46.7318	0.417334	0.416845	0.0262715	3	0.000204226	13	0	6.7021	1.09512e-05
2	1	0	1	0	0	47.0814	0.42083	0.420347	0.0180203	3	0.000213367	13	0	7.0517	7.57478e-06
2	1	0	1	0	0	47.431	0.424327	0.423848	0.0158853	3	0.000222377	13	0	7.4013	6.73295e-06
2	1	0	1	0	0	47.7805	0.427822	0.427329	0.019803	3	0.000231318	13	0	7.7508	8.46239e-06
2	1	0	1	0	0	48.1301	0.431318	0.43079	0.0267288	3	0.000240104	13	0	8.1004	1.15145e-05
2	1	0	1	0	0	48.4797	0.434813	0.434322	0.0337355	3	0.000248805	13	0	8.45	1.46521e-05
2	1	0	1	0	0	48.8293	0.438309	0.437828	0.0337381	3	0.00025738	13	0	8.7996	1.47715e-05
2	1	0	1	0	0	49.1789	0.441805	0.441331	0.0296025	3	0.000265925	13	0	9.1492	1.30645e-05
2	1	0	1	0	0	49.5285	0.445301	0.444826	0.023194	3	0.000274352	13	0	9.4988	1.03173e-05
2	1	0	1	0	0	49.8781	0.448797	0.448338	0.0170557	3	0.000282747	13	0	9.8484	7.64672e-06
2	0	0	1	0	0	50.2334	0.447647	0.447123	-0.0283724	3	0.000282025	13	0	0.1948	-1.2686e-05
2	0	0	1	0	0	50.5829	0.444152	0.443623	-0.0263392	3	0.00027503	13	0	0.5443	-1.16847e-05
2	0	0	1	0	0	50.9325	0.440657	0.440086	-0.0203739	3	0.000267653	13	0	0.8939	-8.96626e-06
2	0	0	1	0	0	51.2821	0.437161	0.436626	-0.015069	3	0.000260007	13	0	1.2435	-6.57951e-06
2	0	0	1	0	0	51.6317	0.433665	0.433173	-0.0130662	3	0.000252141	13	0	1.5931	-5.65993e-06
2	0	0	1	0	0	51.9813	0.430169	0.429653	-0.0177898	3	0.000244109	13	0	1.9427	-7.64344e-06
2	0	0	1	0	0	52.3309	0.426673	0.426154	-0.0262338	3	0.000235895	13	0	2.2923	-1.11796e-05
2	0	0	1	0	0	52.6805	0.423177	0.422666	-0.032427	3	0.000227528	13	0	2.6419	-1.37058e-05
2	0	0	1	0	0	53.0301	0.419681	0.419133	-0.0348239	3	0.000218961	13	0	2.9915	-1.45958e-05
2	0	0	1	0	0	53.3797	0.416186	0.415602	-0.0307327	3	0.000210266	13	0	3.3411	-1.27726e-05
2	0	0	1	0	0	53.7293	0.41269	0.41218	-0.0227248	3	0.00020135	13	0	3.6907	-9.36669e-06
2	0	0	1	0	0	54.0788	0.409195	0.408688	-0.0165971	3	0.000192278	13	0	4.0402	-6.78303e-06
2	0	0	1	0	0	54.4284	0.405698	0.40525	-0.0182695	3	0.000183052	13	0	4.3898	-7.40373e-06
2	0	0	1	0	0	54.778	0.402202	0.401725	-0.0257733	3	0.000173647	13	0	4.7394	-1.03538e-05
2	0	0	1	0	0	55.1276	0.398705	0.39819	-0.0362939	3	0.000164022	13	0	5.089	-1.44519e-05
2	0	0	1	0	0	55.4771	0.39521	0.39473	-0.0386502	3	0.00015426	13	0	5.4385	-1.52564e-05
2	0	0	1	0	0	55.8267	0.391715	0.391192	-0.0359868	3	0.000144249	13	0	5.7881	-1.40778e-05
2	0	0	1	0	0	56.1763	0.388219	0.387649	-0.02863	3	0.00013407	13	0	6.1377	-1.10984e-05
2	0	0	1	0	0	56.5259	0.384723	0.384203	-0.021515	3	0.000123651	13	0	6.4873	-8.26613e-06
2	0	0	1	0	0	56.8755	0.381227	0.380736	-0.0197782	3	0.000113026	13	0	6.8369	-7.53026e-06
2	0	0	1	0	0	57.2251	0.377731	0.377242	-0.0240718	3	0.000102184	13	0	7.1865	-9.08089e-06
2	0	0	1	0	0	57.5747	0.374235	0.373779	-0.0314341	3	9.10982e-05	13	0	7.5361	-1.17494e-05
2	0	0	1	0	0	57.9243	0.370739	0.37028	-0.0407783	3	7.9819e-05	13	0	7.8857	-1.50994e-05
2	0	0	1	0	0	58.2739	0.367244	0.366765	-0.0443442	3	6.82804e-05	13	0	8.2353	-1.62639e-05
2	0	0	1	0	0	58.6235	0.363748	0.363212	-0.0436508	3	5.65038e-05	13	0	8.5849	-1.58545e-05
2	0	0	1	0	0	58.973	0.360253	0.359713	-0.0394453	3	4.44273e-05	13	0	8.9344	-1.4189e-05
2	0	0	1	0	0	59.3226	0.356756	0.356239	-0.0327218	3	3.21136e-05	13	0	9.284	-1.16568e-05
2	0	0	1	0	0	59.6722	0.35326	0.352798	-0.0275033	3	1.95549e-05	13	0	9.6336	-9.70312e-06
2	0	0	0	0	0	59.9958	0.349989	0.349516	-0.037895	3	7.40504e-06	13	0	9.9572	-1.32449e-05
2	1	0	1	0	1	60.338	0.35341	0.352905	0.0295993	4	1.65081e-05	13	0	0.3097	1.04457e-05
2	1	0	1	0	1	60.6876	0.356907	0.356396	0.0384813	4	2.73593e-05	13	0	0.6593	1.37146e-05
2	1	0	1	0	1	61.0371	0.360402	0.359935	0.0435971	4	3.84208e-05	13	0	1.0088	1.56921e-05
2	1	0	1	0	1	61.3867	0.363897	0.363445	0.0399947	4	4.95274e-05	13	0	1.3584	1.45359e-05
2	1	0	1	0	1	61.7363	0.367393	0.36698	0.0315909	4	6.05875e-05	13	0	1.708	1.15932e-05
2	1	0	1	0	1	62.0859	0.370889	0.370436	0.0236248	4	7.15871e-05	13	0	2.0576	8.75147e-06
2	1	0	1	0	1	62.4355	0.374385	0.373918	0.0200156	4	8.2461e-05	13	0	2.4072	7.48421e-06
2	1	0	1	0	1	62.7851	0.377881	0.377375	0.0209354	4	9.32281e-05	13	0	2.7568	7.9005e-06
2	1	0	1	0	1	63.1347	0.381377	0.380922	0.0272934	4	0.000103827	13	0	3.1064	1.03966e-05
2	1	0	1	0	1	63.4843	0.384873	0.384409	0.0331614	4	0.000114279	13	0	3.456	1.27476e-05
2	1	0	1	0	1	63.8339	0.388369	0.38788	0.0385682	4	0.000124575	13	0	3.8056	1.49598e-05
2	1	0	1	0	1	64.1835	0.391864	0.391373	0.0393694	4	0.000134748	13	0	4.1552	1.54081e-05
2	1	0	1	0	1	64.533	0.39536	0.394902	0.0359753	4	0.000144762	13	0	4.5047	1.42067e-05
2	1	0	1	0	1	64.8826	0.398856	0.398454	0.0302108	4	0.000154666	13	0	4.8543	1.20376e-05
2	1	0	1	0	1	65.2322	0.402353	0.401916	0.0228648	4	0.000164422	13	0	5.2039	9.18974e-06
2	1	0	1	0	1	65.5817	0.405848	0.405384	0.018195	4	0.000174067	13	0	5.5534	7.37596e-06
2	1	0	1	0	1	65.9313	0.409344	0.408846	0.017003	4	0.000183494	13	0	5.903	6.95161e-06
2	1	0	1	0	1	66.2809	0.41284	0.412325	0.0188303	4	0.000192899	13	0	6.2526	7.76419e-06
2	1	0	1	0	1	66.6305	0.416335	0.415825	0.0235067	4	0.00020217	13	0	6.6022	9.77466e-06
2	1	0	1	0	1	66.9801	0.419831	0.419308	0.0294345	4	0.000211323	13	0	6.9518	1.23421e-05
2	1	0	1	0	1	67.3297	0.423327	0.422807	0.0327639	4	0.000220347	13	0	7.3014	1.38528e-05
2	1	0	1	0	1	67.6793	0.426823	0.426341	0.0357211	4	0.000229276	13	0	7.651	1.52294e-05
2	1	0	1	0	1	68.0289	0.430319	0.42984	0.034026	4	0.000238074	13	0	8.0006	1.46257e-05
2	1	0	1	0	1	68.3785	0.433815	0.433324	0.0322726	4	0.000246806	13	0	8.3502	1.39845e-05
2	1	0	1	0	1	68.7281	0.43731	0.436824	0.0283051	4	0.00025542	13	0	8.6998	1.23643e-05
2	1	0	1	0	1	69.0777	0.440806	0.440333	0.0228706	4	0.000263988	13	0	9.0494	1.00707e-05
2	1	0	1	0	1	69.4272	0.444302	0.443817	0.0174362	4	0.000272427	13	0	9.3989	7.73847e-06
2	1	0	1	0	1	69.7768	0.447798	0.44729	0.0152648	4	0.000280833	13	0	9.7485	6.82778e-06
2	0	0	1	0	1	70.1021	0.448947	0.448458	-0.0186843	4	0.000284303	12	0	0.0649	-8.37912e-06
2	0	0	1	0	1	70.4817	0.445151	0.444612	-0.0250647	4	0.000277299	13	0	0.4445	-1.11441e-05
2	0	0	1	0	1	70.8313	0.441655	0.441072	-0.0208583	4	0.000270019	13	0	0.7941	-9.20002e-06
2	0	0	1	0	1	71.1809	0.438159	0.437596	-0.0159552	4	0.000262461	13	0	1.1437	-6.98194e-06
2	0	0	1	0	1	71.5305	0.434664	0.434115	-0.0136337	4	0.000254662	13	0	1.4933	-5.91858e-06
2	0	0	1	0	1	71.88	0.431169	0.430662	-0.0134331	4	0.000246696	13	0	1.8428	-5.78512e-06
2	0	0	1	0	1	72.2296	0.427672	0.427161	-0.0176407	4	0.000238513	13	0	2.1924	-7.53542e-06
2	0	0	1	0	1	72.5792	0.424176	0.423678	-0.0238984	4	0.000230181	13	0	2.542	-1.01252e-05
2	0	0	1	0	1	72.9288	0.420679	0.420116	-0.0304846	4	0.000221666	13	0	2.8916	-1.28071e-05
2	0	0	1	0	1	73.2783	0.417184	0.416669	-0.0348397	4	0.00021301	13	0	3.2411	-1.45166e-05
2	0	0	1	0	1	73.6279	0.413688	0.413159	-0.0346887	4	0.000204162	13	0	3.5907	-1.43319e-05
2	0	0	1	0	1	73.9775	0.410193	0.409614	-0.0286857	4	0.000195175	13	0	3.9403	-1.17501e-05
2	0	0	1	0	1	74.3271	0.406697	0.40618	-0.0230175	4	0.000186022	13	0	4.2899	-9.34925e-06
2	0	0	1	0	1	74.6767	0.403201	0.402684	-0.0176073	4	0.000176676	13	0	4.6395	-7.0902e-06
2	0	0	1	0	1	75.0263	0.399705	0.399186	-0.0174567	4	0.000167085	13	0	4.9891	-6.96847e-06
2	0	0	1	0	1	75.3759	0.396209	0.395735	-0.0215863	4	0.000157357	13	0	5.3387	-8.54244e-06
2	0	0	1	0	1	75.7255	0.392713	0.392201	-0.0290847	4	0.000147396	13	0	5.6883	-1.14071e-05
2	0	0	1	0	1	76.0751	0.389217	0.388735	-0.0367009	4	0.00013729	13	0	6.0379	-1.42669e-05
2	0	0	1	0	1	76.4247	0.385722	0.385226	-0.0410397	4	0.000126944	13	0	6.3875	-1.58095e-05
2	0	0	1	0	1	76.7742	0.382227	0.381685	-0.0391582	4	0.00011643	13	0	6.737	-1.49461e-05
2	0	0	1	0	1	77.1238	0.37873	0.3782	-0.034266	4	0.000105673	13	0	7.0866	-1.29594e-05
2	0	0	1	0	1	77.4734	0.375234	0.374692	-0.0268023	4	9.46812e-05	13	0	7.4362	-1.00426e-05
2	0	0	1	0	1	77.823	0.371738	0.371228	-0.0224815	4	8.34577e-05	13	0	7.7858	-8.34576e-06
2	0	0	1	0	1	78.1725	0.368242	0.367741	-0.022317	4	7.19786e-05	13	0	8.1353	-8.20686e-06
2	0	0	1	0	1	78.5221	0.364747	0.36426	-0.0263578	4	6.0264e-05	13	0	8.4849	-9.60109e-06
2	0	0	1	0	1	78.8717	0.361251	0.360736	-0.0329721	4	4.82753e-05	13	0	8.8345	-1.18942e-05
2	0	0	1	0	1	79.2213	0.357755	0.357213	-0.0406111	4	3.60732e-05	13	0	9.1841	-1.45068e-05
2	0	0	1	0	1	79.5709	0.354259	0.353783	-0.0457713	4	2.36211e-05	13	0	9.5337	-1.61931e-05
2	0	0	1	0	1	79.9205	0.350763	0.350318	-0.048745	4	1.08806e-05	13	0	9.8833	-1.70763e-05
2	1	0	1	0	0	80.2217	0.352261	0.351799	0.0327276	5	1.37335e-05	12	0	0.1948	1.15135e-05
2	1	0	1	0	0	80.5863	0.355907	0.355493	0.0235619	5	2.48866e-05	13	0	0.5594	8.37609e-06
2	1	0	1	0	0	80.9359	0.359403	0.358949	0.0204916	5	3.59428e-05	13	0	0.909	7.35543e-06
2	1	0	1	0	0	81.2855	0.362899	0.362421	0.0220666	5	4.70472e-05	13	0	1.2586	7.99741e-06
2	1	0	1	0	0	81.6351	0.366395	0.365957	0.0280726	5	5.81386e-05	13	0	1.6082	1.02734e-05
2	1	0	1	0	0	81.9847	0.36989	0.369426	0.0352885	5	6.91362e-05	13	0	1.9578	1.30365e-05
2	1	0	1	0	0	82.3342	0.373386	0.372885	0.0414656	5	8.00183e-05	13	0	2.3073	1.54619e-05
2	1	0	1	0	0	82.6838	0.376882	0.376443	0.0411344	5	9.07771e-05	13	0	2.6569	1.54847e-05
2	1	0	1	0	0	83.0334	0.380378	0.379948	0.0369321	5	0.000101401	13	0	3.0065	1.40323e-05
2	1	0	1	0	0	83.383	0.383875	0.383451	0.0290607	5	0.000111873	13	0	3.3561	1.11434e-05
2	1	0	1	0	0	83.7325	0.38737	0.386853	0.0218101	5	0.000122224	13	0	3.7056	8.43729e-06
2	1	0	1	0	0	84.0821	0.390866	0.39044	0.0184526	5	0.000132462	13	0	4.0552	7.20464e-06
2	1	0	1	0	0	84.4317	0.394361	0.393895	0.0193224	5	0.000142534	13	0	4.4048	7.61101e-06
2	1	0	1	0	0	84.7813	0.397857	0.397393	0.023188	5	0.000152488	13	0	4.7544	9.21475e-06
2	1	0	1	0	0	85.1309	0.401353	0.400884	0.0296075	5	0.000162277	13	0	5.104	1.18692e-05
2	1	0	1	0	0	85.4805	0.404849	0.404389	0.0340896	5	0.000171936	13	0	5.4536	1.37855e-05
2	1	0	1	0	0	85.8301	0.408345	0.407879	0.0372494	5	0.000181377	13	0	5.8032	1.51933e-05
2	1	0	1	0	0	86.1797	0.411841	0.411361	0.0367889	5	0.000190769	13	0	6.1528	1.51335e-05
2	1	0	1	0	0	86.5293	0.415337	0.414882	0.0333888	5	0.000200042	13	0	6.5024	1.38524e-05
2	1	0	1	0	0	86.8789	0.418832	0.418377	0.0295222	5	0.000209225	13	0	6.852	1.23514e-05
2	1	0	1	0	0	87.2284	0.422327	0.421849	0.023868	5	0.000218267	13	0	7.2015	1.00687e-05
2	1	0	1	0	0	87.578	0.425824	0.425358	0.01955	5	0.000227235	13	0	7.5511	8.31574e-06
2	1	0	1	0	0	87.9276	0.42932	0.428822	0.0161773	5	0.000236075	13	0	7.9007	6.93719e-06
2	1	0	1	0	0	88.2772	0.432817	0.432325	0.0151981	5	0.000244838	13	0	8.2503	6.57051e-06
2	1	0	1	0	0	88.6267	0.436312	0.435814	0.0163011	5	0.000253461	13	0	8.5998	7.10427e-06
2	1	0	1	0	0	88.9763	0.439808	0.439308	0.0199047	5	0.000262032	13	0	8.9494	8.7443e-06
2	1	0	1	0	0	89.3259	0.443303	0.442809	0.0234021	5	0.000270494	13	0	9.299	1.03627e-05
2	1	0	1	0	0	89.6755	0.446799	0.446311	0.0290871	5	0.000278914	13	0	9.6486	1.29819e-05
2	1	0	1	0	0	89.9934	0.450021	0.449498	0.0138064	5	0.000286344	13	0	9.9665	6.20595e-06
2	0	0	1	0	0	90.3205	0.446749	0.446291	-0.0280469	5	0.000280935	13	0	0.2498	-1.25171e-05
2	0	0	1	0	0	90.6701	0.443253	0.442768	-0.0304156	5	0.000273824	13	0	0.5994	-1.3467e-05
2	0	0	1	0	0	91.0197	0.439758	0.43922	-0.0273209	5	0.000266425	13	0	0.949	-1.19999e-05
2	0	0	1	0	0	91.3692	0.436263	0.435698	-0.0212379	5	0.000258738	13	0	1.2985	-9.25332e-06
2	0	0	1	0	0	91.7188	0.432766	0.432234	-0.0163469	5	0.000250872	13	0	1.6481	-7.06566e-06
2	0	0	1	0	0	92.0684	0.42927	0.428748	-0.0142571	5	0.000242782	13	0	1.9977	-6.1127e-06
2	0	0	1	0	0	92.418	0.425773	0.425265	-0.0143608	5	0.000234532	13	0	2.3473	-6.10713e-06
2	0	0	1	0	0	92.7675	0.422278	0.421749	-0.0176308	5	0.00022609	13	0	2.6968	-7.43577e-06
2	0	0	1	0	0	93.1171	0.418782	0.418313	-0.0225593	5	0.000217496	13	0	3.0464	-9.43685e-06
2	0	0	1	0	0	93.4667	0.415287	0.414805	-0.0286969	5	0.00020873	13	0	3.396	-1.19036e-05
2	0	0	1	0	0	93.8163	0.411791	0.41123	-0.0337357	5	0.000199807	13	0	3.7456	-1.38732e-05
2	0	0	1	0	0	94.1659	0.408295	0.407749	-0.037122	5	0.000190707	13	0	4.0952	-1.51365e-05
2	0	0	1	0	0	94.5155	0.404799	0.404286	-0.0349378	5	0.000181515	13	0	4.4448	-1.41249e-05
2	0	0	1	0	0	94.8651	0.401303	0.400802	-0.0317796	5	0.000172065	13	0	4.7944	-1.27373e-05
2	0	0	1	0	0	95.2147	0.397807	0.397247	-0.0271757	5	0.000162426	13	0	5.144	-1.07955e-05
2	0	0	1	0	0	95.5643	0.394311	0.393754	-0.0236817	5	0.000152568	13	0	5.4936	-9.32474e-06
2	0	0	1	0	0	95.9139	0.390816	0.390296	-0.0206907	5	0.000142536	13	0	5.8432	-8.07547e-06
2	0	0	1	0	0	96.2634	0.387321	0.38682	-0.0195443	5	0.000132296	13	0	6.1927	-7.56012e-06
2	0	0	1	0	0	96.613	0.383824	0.383334	-0.0188954	5	0.000121852	13	0	6.5423	-7.24325e-06
2	0	0	1	0	0	96.9626	0.380328	0.379855	-0.0211439	5	0.000111215	13	0	6.8919	-8.03161e-06
2	0	0	1	0	0	97.3122	0.376832	0.376354	-0.0221344	5	0.00010034	13	0	7.2415	-8.33037e-06
2	0	0	1	0	0	97.6617	0.373336	0.372819	-0.0235234	5	8.92271e-05	13	0	7.591	-8.76999e-06
2	0	0	1	0	0	98.0113	0.369841	0.369369	-0.0250412	5	7.78818e-05	13	0	7.9406	-9.24945e-06
2	0	0	1	0	0	98.3609	0.366345	0.365884	-0.0254884	5	6.6283e-05	13	0	8.2902	-9.32581e-06
2	0	0	1	0	0	98.7105	0.362849	0.362359	-0.0272256	5	5.4453e-05	13	0	8.6398	-9.86543e-06
2	0	0	1	0	0	99.0601	0.359353	0.358875	-0.0277998	5	4.23796e-05	13	0	8.9894	-9.97666e-06
2	0	0	1	0	0	99.4097	0.355857	0.355407	-0.029305	5	3.0059e-05	13	0	9.339	-1.04152e-05
2	0	0	1	0	0	99.7593	0.352361	0.351901	-0.0314996	5	1.74713e-05	13	0	9.6886	-1.10848e-05
2	0	0	1	0	1	99.998	0.350039	0.349459	-0.0146877	6	8.64217e-06	13	0	9.9273	-5.13275e-06
2	1	0	1	0	1	100.325	0.35331	0.352865	0.0259656	6	1.7263e-05	13	0	0.2997	9.16234e-06
2	1	0	1	0	1	100.675	0.356806	0.356381	0.0286647	6	2.8114e-05	13	0	0.6493	1.02156e-05
2	1	0	1	0	1	101.024	0.360302	0.359829	0.030576	6	3.9179e-05	13	0	0.9988	1.10021e-05
2	1	0	1	0	1	101.374	0.363798	0.363324	0.0331204	6	5.02862e-05	13	0	1.3484	1.20334e-05
2	1	0	1	0	1	101.723	0.367293	0.366818	0.0335218	6	6.13528e-05	13	0	1.698	1.22964e-05
2	1	0	1	0	1	102.073	0.370789	0.370349	0.0349258	6	7.23271e-05	13	0	2.0476	1.29347e-05
2	1	0	1	0	1	102.423	0.374285	0.373837	0.0362179	6	8.31744e-05	13	0	2.3972	1.35396e-05
2	1	0	1	0	1	102.772	0.377781	0.3773	0.0374781	6	9.38979e-05	13	0	2.7468	1.41405e-05
2	1	0	1	0	1	103.122	0.381277	0.380814	0.0395577	6	0.000104491	13	0	3.0964	1.50641e-05
2	1	0	1	0	1	103.471	0.384773	0.384284	0.0399142	6	0.000114923	13	0	3.446	1.53384e-05
2	1	0	1	0	1	103.821	0.388269	0.387827	0.0400237	6	0.000125243	13	0	3.7956	1.55223e-05
2	1	0	1	0	1	104.171	0.391764	0.391279	0.0389508	6	0.0001354	13	0	4.1452	1.52406e-05
2	1	0	1	0	1	104.52	0.395259	0.394823	0.0375836	6	0.000145439	13	0	4.4947	1.48389e-05
2	1	0	1	0	1	104.87	0.398756	0.39829	0.0364015	6	0.000155317	13	0	4.8443	1.44984e-05
2	1	0	1	0	1	105.219	0.402252	0.40181	0.0365782	6	0.000165092	13	0	5.1939	1.46975e-05
2	1	0	1	0	1	105.569	0.405749	0.40529	0.0357278	6	0.00017469	13	0	5.5435	1.44801e-05
2	1	0	1	0	1	105.918	0.409244	0.408784	0.0366324	6	0.000184129	13	0	5.893	1.49747e-05
2	1	0	1	0	1	106.268	0.41274	0.412237	0.0359405	6	0.000193475	13	0	6.2426	1.4816e-05
2	1	0	1	0	1	106.618	0.416236	0.415757	0.0361558	6	0.000202746	13	0	6.5922	1.5032e-05
2	1	0	1	0	1	106.967	0.419731	0.419209	0.0360135	6	0.000211869	13	0	6.9418	1.50972e-05
2	1	0	1	0	1	107.317	0.423227	0.422721	0.035598	6	0.000220917	13	0	7.2914	1.5048e-05
2	1	0	1	0	1	107.666	0.426723	0.426249	0.0349956	6	0.000229837	13	0	7.641	1.49169e-05
2	1	0	1	0	1	108.016	0.430219	0.429776	0.0349129	6	0.000238661	13	0	7.9906	1.50047e-05
2	1	0	1	0	1	108.366	0.433715	0.433217	0.0339837	6	0.000247375	13	0	8.3402	1.47223e-05
2	1	0	1	0	1	108.715	0.437211	0.436699	0.0341672	6	0.000255994	13	0	8.6898	1.49208e-05
2	1	0	1	0	1	109.065	0.440706	0.440213	0.033056	6	0.000264545	13	0	9.0394	1.45517e-05
2	1	0	1	0	1	109.414	0.444202	0.443709	0.0326536	6	0.000272999	13	0	9.389	1.44887e-05
2	1	0	1	0	1	109.764	0.447698	0.447235	0.0322228	6	0.000281404	13	0	9.7385	1.44112e-05
2	1	0	1	0	1	110.034	0.449596	0.449042	-0.0101805	6	0.000286382	13	0	0.000000000000000E+000	-4.57146e-06
2	0	0	1	0	1	110.429	0.445651	0.445125	-0.0299448	6	0.000279136	13	0	0.3945	-1.33292e-05
2	0	0	1	0	1	110.778	0.442155	0.441659	-0.0300747	6	0.000271914	13	0	0.7441	-1.32828e-05
2	0	0	1	0	1	111.128	0.438659	0.43813	-0.0317389	6	0.000264368	13	0	1.0937	-1.39057e-05
2	0	0	1	0	1	111.478	0.435163	0.434638	-0.0311115	6	0.000256628	13	0	1.4433	-1.35222e-05
2	0	0	1	0	1	111.827	0.431667	0.431144	-0.0317119	6	0.000248677	13	0	1.7929	-1.36724e-05
2	0	0	1	0	1	112.177	0.428171	0.427672	-0.0310335	6	0.00024056	13	0	2.1425	-1.32722e-05
2	0	0	1	0	1	112.526	0.424675	0.424157	-0.0309838	6	0.000232241	13	0	2.4921	-1.3142e-05
2	0	0	1	0	1	112.876	0.42118	0.420684	-0.0315454	6	0.000223775	13	0	2.8417	-1.32707e-05
2	0	0	1	0	1	113.226	0.417685	0.417178	-0.0321209	6	0.000215128	13	0	3.1912	-1.34001e-05
2	0	0	1	0	1	113.575	0.414188	0.413686	-0.0319596	6	0.000206318	13	0	3.5408	-1.32212e-05
2	0	0	1	0	1	113.925	0.410692	0.410211	-0.0330059	6	0.000197336	13	0	3.8904	-1.35394e-05
2	0	0	1	0	1	114.274	0.407196	0.406725	-0.0330225	6	0.00018824	13	0	4.24	-1.34311e-05
2	0	0	1	0	1	114.624	0.4037	0.403226	-0.0344449	6	0.000178935	13	0	4.5895	-1.38891e-05
2	0	0	1	0	1	114.973	0.400204	0.399691	-0.035248	6	0.000169398	13	0	4.9391	-1.40883e-05
2	0	0	1	0	1	115.323	0.396709	0.39621	-0.0354715	6	0.000159719	13	0	5.2887	-1.40542e-05
2	0	0	1	0	1	115.673	0.393213	0.392734	-0.0362066	6	0.000149804	13	0	5.6383	-1.42196e-05
2	0	0	1	0	1	116.022	0.389717	0.389238	-0.0363947	6	0.000139734	13	0	5.9879	-1.41662e-05
2	0	0	1	0	1	116.372	0.386221	0.385729	-0.0365432	6	0.000129423	13	0	6.3375	-1.40958e-05
2	0	0	1	0	1	116.721	0.382725	0.382247	-0.0372398	6	0.000118951	13	0	6.6871	-1.42348e-05
2	0	0	1	0	1	117.071	0.379229	0.37876	-0.0372639	6	0.000108227	13	0	7.0367	-1.41141e-05
2	0	0	1	0	1	117.421	0.375733	0.375285	-0.0372838	6	9.731e-05	13	0	7.3863	-1.39921e-05
2	0	0	1	0	1	117.77	0.372238	0.371739	-0.0378042	6	8.61255e-05	13	0	7.7359	-1.40533e-05
2	0	0	1	0	1	118.12	0.368743	0.368232	-0.0376071	6	7.47348e-05	13	0	8.0854	-1.38481e-05
2	0	0	1	0	1	118.469	0.365246	0.364753	-0.0386699	6	6.30757e-05	13	0	8.435	-1.4105e-05
2	0	0	1	0	1	118.819	0.36175	0.361252	-0.0386632	6	5.11795e-05	13	0	8.7846	-1.39672e-05
2	0	0	1	0	1	119.169	0.358254	0.357787	-0.0391619	6	3.90175e-05	13	0	9.1342	-1.40116e-05
2	0	0	1	0	1	119.518	0.354758	0.354306	-0.0406953	6	2.66438e-05	13	0	9.4837	-1.44186e-05
2	0	0	1	0	1	119.868	0.351263	0.350823	-0.0425227	6	1.39491e-05	13	0	9.8333	-1.49179e-05
2	1	0	1	0	0	120.169	0.351762	0.351348	0.0285255	7	1.35389e-05	12	0	0.1299	1.00224e-05
2	1	0	1	0	0	120.533	0.355408	0.354958	0.0425721	7	2.43791e-05	13	0	0.4944	1.51113e-05
2	1	0	1	0	0	120.883	0.358903	0.358476	0.0431284	7	3.53847e-05	13	0	0.844	1.54605e-05
2	1	0	1	0	0	121.233	0.362399	0.361932	0.0429828	7	4.64625e-05	13	0	1.1936	1.55568e-05
2	1	0	1	0	0	121.582	0.365895	0.365471	0.0418549	7	5.75545e-05	13	0	1.5432	1.52968e-05
2	1	0	1	0	0	121.932	0.369391	0.368948	0.0411102	7	6.85273e-05	13	0	1.8928	1.51675e-05
2	1	0	1	0	0	122.281	0.372887	0.372497	0.0387099	7	7.94264e-05	13	0	2.2424	1.44193e-05
2	1	0	1	0	0	122.631	0.376383	0.375943	0.037052	7	9.01953e-05	13	0	2.592	1.39294e-05
2	1	0	1	0	0	122.981	0.379879	0.379444	0.0354339	7	0.000100848	13	0	2.9416	1.34452e-05
2	1	0	1	0	0	123.33	0.383374	0.382932	0.0328553	7	0.000111333	13	0	3.2912	1.25814e-05
2	1	0	1	0	0	123.68	0.386869	0.386425	0.0319726	7	0.000121701	13	0	3.6407	1.2355e-05
2	1	0	1	0	0	124.029	0.390366	0.389956	0.0292471	7	0.000131911	13	0	3.9903	1.14051e-05
2	1	0	1	0	0	124.379	0.393862	0.393421	0.0274838	7	0.000141988	13	0	4.3399	1.08127e-05
2	1	0	1	0	0	124.729	0.397359	0.396917	0.0256662	7	0.000151906	13	0	4.6895	1.01873e-05
2	1	0	1	0	0	125.078	0.400854	0.400415	0.0243274	7	0.000161702	13	0	5.039	9.74104e-06
2	1	0	1	0	0	125.428	0.40435	0.403903	0.0229447	7	0.000171379	13	0	5.3886	9.26742e-06
2	1	0	1	0	0	125.777	0.407845	0.407382	0.0212127	7	0.000180914	13	0	5.7382	8.64167e-06
2	1	0	1	0	0	126.127	0.411341	0.410857	0.0203463	7	0.000190282	13	0	6.0878	8.35943e-06
2	1	0	1	0	0	126.476	0.414837	0.41438	0.0195982	7	0.000199595	13	0	6.4374	8.12111e-06
2	1	0	1	0	0	126.826	0.418333	0.417836	0.0172433	7	0.000208767	13	0	6.787	7.20489e-06
2	1	0	1	0	0	127.176	0.421829	0.421351	0.0162619	7	0.000217859	13	0	7.1366	6.85198e-06
2	1	0	1	0	0	127.525	0.425325	0.424853	0.0157026	7	0.000226806	13	0	7.4862	6.6713e-06
2	1	0	1	0	0	127.875	0.428821	0.428349	0.0156267	7	0.000235679	13	0	7.8358	6.69368e-06
2	1	0	1	0	0	128.224	0.432316	0.431823	0.0162544	7	0.000244433	13	0	8.1854	7.01903e-06
2	1	0	1	0	0	128.574	0.435811	0.435307	0.0176285	7	0.000253078	13	0	8.5349	7.67381e-06
2	1	0	1	0	0	128.924	0.439308	0.438788	0.0181144	7	0.000261648	13	0	8.8845	7.94838e-06
2	1	0	1	0	0	129.273	0.442804	0.442259	0.0200672	7	0.000270135	13	0	9.2341	8.87492e-06
2	1	0	1	0	0	129.623	0.446301	0.445847	0.021328	7	0.000278547	13	0	9.5837	9.50904e-06
2	1	0	1	0	0	129.97	0.449771	0.449281	0.0206354	7	0.000286746	13	0	9.9307	9.2711e-06
2	0	0	1	0	0	130.328	0.446649	0.44612	-0.0163051	7	0.000281772	13	0	0.2947	-7.27402e-06
2	0	0	1	0	0	130.677	0.443154	0.442611	-0.0155259	7	0.000274651	13	0	0.6443	-6.87194e-06
2	0	0	1	0	0	131.027	0.439658	0.439129	-0.0157964	7	0.000267192	13	0	0.9939	-6.93666e-06
2	0	0	1	0	0	131.376	0.436162	0.435596	-0.0152409	7	0.000259515	13	0	1.3434	-6.63888e-06
2	0	0	1	0	0	131.726	0.432666	0.432119	-0.0154398	7	0.000251625	13	0	1.693	-6.67181e-06
2	0	0	1	0	0	132.076	0.429169	0.428646	-0.0158942	7	0.000243562	13	0	2.0426	-6.81297e-06
2	0	0	1	0	0	132.425	0.425674	0.425137	-0.0167109	7	0.000235302	13	0	2.3921	-7.10443e-06
2	0	0	1	0	0	132.775	0.422178	0.421636	-0.0168859	7	0.000226892	13	0	2.7417	-7.1197e-06
2	0	0	1	0	0	133.124	0.418683	0.418145	-0.0191257	7	0.000218294	13	0	3.0913	-7.99733e-06
2	0	0	1	0	0	133.474	0.415187	0.414658	-0.0197953	7	0.000209545	13	0	3.4409	-8.20827e-06
2	0	0	1	0	0	133.823	0.411691	0.411146	-0.0214275	7	0.000200619	13	0	3.7905	-8.80983e-06
2	0	0	1	0	0	134.173	0.408195	0.407654	-0.0229163	7	0.00019153	13	0	4.1401	-9.34191e-06
2	0	0	1	0	0	134.523	0.404699	0.404191	-0.0236823	7	0.000182337	13	0	4.4897	-9.57217e-06
2	0	0	1	0	0	134.872	0.401203	0.400713	-0.0247422	7	0.000172893	13	0	4.8393	-9.91451e-06
2	0	0	1	0	0	135.222	0.397707	0.397193	-0.0250291	7	0.000163271	13	0	5.1889	-9.9414e-06
2	0	0	1	0	0	135.571	0.394212	0.393686	-0.0253056	7	0.000153427	13	0	5.5385	-9.96247e-06
2	0	0	1	0	0	135.921	0.390716	0.390186	-0.0260317	7	0.000143423	13	0	5.8881	-1.01572e-05
2	0	0	1	0	0	136.271	0.38722	0.386707	-0.025751	7	0.000133178	13	0	6.2376	-9.95809e-06
2	0	0	1	0	0	136.62	0.383724	0.383226	-0.0253514	7	0.00012277	13	0	6.5872	-9.71532e-06
2	0	0	1	0	0	136.97	0.380228	0.379716	-0.025697	7	0.000112124	13	0	6.9368	-9.75756e-06
2	0	0	1	0	0	137.319	0.376732	0.376211	-0.0252434	7	0.000101293	13	0	7.2863	-9.49683e-06
2	0	0	1	0	0	137.669	0.373237	0.372704	-0.0258111	7	9.01711e-05	13	0	7.6359	-9.6199e-06
2	0	0	1	0	0	138.018	0.369741	0.369205	-0.0251729	7	7.88583e-05	13	0	7.9855	-9.29396e-06
2	0	0	1	0	0	138.368	0.366245	0.365745	-0.0249198	7	6.72463e-05	13	0	8.3351	-9.11428e-06
2	0	0	1	0	0	138.718	0.362749	0.362232	-0.0251314	7	5.5445e-05	13	0	8.6847	-9.1034e-06
2	0	0	1	0	0	139.067	0.359253	0.358742	-0.0254842	7	4.33676e-05	13	0	9.0343	-9.14223e-06
2	0	0	1	0	0	139.417	0.355757	0.355325	-0.0259935	7	3.10868e-05	13	0	9.3839	-9.23614e-06
2	0	0	1	0	0	139.766	0.352261	0.351778	-0.0274852	7	1.84946e-05	13	0	9.7335	-9.66871e-06
2	0	0	1	0	1	140.038	0.350463	0.349977	0.0194872	8	1.08639e-05	13	0	0.000000000000000E+000	6.82005e-06
2	1	0	1	0	1	140.432	0.354409	0.353954	0.0203499	8	2.21016e-05	13	0	0.3946	7.20293e-06
2	1	0	1	0	1	140.782	0.357905	0.357427	0.021339	8	3.30521e-05	13	0	0.7442	7.62713e-06
2	1	0	1	0	1	141.131	0.3614	0.360909	0.0237175	8	4.41265e-05	13	0	1.0938	8.55986e-06
2	1	0	1	0	1	141.481	0.364895	0.364436	0.0238339	8	5.52178e-05	13	0	1.4433	8.6859e-06
2	1	0	1	0	1	141.831	0.368392	0.367928	0.0247853	8	6.62209e-05	13	0	1.7929	9.11921e-06
2	1	0	1	0	1	142.18	0.371888	0.371418	0.0252412	8	7.71517e-05	13	0	2.1425	9.37503e-06
2	1	0	1	0	1	142.53	0.375385	0.374923	0.0256702	8	8.79419e-05	13	0	2.4921	9.62435e-06
2	1	0	1	0	1	142.879	0.37888	0.378397	0.0262683	8	9.86295e-05	13	0	2.8416	9.93985e-06
2	1	0	1	0	1	143.229	0.382376	0.381902	0.0263143	8	0.000109135	13	0	3.1912	1.00495e-05
2	1	0	1	0	1	143.578	0.385871	0.385396	0.0259801	8	0.000119531	13	0	3.5408	1.00126e-05
2	1	0	1	0	1	143.928	0.389367	0.388859	0.0258129	8	0.000129776	13	0	3.8904	1.00376e-05
2	1	0	1	0	1	144.278	0.392863	0.392431	0.0243864	8	0.000139883	13	0	4.24	9.57e-06
2	1	0	1	0	1	144.627	0.396359	0.395868	0.0243165	8	0.000149845	13	0	4.5896	9.62614e-06
2	1	0	1	0	1	144.977	0.399855	0.399347	0.0249562	8	0.000159674	13	0	4.9392	9.96618e-06
2	1	0	1	0	1	145.326	0.403351	0.402858	0.025424	8	0.000169365	13	0	5.2888	1.02422e-05
2	1	0	1	0	1	145.676	0.406847	0.406369	0.0271905	8	0.000178938	13	0	5.6384	1.10494e-05
2	1	0	1	0	1	146.026	0.410342	0.409858	0.027886	8	0.000188337	13	0	5.988	1.14293e-05
2	1	0	1	0	1	146.375	0.413838	0.413288	0.0297403	8	0.000197689	13	0	6.3376	1.22913e-05
2	1	0	1	0	1	146.725	0.417334	0.416846	0.0347308	8	0.000206867	13	0	6.6871	1.44774e-05
2	1	0	1	0	1	147.074	0.42083	0.420344	0.0354693	8	0.00021595	13	0	7.0367	1.49093e-05
2	1	0	1	0	1	147.424	0.424327	0.423858	0.0297908	8	0.000224902	13	0	7.3863	1.2627e-05
2	1	0	1	0	1	147.773	0.427822	0.427415	0.0222523	8	0.000233802	13	0	7.7358	9.51096e-06
2	1	0	1	0	1	148.123	0.431318	0.430839	0.0151137	8	0.000242578	13	0	8.0854	6.51158e-06
2	1	0	1	0	1	148.473	0.434813	0.434311	0.0167224	8	0.000251282	13	0	8.435	7.26275e-06
2	1	0	1	0	1	148.822	0.438309	0.437832	0.0227623	8	0.000259869	13	0	8.7846	9.96607e-06
2	1	0	1	0	1	149.172	0.441805	0.441302	0.0309379	8	0.000268385	13	0	9.1342	1.3653e-05
2	1	0	1	0	1	149.521	0.445301	0.444845	0.0335963	8	0.000276764	13	0	9.4838	1.49451e-05
2	1	0	1	0	1	149.871	0.448797	0.448311	0.0296085	8	0.000285116	13	0	9.8334	1.32738e-05
2	0	0	1	0	1	150.166	0.448247	0.447737	-0.0250206	8	0.000285314	13	0	0.1499	-1.12027e-05
2	0	0	1	0	1	150.516	0.444752	0.444216	-0.0191141	8	0.000278429	13	0	0.4995	-8.49081e-06
2	0	0	1	0	1	150.866	0.441256	0.440733	-0.0135327	8	0.0002711	13	0	0.849	-5.96429e-06
2	0	0	1	0	1	151.215	0.43776	0.437235	-0.0127348	8	0.000263515	13	0	1.1986	-5.56807e-06
2	0	0	1	0	1	151.565	0.434264	0.433715	-0.0172586	8	0.000255692	13	0	1.5482	-7.48533e-06
2	0	0	1	0	1	151.914	0.430767	0.430248	-0.0255028	8	0.000247731	13	0	1.8978	-1.09725e-05
2	0	0	1	0	1	152.264	0.427272	0.426774	-0.0325212	8	0.000239564	13	0	2.2473	-1.38792e-05
2	0	0	1	0	1	152.613	0.423777	0.423236	-0.0334563	8	0.000231253	13	0	2.5969	-1.41599e-05
2	0	0	1	0	1	152.963	0.420281	0.419726	-0.0300524	8	0.000222742	13	0	2.9465	-1.26138e-05
2	0	0	1	0	1	153.313	0.416785	0.41626	-0.0219709	8	0.000214087	13	0	3.2961	-9.14562e-06
2	0	0	1	0	1	153.662	0.413289	0.41276	-0.0175351	8	0.000205209	13	0	3.6457	-7.23779e-06
2	0	0	1	0	1	154.012	0.409793	0.409296	-0.0158148	8	0.000196209	13	0	3.9953	-6.47295e-06
2	0	0	1	0	1	154.361	0.406297	0.405794	-0.018182	8	0.000187063	13	0	4.3449	-7.37816e-06
2	0	0	1	0	1	154.711	0.402801	0.402281	-0.0201664	8	0.000177722	13	0	4.6945	-8.11257e-06
2	0	0	1	0	1	155.061	0.399306	0.398815	-0.0217812	8	0.000168163	13	0	5.0441	-8.68666e-06
2	0	0	1	0	1	155.41	0.39581	0.395366	-0.0219599	8	0.000158446	13	0	5.3937	-8.68218e-06
2	0	0	1	0	1	155.76	0.392315	0.391821	-0.0237771	8	0.000148507	13	0	5.7432	-9.31636e-06
2	0	0	1	0	1	156.109	0.388818	0.388347	-0.0236265	8	0.000138396	13	0	6.0928	-9.17528e-06
2	0	0	1	0	1	156.459	0.385322	0.384803	-0.0242108	8	0.000128063	13	0	6.4424	-9.3164e-06
2	0	0	1	0	1	156.809	0.381825	0.381348	-0.0239876	8	0.000117553	13	0	6.792	-9.14762e-06
2	0	0	1	0	1	157.158	0.37833	0.377826	-0.0248631	8	0.000106826	13	0	7.1415	-9.39391e-06
2	0	0	1	0	1	157.508	0.374835	0.374303	-0.0254669	8	9.58371e-05	13	0	7.4911	-9.53235e-06
2	0	0	1	0	1	157.857	0.371339	0.370862	-0.0260262	8	8.46414e-05	13	0	7.8407	-9.65211e-06
2	0	0	1	0	1	158.207	0.367843	0.36738	-0.0255822	8	7.31728e-05	13	0	8.1903	-9.3984e-06
2	0	0	1	0	1	158.556	0.364347	0.363884	-0.0265772	8	6.15046e-05	13	0	8.5399	-9.67102e-06
2	0	0	1	0	1	158.906	0.360851	0.360387	-0.0268934	8	4.95347e-05	13	0	8.8895	-9.69206e-06
2	0	0	1	0	1	159.256	0.357355	0.356915	-0.0313268	8	3.73524e-05	13	0	9.2391	-1.1181e-05
2	0	0	1	0	1	159.605	0.353859	0.353406	-0.0382231	8	2.49151e-05	13	0	9.5887	-1.35083e-05
2	0	0	1	0	1	159.955	0.350364	0.349941	-0.0440047	8	1.22114e-05	13	0	9.9383	-1.5399e-05
2	1	0	1	0	0	160.216	0.352261	0.351787	0.0309068	9	1.58254e-05	12	0	0.1948	1.08726e-05
2	1	0	1	0	0	160.581	0.355907	0.35545	0.0274057	9	2.7277e-05	13	0	0.5594	9.74135e-06
2	1	0	1	0	0	160.93	0.359403	0.35894	0.0350558	9	3.82876e-05	13	0	0.909	1.25829e-05
2	1	0	1	0	0	161.28	0.362899	0.362432	0.0417352	9	4.9346e-05	13	0	1.2586	1.51262e-05
2	1	0	1	0	0	161.629	0.366395	0.365936	0.0422706	9	6.03755e-05	13	0	1.6082	1.54683e-05
2	1	0	1	0	0	161.979	0.36989	0.369464	0.0362611	9	7.13491e-05	13	0	1.9578	1.33972e-05
2	1	0	1	0	0	162.329	0.373386	0.37292	0.0287993	9	8.22119e-05	13	0	2.3073	1.07398e-05
2	1	0	1	0	0	162.678	0.376882	0.376418	0.0209685	9	9.29778e-05	13	0	2.6569	7.89294e-06
2	1	0	1	0	0	163.028	0.380378	0.37996	0.0195347	9	0.00010359	13	0	3.0065	7.4224e-06
2	1	0	1	0	0	163.377	0.383875	0.383418	0.0228097	9	0.000114053	13	0	3.3561	8.74565e-06
2	1	0	1	0	0	163.727	0.38737	0.386881	0.0286528	9	0.000124368	13	0	3.7056	1.10852e-05
2	1	0	1	0	0	164.076	0.390866	0.390445	0.0358672	9	0.000134562	13	0	4.0552	1.40042e-05
2	1	0	1	0	0	164.426	0.394361	0.393868	0.0391411	9	0.000144565	13	0	4.4048	1.54164e-05
2	1	0	1	0	0	164.776	0.397857	0.397382	0.0368412	9	0.000154494	13	0	4.7544	1.464e-05
2	1	0	1	0	0	165.125	0.401353	0.400916	0.030593	9	0.000164239	13	0	5.104	1.22652e-05
2	1	0	1	0	0	165.475	0.404849	0.404416	0.022205	9	0.000173888	13	0	5.4536	8.98005e-06
2	1	0	1	0	0	165.824	0.408345	0.407881	0.0172242	9	0.000183334	13	0	5.8032	7.02544e-06
2	1	0	1	0	0	166.174	0.411841	0.411336	0.0177395	9	0.000192736	13	0	6.1528	7.29691e-06
2	1	0	1	0	0	166.524	0.415337	0.414799	0.0221673	9	0.00020201	13	0	6.5024	9.19499e-06
2	1	0	1	0	0	166.873	0.418832	0.418324	0.0304394	9	0.000211167	13	0	6.852	1.27335e-05
2	1	0	1	0	0	167.223	0.422327	0.421866	0.0348472	9	0.000220183	13	0	7.2015	1.47008e-05
2	1	0	1	0	0	167.572	0.425824	0.425367	0.0348576	9	0.000229107	13	0	7.5511	1.48273e-05
2	1	0	1	0	0	167.922	0.42932	0.428864	0.0295687	9	0.000237919	13	0	7.9007	1.2681e-05
2	1	0	1	0	0	168.272	0.432817	0.432376	0.0220634	9	0.000246662	13	0	8.2503	9.53966e-06
2	1	0	1	0	0	168.621	0.436312	0.435841	0.0156943	9	0.0002553	13	0	8.5998	6.84022e-06
2	1	0	1	0	0	168.971	0.439808	0.439348	0.0155174	9	0.000263876	13	0	8.9494	6.81754e-06
2	1	0	1	0	0	169.32	0.443303	0.442807	0.017929	9	0.000272341	13	0	9.299	7.93908e-06
2	1	0	1	0	0	169.67	0.446799	0.446283	0.0226184	9	0.000280748	13	0	9.6486	1.00942e-05
2	1	0	1	0	0	169.988	0.450021	0.449517	0.0124588	9	0.000288347	13	0	9.9665	5.60042e-06
2	0	0	1	0	0	170.38	0.4461	0.44562	-0.0107852	9	0.000281763	13	0	0.3646	-4.80612e-06
2	0	0	1	0	0	170.729	0.442603	0.442095	-0.0145738	9	0.000274581	13	0	0.7142	-6.44298e-06
2	0	0	1	0	0	171.079	0.439108	0.438589	-0.0187612	9	0.000267098	13	0	1.0637	-8.22843e-06
2	0	0	1	0	0	171.428	0.435613	0.435084	-0.0252973	9	0.000259381	13	0	1.4133	-1.10065e-05
2	0	0	1	0	0	171.778	0.432117	0.431603	-0.0313678	9	0.000251486	13	0	1.7629	-1.35384e-05
2	0	0	1	0	0	172.128	0.428621	0.428097	-0.032966	9	0.000243404	13	0	2.1125	-1.41126e-05
2	0	0	1	0	0	172.477	0.425125	0.4246	-0.0311285	9	0.00023515	13	0	2.4621	-1.32172e-05
2	0	0	1	0	0	172.827	0.421629	0.421078	-0.0250645	9	0.000226709	13	0	2.8117	-1.05541e-05
2	0	0	1	0	0	173.176	0.418133	0.417592	-0.0184669	9	0.000218095	13	0	3.1613	-7.71163e-06
2	0	0	1	0	0	173.526	0.414637	0.414129	-0.0157864	9	0.000209303	13	0	3.5109	-6.53762e-06
2	0	0	1	0	0	173.876	0.411142	0.410606	-0.0169504	9	0.000200347	13	0	3.8605	-6.95995e-06
2	0	0	1	0	0	174.225	0.407646	0.4071	-0.0226626	9	0.000191251	13	0	4.2101	-9.22595e-06
2	0	0	1	0	0	174.575	0.404151	0.403645	-0.0309284	9	0.000182036	13	0	4.5596	-1.24841e-05
2	0	0	1	0	0	174.924	0.400654	0.400185	-0.0369184	9	0.000172565	13	0	4.9092	-1.47742e-05
2	0	0	1	0	0	175.274	0.397158	0.396639	-0.0380706	9	0.000162951	13	0	5.2588	-1.51003e-05
2	0	0	1	0	0	175.624	0.393661	0.393193	-0.0333589	9	0.000153096	13	0	5.6084	-1.31165e-05
2	0	0	1	0	0	175.973	0.390166	0.389646	-0.0243127	9	0.00014308	13	0	5.9579	-9.47337e-06
2	0	0	1	0	0	176.323	0.386671	0.386154	-0.0198462	9	0.0001328	13	0	6.3075	-7.66369e-06
2	0	0	1	0	0	176.672	0.383175	0.382705	-0.0202542	9	0.000122343	13	0	6.6571	-7.75139e-06
2	0	0	1	0	0	177.022	0.379679	0.379193	-0.0282478	9	0.000111681	13	0	7.0067	-1.07114e-05
2	0	0	1	0	0	177.371	0.376183	0.375701	-0.0370439	9	0.000100829	13	0	7.3563	-1.39174e-05
2	0	0	1	0	0	177.721	0.372687	0.372201	-0.0428892	9	8.97218e-05	13	0	7.7059	-1.59634e-05
2	0	0	1	0	0	178.071	0.369191	0.36866	-0.0428921	9	7.84003e-05	13	0	8.0555	-1.58126e-05
2	0	0	1	0	0	178.42	0.365695	0.365156	-0.0374231	9	6.6824e-05	13	0	8.4051	-1.36652e-05
2	0	0	1	0	0	178.77	0.3622	0.361668	-0.0296222	9	5.49765e-05	13	0	8.7547	-1.07134e-05
2	0	0	1	0	0	179.119	0.358704	0.358182	-0.0249469	9	4.28884e-05	13	0	9.1043	-8.93553e-06
2	0	0	1	0	0	179.469	0.355209	0.354742	-0.0245119	9	3.05365e-05	13	0	9.4538	-8.6954e-06
2	0	0	1	0	0	179.819	0.351712	0.351283	-0.0304928	9	1.79219e-05	13	0	9.8034	-1.07116e-05
2	1	0	1	0	1	180.085	0.350963	0.350508	0.0320811	10	1.33875e-05	13	0	0.000000000000000E+000	1.12447e-05
2	1	0	1	0	1	180.479	0.354908	0.354452	0.0422439	10	2.5344e-05	13	0	0.3945	1.49734e-05
2	1	0	1	0	1	180.829	0.358404	0.357965	0.042294	10	3.62926e-05	13	0	0.7441	1.51398e-05
2	1	0	1	0	1	181.179	0.361901	0.361513	0.0363153	10	4.73686e-05	13	0	1.0937	1.31284e-05
2	1	0	1	0	1	181.528	0.365396	0.364976	0.0282585	10	5.84393e-05	13	0	1.4432	1.03137e-05
2	1	0	1	0	1	181.878	0.368892	0.368464	0.0217034	10	6.94622e-05	13	0	1.7928	7.99695e-06
2	1	0	1	0	1	182.227	0.372387	0.371898	0.0196004	10	8.03692e-05	13	0	2.1424	7.28934e-06
2	1	0	1	0	1	182.577	0.375883	0.375423	0.0233088	10	9.1166e-05	13	0	2.492	8.75068e-06
2	1	0	1	0	1	182.926	0.379379	0.378917	0.0287144	10	0.000101792	13	0	2.8416	1.08804e-05
2	1	0	1	0	1	183.276	0.382875	0.382406	0.0356669	10	0.000112303	13	0	3.1912	1.36393e-05
2	1	0	1	0	1	183.626	0.386371	0.385887	0.039161	10	0.000122639	13	0	3.5408	1.51117e-05
2	1	0	1	0	1	183.975	0.389867	0.389373	0.039725	10	0.000132876	13	0	3.8904	1.54678e-05
2	1	0	1	0	1	184.325	0.393363	0.392957	0.0392386	10	0.000142927	13	0	4.24	1.54191e-05
2	1	0	1	0	1	184.674	0.396858	0.396431	0.0381887	10	0.000152899	13	0	4.5896	1.51392e-05
2	1	0	1	0	1	185.024	0.400353	0.399904	0.0372473	10	0.000162685	13	0	4.9391	1.48954e-05
2	1	0	1	0	1	185.374	0.40385	0.403418	0.0366444	10	0.000172373	13	0	5.2887	1.4783e-05
2	1	0	1	0	1	185.723	0.407346	0.406899	0.0337918	10	0.00018189	13	0	5.6383	1.37498e-05
2	1	0	1	0	1	186.073	0.410843	0.410414	0.0316777	10	0.000191246	13	0	5.9879	1.3001e-05
2	1	0	1	0	1	186.422	0.414338	0.413899	0.0288868	10	0.000200528	13	0	6.3374	1.19562e-05
2	1	0	1	0	1	186.772	0.417834	0.41735	0.0274567	10	0.000209705	13	0	6.687	1.14591e-05
2	1	0	1	0	1	187.121	0.421329	0.420886	0.0250417	10	0.000218767	13	0	7.0366	1.05397e-05
2	1	0	1	0	1	187.471	0.424825	0.424355	0.0219204	10	0.000227722	13	0	7.3862	9.30202e-06
2	1	0	1	0	1	187.821	0.428321	0.427842	0.0190664	10	0.000236592	13	0	7.7358	8.15739e-06
2	1	0	1	0	1	188.17	0.431817	0.431326	0.0169495	10	0.000245336	13	0	8.0854	7.31074e-06
2	1	0	1	0	1	188.52	0.435313	0.434818	0.0144637	10	0.000253998	13	0	8.435	6.28909e-06
2	1	0	1	0	1	188.869	0.438809	0.438309	0.0159793	10	0.000262561	13	0	8.7846	7.00388e-06
2	1	0	1	0	1	189.219	0.442305	0.441815	0.0176293	10	0.000271078	13	0	9.1342	7.78888e-06
2	1	0	1	0	1	189.569	0.4458	0.445296	0.020994	10	0.000279491	13	0	9.4838	9.34857e-06
2	1	0	1	0	1	189.918	0.449295	0.448818	0.0253496	10	0.000287831	13	0	9.8333	1.13774e-05
2	0	0	1	0	1	190.278	0.447099	0.446587	-0.00994154	10	0.000284744	13	0	0.1998	-4.43976e-06
2	0	0	1	0	1	190.628	0.443603	0.443083	-0.0129745	10	0.000277647	13	0	0.5494	-5.74877e-06
2	0	0	1	0	1	190.978	0.440107	0.439567	-0.0183155	10	0.000270248	13	0	0.899	-8.0509e-06
2	0	0	1	0	1	191.327	0.436611	0.436118	-0.0231951	10	0.000262574	13	0	1.2486	-1.01158e-05
2	0	0	1	0	1	191.677	0.433116	0.432607	-0.0287504	10	0.000254746	13	0	1.5982	-1.24376e-05
2	0	0	1	0	1	192.026	0.42962	0.429091	-0.0321212	10	0.000246718	13	0	1.9478	-1.37829e-05
2	0	0	1	0	1	192.376	0.426125	0.425604	-0.0334733	10	0.000238519	13	0	2.2973	-1.42464e-05
2	0	0	1	0	1	192.726	0.422628	0.42209	-0.0323762	10	0.000230137	13	0	2.6469	-1.36657e-05
2	0	0	1	0	1	193.075	0.419132	0.418571	-0.02838	10	0.000221589	13	0	2.9965	-1.1879e-05
2	0	0	1	0	1	193.425	0.415635	0.415119	-0.0234588	10	0.000212856	13	0	3.3461	-9.73821e-06
2	0	0	1	0	1	193.774	0.41214	0.411574	-0.0182469	10	0.000203973	13	0	3.6956	-7.50993e-06
2	0	0	1	0	1	194.124	0.408644	0.408072	-0.0157739	10	0.000194892	13	0	4.0452	-6.43688e-06
2	0	0	1	0	1	194.473	0.405149	0.404667	-0.0181066	10	0.00018573	13	0	4.3948	-7.32716e-06
2	0	0	1	0	1	194.823	0.401653	0.40118	-0.0237098	10	0.000176308	13	0	4.7444	-9.51191e-06
2	0	0	1	0	1	195.173	0.398157	0.397653	-0.0301483	10	0.00016672	13	0	5.094	-1.19886e-05
2	0	0	1	0	1	195.522	0.394661	0.394134	-0.0371963	10	0.000156934	13	0	5.4436	-1.46604e-05
2	0	0	1	0	1	195.872	0.391165	0.390665	-0.0391875	10	0.000146996	13	0	5.7932	-1.53091e-05
2	0	0	1	0	1	196.221	0.387669	0.387141	-0.0385249	10	0.000136811	13	0	6.1428	-1.49146e-05
2	0	0	1	0	1	196.571	0.384174	0.383635	-0.0342628	10	0.000126474	13	0	6.4924	-1.31444e-05
2	0	0	1	0	1	196.921	0.380678	0.380154	-0.0286546	10	0.00011588	13	0	6.842	-1.08932e-05
2	0	0	1	0	1	197.27	0.377183	0.376636	-0.0240671	10	0.000105087	13	0	7.1915	-9.06456e-06
2	0	0	1	0	1	197.62	0.373686	0.373148	-0.0217178	10	9.40171e-05	13	0	7.5411	-8.10396e-06
2	0	0	1	0	1	197.969	0.37019	0.369736	-0.0212692	10	8.27692e-05	13	0	7.8907	-7.86398e-06
2	0	0	1	0	1	198.319	0.366694	0.366226	-0.023907	10	7.1236e-05	13	0	8.2403	-8.75534e-06
2	0	0	1	0	1	198.668	0.363198	0.362705	-0.0238384	10	5.95018e-05	13	0	8.5898	-8.64633e-06
2	0	0	1	0	1	199.018	0.359703	0.359227	-0.0243679	10	4.74704e-05	13	0	8.9394	-8.75361e-06
2	0	0	1	0	1	199.368	0.356207	0.35574	-0.0268692	10	3.52399e-05	13	0	9.289	-9.55844e-06
2	0	0	1	0	1	199.717	0.352711	0.352229	-0.0322955	10	2.27295e-05	13	0	9.6386	-1.13754e-05
2	0	0	1	0	1	199.986	0.349989	0.349497	-0.0470155	10	1.31439e-05	13	0	9.9073	-1.64318e-05