File: ACS_Catal_2026/Figures_Na_K/main_figures/data/EC/20251112_2-148_alpha_reproducibility/20251112_2-148_002_alpha_reproducibility_2_Na2_02_PEIS_C02.mpt
EC-Lab ASCII FILE
Nb header lines : 63

Potentio Electrochemical Impedance Spectroscopy

Run on channel : 2 (SN 69290)
User :
CE vs. WE compliance from -10 V to 10 V
Electrode connection : standard
Potential control : Ewe
Ewe ctrl range : min = -1.00 V, max = 1.00 V
Safety Limits :
	Do not start on E overload
Acquisition started on : 11/12/2025 15:15:43.590
Loaded Setting File :  C:\Users\User\Documents\EC-Lab\Data\Yatsuzuka\20251112_2-148_alpha_reproducibility\20251112_2-148_002_alpha_reproducibility_2_K1.mps
Saved on :
	File : 20251112_2-148_002_alpha_reproducibility_2_Na2_02_PEIS_C02.mpr
	Directory : C:\Users\User\Documents\EC-Lab\Data\Yatsuzuka\20251112_2-148_alpha_reproducibility\
	Host : 192.109.209.127
Device : SP-150e (SN .003883)
Address : 192.109.209.128
EC-LAB for windows v11.52 (software)
Internet server v11.52 (firmware)
Command interpretor v11.50 (firmware)
Electrode material :
Initial state :
Electrolyte :
Comments :
Electrode surface area : 0.001 cm2
Characteristic mass : 0.001 g
Equivalent Weight : 0.000 g/eq.
Density : 0.000 g/cm3
Volume (V) : 0.001 cm3
Cycle Definition : Charge/Discharge alternance
Mode                Single sine
E (V)               0.4500
vs.                 Ref
tE (h:m:s)          0:00:0.0000
record              0
dI                  0.000
unit dI             mA
dt (s)              0.000
fi                  500.000
unit fi             kHz
ff                  1.000
unit ff             Hz
Nd                  6
Points              per decade
spacing             Logarithmic
Va (mV)             10.0
pw                  0.10
Na                  2
corr                0
E range min (V)     -1.000
E range max (V)     1.000
I Range             Auto
Bandwidth           5
nc cycles           0
goto Ns'            0
nr cycles           0
inc. cycle          0

freq/Hz	Re(Z)/Ohm	-Im(Z)/Ohm	|Z|/Ohm	Phase(Z)/deg	time/s	<Ewe>/V	<I>/mA	Cs/uF	Cp/uF	cycle number	I Range	|Ewe|/V	|I|/A	Ns	(Q-Qo)/mA.h	Re(Y)/Ohm-1	Im(Y)/Ohm-1	|Y|/Ohm-1	Phase(Y)/deg	Re(C)/nF	Im(C)/nF	|C|/nF	Phase(C)/deg	Re(M)	Im(M)	|M|	Phase(M)/deg	Re(Permittivity)	Im(Permittivity)	|Permittivity|	Phase(Permittivity)/deg	Re(Resistivity)/Ohm.cm	Im(Resistivity)/Ohm.cm	|Resistivity|/Ohm.cm	Phase(Resistivity)/deg	Re(Conductivity)/mS/cm	Im(Conductivity)/mS/cm	|Conductivity|/mS/cm	Phase(Conductivity)/deg	Tan(Delta)	Loss Angle(Delta)/deg	dq/mA.h	Pwe/W	Rwe/Ohm
500019	14.7577	-3.80955	15.2415	14.4743	201.614	0.449795	0.0219738	-0.0835527	-0.00521979	1	10	0.00461309	0.000302666	0	3.28822e-05	0.0635279	-0.0163991	0.0656104	-14.4743	-5.21979	20.2208	20.8837	-104.474	0.0000000E+000	0.0000000E+000	0.0000000E+000	104.474	0.0000000E+000	0.0000000E+000	0.0000000E+000	-104.474	0.0000000E+000	0.0000000E+000	0.0000000E+000	14.4743	0.0000000E+000	0.0000000E+000	0.0000000E+000	-14.4743	3.87387	75.5257	3.28822e-05	9.88367e-06	20469.6
339899	10.2089	-2.04532	10.4117	11.3291	202.037	0.449697	0.0216307	-0.228933	-0.00883457	1	10	0.00711895	0.000683744	0	3.54432e-05	0.0941741	-0.0188676	0.0960456	-11.3291	-8.83457	44.0962	44.9725	-101.329	0.0000000E+000	0.0000000E+000	0.0000000E+000	101.329	0.0000000E+000	0.0000000E+000	0.0000000E+000	-101.329	0.0000000E+000	0.0000000E+000	0.0000000E+000	11.3291	0.0000000E+000	0.0000000E+000	0.0000000E+000	-11.3291	4.99133	78.6709	2.56094e-06	9.72726e-06	20789.8
231063	8.69492	-1.01295	8.75373	6.64496	202.459	0.449561	0.0209185	-0.679989	-0.00910528	1	10	0.0100988	0.00115366	0	3.71735e-05	0.11347	-0.0132191	0.114237	-6.64496	-9.10529	78.1574	78.686	-96.645	0.0000000E+000	0.0000000E+000	0.0000000E+000	96.645	0.0000000E+000	0.0000000E+000	0.0000000E+000	-96.645	0.0000000E+000	0.0000000E+000	0.0000000E+000	6.64496	0.0000000E+000	0.0000000E+000	0.0000000E+000	-6.64496	8.58374	83.355	1.73029e-06	9.40412e-06	21491.1
157076	8.21969	-0.437507	8.23133	3.04679	202.881	0.449534	0.0210695	-2.31593	-0.00654269	1	10	0.0108968	0.00132383	0	3.60031e-05	0.121315	-0.00645722	0.121487	-3.04679	-6.54269	122.921	123.095	-93.0468	0.0000000E+000	0.0000000E+000	0.0000000E+000	93.0468	0.0000000E+000	0.0000000E+000	0.0000000E+000	-93.0468	0.0000000E+000	0.0000000E+000	0.0000000E+000	3.04679	0.0000000E+000	0.0000000E+000	0.0000000E+000	-3.04679	18.7876	86.9532	-1.17032e-06	9.47144e-06	21335.8
106786	8.12614	-0.162741	8.12777	1.1473	203.303	0.449545	0.0204132	-9.15815	-0.00367162	1	10	0.0108312	0.00133261	0	3.89359e-05	0.12301	-0.00246351	0.123035	-1.1473	-3.67163	183.335	183.372	-91.1473	0.0000000E+000	0.0000000E+000	0.0000000E+000	91.1473	0.0000000E+000	0.0000000E+000	0.0000000E+000	-91.1473	0.0000000E+000	0.0000000E+000	0.0000000E+000	1.1473	0.0000000E+000	0.0000000E+000	0.0000000E+000	-1.1473	49.933	88.8527	2.93276e-06	9.17664e-06	22022.3
72595	8.12695	-0.0512525	8.12711	0.36133	203.725	0.449542	0.0197364	-42.7758	-0.0017012	1	10	0.0106953	0.00131601	0	4.358e-05	0.123043	-0.000775966	0.123045	-0.36133	-1.70119	269.754	269.76	-90.3613	0.0000000E+000	0.0000000E+000	0.0000000E+000	90.3613	0.0000000E+000	0.0000000E+000	0.0000000E+000	-90.3613	0.0000000E+000	0.0000000E+000	0.0000000E+000	0.36133	0.0000000E+000	0.0000000E+000	0.0000000E+000	-0.36133	158.567	89.6387	4.64414e-06	8.87232e-06	22777.4
49352.4	8.12792	-0.000438075	8.12792	0.0030881	204.147	0.449558	0.0200515	-7361.46	-2.13846e-05	1	10	0.0105748	0.00130105	0	4.59284e-05	0.123033	-6.63115e-06	0.123033	-0.0030881	-0.0213971	396.764	396.764	-90.0031	0.0000000E+000	0.0000000E+000	0.0000000E+000	90.0031	0.0000000E+000	0.0000000E+000	0.0000000E+000	-90.0031	0.0000000E+000	0.0000000E+000	0.0000000E+000	0.0030881	0.0000000E+000	0.0000000E+000	0.0000000E+000	-0.0030881	18553.7	89.9969	2.34832e-06	9.0143e-06	22420.2
33551.1	8.14866	0.0203184	8.14868	-0.142865	204.569	0.449563	0.0202137	233.466	0.00145154	1	10	0.0105345	0.00129278	0	5.03055e-05	0.122719	0.000305996	0.122719	0.142865	1.45157	582.137	582.139	-89.8571	0.0000000E+000	0.0000000E+000	0.0000000E+000	89.8571	0.0000000E+000	0.0000000E+000	0.0000000E+000	-89.8571	0.0000000E+000	0.0000000E+000	0.0000000E+000	-0.142865	0.0000000E+000	0.0000000E+000	0.0000000E+000	0.142865	401.048	89.8571	4.37714e-06	9.08731e-06	22240.5
22806.6	8.1565	0.0280521	8.15654	-0.197053	204.991	0.449556	0.0200384	248.768	0.00294248	1	10	0.0105196	0.00128971	0	5.33232e-05	0.1226	0.000421651	0.122601	0.197053	2.94247	855.562	855.567	-89.8029	0.0000000E+000	0.0000000E+000	0.0000000E+000	89.8029	0.0000000E+000	0.0000000E+000	0.0000000E+000	-89.8029	0.0000000E+000	0.0000000E+000	0.0000000E+000	-0.197053	0.0000000E+000	0.0000000E+000	0.0000000E+000	0.197053	290.763	89.8029	3.0177e-06	9.00838e-06	22434.7
15504.4	8.16732	0.0339596	8.16739	-0.238234	205.413	0.449545	0.0197736	302.276	0.00522591	1	10	0.0104625	0.00128101	0	5.37921e-05	0.122437	0.000509092	0.122438	0.238234	5.22595	1256.84	1256.85	-89.7618	0.0000000E+000	0.0000000E+000	0.0000000E+000	89.7618	0.0000000E+000	0.0000000E+000	0.0000000E+000	-89.7618	0.0000000E+000	0.0000000E+000	0.0000000E+000	-0.238234	0.0000000E+000	0.0000000E+000	0.0000000E+000	0.238234	240.501	89.7618	4.68874e-07	8.88914e-06	22734.6
10540.4	8.17512	0.0390296	8.17521	-0.273539	205.836	0.449555	0.0193877	386.875	0.00881779	1	10	0.0103582	0.00126703	0	5.57128e-05	0.12232	0.000583977	0.122321	0.273539	8.81772	1846.97	1846.99	-89.7265	0.0000000E+000	0.0000000E+000	0.0000000E+000	89.7265	0.0000000E+000	0.0000000E+000	0.0000000E+000	-89.7265	0.0000000E+000	0.0000000E+000	0.0000000E+000	-0.273539	0.0000000E+000	0.0000000E+000	0.0000000E+000	0.273539	209.46	89.7265	1.92072e-06	8.71583e-06	23187.7
7163.78	8.18934	0.0394145	8.18943	-0.275757	206.361	0.449535	0.0189048	563.666	0.0130565	1	10	0.0102128	0.00124707	0	5.9211e-05	0.122107	0.00058769	0.122109	0.275757	13.0565	2712.81	2712.84	-89.7242	0.0000000E+000	0.0000000E+000	0.0000000E+000	89.7242	0.0000000E+000	0.0000000E+000	0.0000000E+000	-89.7242	0.0000000E+000	0.0000000E+000	0.0000000E+000	-0.275757	0.0000000E+000	0.0000000E+000	0.0000000E+000	0.275757	207.775	89.7242	3.49823e-06	8.49836e-06	23778.9
4871.56	8.19097	0.0417507	8.19108	-0.292043	207.05	0.449545	0.0183902	782.507	0.0203298	1	10	0.0101622	0.00124064	0	6.32485e-05	0.122082	0.000622274	0.122084	0.292043	20.33	3988.46	3988.51	-89.708	0.0000000E+000	0.0000000E+000	0.0000000E+000	89.708	0.0000000E+000	0.0000000E+000	0.0000000E+000	-89.708	0.0000000E+000	0.0000000E+000	0.0000000E+000	-0.292043	0.0000000E+000	0.0000000E+000	0.0000000E+000	0.292043	196.188	89.708	4.03747e-06	8.26722e-06	24444.9
3311.06	8.1976	0.0544759	8.19778	-0.380745	207.515	0.44955	0.018627	882.366	0.0389641	1	10	0.0108954	0.00132907	0	6.66509e-05	0.121982	0.000810609	0.121984	0.380745	38.9641	5863.37	5863.5	-89.6193	0.0000000E+000	0.0000000E+000	0.0000000E+000	89.6193	0.0000000E+000	0.0000000E+000	0.0000000E+000	-89.6193	0.0000000E+000	0.0000000E+000	0.0000000E+000	-0.380745	0.0000000E+000	0.0000000E+000	0.0000000E+000	0.380745	150.481	89.6193	3.40239e-06	8.37376e-06	24134.4
2250.72	8.19746	0.0605231	8.19768	-0.423016	208.201	0.449544	0.0181478	1168.36	0.063685	1	10	0.0101094	0.0012332	0	6.8255e-05	0.121982	0.000900614	0.121986	0.423016	63.6856	8625.72	8625.96	-89.577	0.0000000E+000	0.0000000E+000	0.0000000E+000	89.577	0.0000000E+000	0.0000000E+000	0.0000000E+000	-89.577	0.0000000E+000	0.0000000E+000	0.0000000E+000	-0.423016	0.0000000E+000	0.0000000E+000	0.0000000E+000	0.423016	135.444	89.577	1.6041e-06	8.15823e-06	24771.3
1530.49	8.21126	0.0838799	8.21169	-0.585269	208.666	0.449548	0.0176257	1239.74	0.129355	1	10	0.0103082	0.00125531	0	7.16252e-05	0.121771	0.00124392	0.121778	0.585269	129.354	12662.9	12663.6	-89.4147	0.0000000E+000	0.0000000E+000	0.0000000E+000	89.4147	0.0000000E+000	0.0000000E+000	0.0000000E+000	-89.4147	0.0000000E+000	0.0000000E+000	0.0000000E+000	-0.585269	0.0000000E+000	0.0000000E+000	0.0000000E+000	0.585269	97.8931	89.4147	3.37019e-06	7.92361e-06	25505.2
1040.33	8.21745	0.107078	8.21815	-0.746556	209.131	0.449552	0.0178625	1428.72	0.24255	1	10	0.0104047	0.00126606	0	7.30107e-05	0.121672	0.00158545	0.121682	0.746556	242.551	18613.9	18615.5	-89.2534	0.0000000E+000	0.0000000E+000	0.0000000E+000	89.2534	0.0000000E+000	0.0000000E+000	0.0000000E+000	-89.2534	0.0000000E+000	0.0000000E+000	0.0000000E+000	-0.746556	0.0000000E+000	0.0000000E+000	0.0000000E+000	0.746556	76.7425	89.2534	1.38549e-06	8.03012e-06	25167.3
707.036	8.22007	0.14372	8.22133	-1.00166	209.596	0.449546	0.0172808	1566.25	0.478644	1	10	0.0104477	0.0012708	0	7.60276e-05	0.121616	0.00212635	0.121635	1.00166	478.645	27376	27380.2	-88.9983	0.0000000E+000	0.0000000E+000	0.0000000E+000	88.9983	0.0000000E+000	0.0000000E+000	0.0000000E+000	-88.9983	0.0000000E+000	0.0000000E+000	0.0000000E+000	-1.00166	0.0000000E+000	0.0000000E+000	0.0000000E+000	1.00166	57.1949	88.9983	3.01698e-06	7.76851e-06	26014.2
480.769	8.22924	0.20113	8.23169	-1.40008	210.061	0.449539	0.0167214	1645.91	0.982611	1	10	0.0104781	0.0012729	0	7.86142e-05	0.121445	0.00296823	0.121482	1.40008	982.609	40203.6	40215.6	-88.5999	0.0000000E+000	0.0000000E+000	0.0000000E+000	88.5999	0.0000000E+000	0.0000000E+000	0.0000000E+000	-88.5999	0.0000000E+000	0.0000000E+000	0.0000000E+000	-1.40008	0.0000000E+000	0.0000000E+000	0.0000000E+000	1.40008	40.9151	88.5999	2.58654e-06	7.51694e-06	26884
326.778	8.2392	0.290469	8.24432	-2.0191	210.524	0.449542	0.0177096	1676.75	2.08141	1	10	0.010493	0.00127276	0	8.16277e-05	0.12122	0.00427357	0.121296	2.0191	2081.41	59039.6	59076.3	-87.9809	0.0000000E+000	0.0000000E+000	0.0000000E+000	87.9809	0.0000000E+000	0.0000000E+000	0.0000000E+000	-87.9809	0.0000000E+000	0.0000000E+000	0.0000000E+000	-2.0191	0.0000000E+000	0.0000000E+000	0.0000000E+000	2.0191	28.3651	87.9809	3.01349e-06	7.96122e-06	25384.1
222.061	8.2548	0.414691	8.26521	-2.87591	210.985	0.449542	0.0178569	1728.32	4.35076	1	10	0.0105038	0.00127085	0	8.25967e-05	0.120837	0.00607039	0.120989	2.87591	4350.76	86605.8	86715	-87.1241	0.0000000E+000	0.0000000E+000	0.0000000E+000	87.1241	0.0000000E+000	0.0000000E+000	0.0000000E+000	-87.1241	0.0000000E+000	0.0000000E+000	0.0000000E+000	-2.87591	0.0000000E+000	0.0000000E+000	0.0000000E+000	2.87591	19.9059	87.1241	9.68992e-07	8.02744e-06	25174.7
151.015	8.27304	0.585909	8.29376	-4.05101	211.447	0.44953	0.0171726	1798.75	8.97692	1	10	0.0105116	0.00126741	0	8.51687e-05	0.120271	0.00851779	0.120573	4.05101	8976.92	126754	127072	-85.949	0.0000000E+000	0.0000000E+000	0.0000000E+000	85.949	0.0000000E+000	0.0000000E+000	0.0000000E+000	-85.949	0.0000000E+000	0.0000000E+000	0.0000000E+000	-4.05101	0.0000000E+000	0.0000000E+000	0.0000000E+000	4.05101	14.12	85.949	2.572e-06	7.71963e-06	26177.1
102.667	8.29863	0.828189	8.33985	-5.69915	211.922	0.449551	0.0177898	1871.8	18.4587	1	10	0.010517	0.00126105	0	8.71738e-05	0.119314	0.0119073	0.119906	5.69915	18458.7	184960	185879	-84.3008	0.0000000E+000	0.0000000E+000	0.0000000E+000	84.3008	0.0000000E+000	0.0000000E+000	0.0000000E+000	-84.3008	0.0000000E+000	0.0000000E+000	0.0000000E+000	-5.69915	0.0000000E+000	0.0000000E+000	0.0000000E+000	5.69915	10.0202	84.3008	2.00515e-06	7.99742e-06	25270.2
69.7545	8.33376	1.19085	8.41842	-8.13219	212.389	0.449537	0.0171204	1915.98	38.3392	1	10	0.0105246	0.00125019	0	8.86946e-05	0.117593	0.0168033	0.118787	8.13219	38339.2	268305	271030	-81.8678	0.0000000E+000	0.0000000E+000	0.0000000E+000	81.8678	0.0000000E+000	0.0000000E+000	0.0000000E+000	-81.8678	0.0000000E+000	0.0000000E+000	0.0000000E+000	-8.13219	0.0000000E+000	0.0000000E+000	0.0000000E+000	8.13219	6.99818	81.8678	1.52079e-06	7.69626e-06	26257.3
47.4443	8.37537	1.70189	8.54654	-11.4862	212.833	0.449533	0.0165518	1971.08	78.1605	1	10	0.0105259	0.0012316	0	9.04872e-05	0.114663	0.0232998	0.117006	11.4862	78160.6	384645	392505	-78.5138	0.0000000E+000	0.0000000E+000	0.0000000E+000	78.5138	0.0000000E+000	0.0000000E+000	0.0000000E+000	-78.5138	0.0000000E+000	0.0000000E+000	0.0000000E+000	-11.4862	0.0000000E+000	0.0000000E+000	0.0000000E+000	11.4862	4.92121	78.5138	1.79257e-06	7.44056e-06	27159.2
32.2387	8.43479	2.4489	8.7831	-16.1898	213.27	0.449525	0.0157742	2015.92	156.718	1	10	0.0105391	0.00119994	0	9.33977e-05	0.10934	0.031745	0.113855	16.1898	156718	539787	562077	-73.8102	0.0000000E+000	0.0000000E+000	0.0000000E+000	73.8102	0.0000000E+000	0.0000000E+000	0.0000000E+000	-73.8102	0.0000000E+000	0.0000000E+000	0.0000000E+000	-16.1898	0.0000000E+000	0.0000000E+000	0.0000000E+000	16.1898	3.44432	73.8102	2.91055e-06	7.09093e-06	28497.4
21.9144	8.50051	3.52734	9.2033	-22.5363	213.701	0.449522	0.016658	2058.93	302.448	1	10	0.0105518	0.00114653	0	9.48857e-05	0.100359	0.0416448	0.108657	22.5363	302448	728865	789125	-67.4637	0.0000000E+000	0.0000000E+000	0.0000000E+000	67.4637	0.0000000E+000	0.0000000E+000	0.0000000E+000	-67.4637	0.0000000E+000	0.0000000E+000	0.0000000E+000	-22.5363	0.0000000E+000	0.0000000E+000	0.0000000E+000	22.5363	2.40989	67.4637	1.48799e-06	7.48816e-06	26985.3
14.9093	8.59989	5.10242	9.99964	-30.6812	214.169	0.449542	0.0173479	2092.11	544.714	1	10	0.0105634	0.00105638	0	9.57406e-05	0.0860051	0.0510279	0.100004	30.6812	544714	918091	1.06752e+06	-59.3188	0.0000000E+000	0.0000000E+000	0.0000000E+000	59.3188	0.0000000E+000	0.0000000E+000	0.0000000E+000	-59.3188	0.0000000E+000	0.0000000E+000	0.0000000E+000	-30.6812	0.0000000E+000	0.0000000E+000	0.0000000E+000	30.6812	1.68545	59.3188	8.54882e-07	7.79861e-06	25913.4
10.1329	8.72838	7.30057	11.3791	-39.9097	214.628	0.449541	0.0174467	2151.43	885.582	1	10	0.010569	0.000928816	0	9.27499e-05	0.0674095	0.0563825	0.0878807	39.9097	885582	1.05878e+06	1.38031e+06	-50.0903	0.0000000E+000	0.0000000E+000	0.0000000E+000	50.0903	0.0000000E+000	0.0000000E+000	0.0000000E+000	-50.0903	0.0000000E+000	0.0000000E+000	0.0000000E+000	-39.9097	0.0000000E+000	0.0000000E+000	0.0000000E+000	39.9097	1.19557	50.0903	-2.99066e-06	7.84301e-06	25766.5
6.88933	8.87633	10.6688	13.8785	-50.24	215.181	0.449539	-0.0012773	2165.34	1279.6	1	11	0.0105773	0.000762132	0	9.22577e-05	0.0460836	0.0553899	0.0720537	50.24	1.2796e+06	1.06461e+06	1.66456e+06	-39.76	0.0000000E+000	0.0000000E+000	0.0000000E+000	39.76	0.0000000E+000	0.0000000E+000	0.0000000E+000	-39.76	0.0000000E+000	0.0000000E+000	0.0000000E+000	-50.24	0.0000000E+000	0.0000000E+000	0.0000000E+000	50.24	0.831986	39.76	-4.92263e-07	-5.74195e-07	351945
4.68375	9.22604	15.603	18.1266	-59.4042	215.678	0.449553	0.000722361	2177.81	1613.62	1	11	0.0105792	0.000583628	0	9.45186e-05	0.0280792	0.0474872	0.0551677	59.4042	1.61362e+06	954137	1.87461e+06	-30.5958	0.0000000E+000	0.0000000E+000	0.0000000E+000	30.5958	0.0000000E+000	0.0000000E+000	0.0000000E+000	-30.5958	0.0000000E+000	0.0000000E+000	0.0000000E+000	-59.4042	0.0000000E+000	0.0000000E+000	0.0000000E+000	59.4042	0.5913	30.5958	2.2609e-06	3.2474e-07	622339
3.18099	9.46628	22.586	24.4895	-67.2604	216.383	0.449549	0.00115467	2215.23	1884.24	1	11	0.0105818	0.000432096	0	0.000100938	0.0157841	0.0376598	0.0408338	67.2604	1.88424e+06	789727	2.04305e+06	-22.7396	0.0000000E+000	0.0000000E+000	0.0000000E+000	22.7396	0.0000000E+000	0.0000000E+000	0.0000000E+000	-22.7396	0.0000000E+000	0.0000000E+000	0.0000000E+000	-67.2604	0.0000000E+000	0.0000000E+000	0.0000000E+000	67.2604	0.419122	22.7396	6.41954e-06	5.19079e-07	389333
2.16533	9.8622	32.8907	34.3374	-73.3088	217.394	0.449564	0.00211636	2234.72	2050.38	1	11	0.0105794	0.000308102	0	9.74949e-05	0.00836446	0.0278957	0.0291227	73.3088	2.05038e+06	614801	2.14057e+06	-16.6912	0.0000000E+000	0.0000000E+000	0.0000000E+000	16.6912	0.0000000E+000	0.0000000E+000	0.0000000E+000	-16.6912	0.0000000E+000	0.0000000E+000	0.0000000E+000	-73.3088	0.0000000E+000	0.0000000E+000	0.0000000E+000	73.3088	0.299848	16.6913	-3.4432e-06	9.51438e-07	212423
1.46962	10.5495	47.9222	49.0697	-77.585	219.594	0.449566	0.000361012	2259.84	2155.39	1	12	0.0105815	0.000215643	0	9.20841e-05	0.00438133	0.0199027	0.0203792	77.585	2.15539e+06	474483	2.207e+06	-12.415	0.0000000E+000	0.0000000E+000	0.0000000E+000	12.415	0.0000000E+000	0.0000000E+000	0.0000000E+000	-12.415	0.0000000E+000	0.0000000E+000	0.0000000E+000	-77.585	0.0000000E+000	0.0000000E+000	0.0000000E+000	77.585	0.220138	12.415	-5.4108e-06	1.62299e-07	1.24529e+06
1.00006	11.6783	69.7151	70.6865	-80.4904	221.734	0.449567	0.000287428	2282.79	2220.48	1	12	0.0105811	0.00014969	0	9.35111e-05	0.00233725	0.0139526	0.014147	80.4904	2.22048e+06	371961	2.25142e+06	-9.50956	0.0000000E+000	0.0000000E+000	0.0000000E+000	9.50956	0.0000000E+000	0.0000000E+000	0.0000000E+000	-9.50956	0.0000000E+000	0.0000000E+000	0.0000000E+000	-80.4904	0.0000000E+000	0.0000000E+000	0.0000000E+000	80.4904	0.167514	9.50955	1.42704e-06	1.29218e-07	1.5641e+06