File: ACS_Catal_2026/Figures_Na_K/main_figures/data/EC/20251112_2-148_alpha_reproducibility/20251112_2-148_003_alpha_Na_first_1_Na1_01_CVA_C01.mpt
EC-Lab ASCII FILE
Nb header lines : 66

Cyclic Voltammetry Advanced

Run on channel : 1 (SN 69187)
User :
CE vs. WE compliance from -10 V to 10 V
Electrode connection : standard
Potential control : Ewe
Ewe ctrl range : min = -1.00 V, max = 1.00 V
Safety Limits :
	Do not start on E overload
Acquisition started on : 11/12/2025 15:46:22.293
Loaded Setting File :  C:\Users\User\Documents\EC-Lab\Data\Yatsuzuka\20251030_2-147_gamma_reproducibility\20251030_2-147_001_gamma1_K_1.mps
Saved on :
	File : 20251112_2-148_003_alpha_Na_first_1_Na1_01_CVA_C01.mpr
	Directory : C:\Users\User\Documents\EC-Lab\Data\Yatsuzuka\20251112_2-148_alpha_reproducibility\
	Host : 192.109.209.127
Device : SP-150e (SN .003883)
Address : 192.109.209.128
EC-Lab for windows v11.52 (software)
Internet server v11.52 (firmware)
Command interpretor v11.50 (firmware)
Electrode material :
Initial state :
Electrolyte :
Comments :
Electrode surface area : 0.001 cm2
Characteristic mass : 0.001 g
Equivalent Weight : 0.000 g/eq.
Density : 0.000 g/cm3
Volume (V) : 0.001 cm3
Cycle Definition : Charge/Discharge alternance
Ei (V)              0.350
vs.                 Ref
ti (h:m:s)          0:00:10.0000
dti (s)             0.0000
dE/dt               10.000
dE/dt unit          mV/s
E1 (V)              0.450
vs.                 Ref
t1 (h:m:s)          0:00:0.0000
dt1 (s)             0.1000
Step percent        50
N                   10
E range min (V)     -1.000
E range max (V)     1.000
I Range             Auto
I Range min         Unset
I Range max         Unset
I Range init        Unset
Bandwidth           5
E2 (V)              0.350
vs.                 Ref
t2 (h:m:s)          0:00:0.0000
dt2 (s)             0.1000
nc cycles           9
nr                  1
Reverse Scan        0
Ef (V)              0.000
vs.                 Eoc
tf (h:m:s)          0:00:0.0000
dtf (s)             0.1000

mode	ox/red	error	control changes	Ns changes	counter inc.	time/s	control/V	Ewe/V	<I>/mA	cycle number	(Q-Qo)/C	I Range	Ns	step time/s	P/W
2	1	0	1	0	0	0.000000000000000E+000	0.34995	0.349762	0.0404378	1	0.0000000E+000	13	0	0.000000000000000E+000	1.41436e-05
2	1	0	1	0	0	0.3569	0.35352	0.353289	0.0690742	1	2.41901e-05	12	0	0.3296	2.44032e-05
2	1	0	1	0	0	0.7064	0.357014	0.356774	0.0797529	1	5.0403e-05	12	0	0.6791	2.84537e-05
2	1	0	1	0	0	1.0559	0.36051	0.360328	0.0782536	1	7.69769e-05	12	0	1.0286	2.8197e-05
2	1	0	1	0	0	1.4055	0.364005	0.363775	0.0726826	1	0.000104222	12	0	1.3782	2.64401e-05
2	1	0	1	0	0	1.755	0.367501	0.367231	0.0829226	1	0.000131695	12	0	1.7277	3.04518e-05
2	1	0	1	0	0	2.1045	0.370995	0.370827	0.0816483	1	0.000159377	12	0	2.0772	3.02774e-05
2	1	0	1	0	0	2.454	0.37449	0.374293	0.0754485	1	0.000187609	12	0	2.4267	2.82398e-05
2	1	0	1	0	0	2.8035	0.377986	0.377719	0.0852253	1	0.000216086	12	0	2.7762	3.21912e-05
2	1	0	1	0	0	3.1531	0.381481	0.381262	0.0845799	1	0.000244703	12	0	3.1258	3.22471e-05
2	1	0	1	0	0	3.5025	0.384976	0.384714	0.078054	1	0.000273879	12	0	3.4752	3.00285e-05
2	1	0	1	0	0	3.8521	0.388471	0.388155	0.0884473	1	0.000303217	12	0	3.8248	3.43312e-05
2	1	0	1	0	0	4.2016	0.391967	0.391748	0.0859638	1	0.000332705	12	0	4.1743	3.36762e-05
2	1	0	1	0	0	4.5511	0.395461	0.395221	0.0804412	1	0.00036269	12	0	4.5238	3.17921e-05
2	1	0	1	0	0	4.9006	0.398956	0.398743	0.0909986	1	0.000392739	12	0	4.8733	3.62851e-05
2	1	0	1	0	0	5.2501	0.402452	0.402253	0.0871478	1	0.000422918	12	0	5.2228	3.50555e-05
2	1	0	1	0	0	5.5997	0.405947	0.405709	0.0833203	1	0.000453613	12	0	5.5724	3.38038e-05
2	1	0	1	0	0	5.9491	0.409442	0.409242	0.0933827	1	0.000484383	12	0	5.9218	3.82161e-05
2	1	0	1	0	0	6.2987	0.412937	0.412747	0.0877058	1	0.000515205	12	0	6.2714	3.62004e-05
2	1	0	1	0	0	6.6482	0.416433	0.416245	0.0846433	1	0.000546386	12	0	6.6209	3.52323e-05
2	1	0	1	0	0	6.9977	0.419927	0.419684	0.0942416	1	0.000577509	12	0	6.9704	3.95517e-05
2	1	0	1	0	0	7.3472	0.423422	0.423169	0.0890268	1	0.000608715	12	0	7.3199	3.76734e-05
2	1	0	1	0	0	7.6967	0.426918	0.42668	0.0859294	1	0.000640288	12	0	7.6694	3.66644e-05
2	1	0	1	0	0	8.0463	0.430413	0.430234	0.0955018	1	0.000671763	12	0	8.019	4.10882e-05
2	1	0	1	0	0	8.3957	0.433908	0.433701	0.0887906	1	0.000703318	12	0	8.3684	3.85086e-05
2	1	0	1	0	0	8.7453	0.437403	0.437197	0.0884788	1	0.000735217	12	0	8.718	3.86827e-05
2	1	0	1	0	0	9.0948	0.440899	0.440682	0.0966264	1	0.000766998	12	0	9.0675	4.25815e-05
2	1	0	1	0	0	9.4443	0.444394	0.444186	0.0887775	1	0.000798944	12	0	9.417	3.94337e-05
2	1	0	1	0	0	9.7938	0.447888	0.447719	0.0894954	1	0.000831166	12	0	9.7665	4.00688e-05
2	1	0	1	0	0	10.0801	0.449237	0.44908	0.0386674	1	0.000854177	12	0	10.0528	1.73647e-05
2	0	0	1	0	0	10.4596	0.445443	0.445178	0.0170535	1	0.000861761	13	0	10.4323	7.59184e-06
2	1	0	1	0	0	10.8091	0.441947	0.441739	0.0118527	1	0.000865621	13	0	10.7818	5.23581e-06
2	1	0	1	0	0	11.1587	0.438452	0.438201	-0.00271005	1	0.000867629	13	0	11.1314	-1.18754e-06
2	0	0	1	0	0	11.5082	0.434956	0.434712	0.000732726	1	0.000867968	13	0	0.0499	3.18524e-07
2	1	0	1	0	0	11.8577	0.431461	0.431254	-0.00164433	1	0.000866671	13	0	0.2996	-7.09124e-07
2	1	0	1	0	0	12.2072	0.427967	0.427736	-0.0136067	1	0.000864428	13	0	0.6491	-5.82008e-06
2	0	0	1	0	0	12.5567	0.424471	0.42423	-0.00918932	1	0.000861095	13	0	0.9986	-3.89838e-06
2	0	0	1	0	0	12.9063	0.420976	0.420743	-0.0101741	1	0.000856647	13	0	1.3482	-4.28067e-06
2	0	0	1	0	0	13.2557	0.417481	0.417232	-0.0215724	1	0.000851584	13	0	1.6976	-9.00068e-06
2	0	0	1	0	0	13.6053	0.413986	0.413764	-0.0154118	1	0.000845768	13	0	2.0472	-6.37685e-06
2	0	0	1	0	0	13.9548	0.41049	0.410274	-0.0170149	1	0.000839019	13	0	2.3967	-6.98079e-06
2	0	0	1	0	0	14.3043	0.406995	0.406762	-0.0267902	1	0.00083192	13	0	2.7462	-1.08972e-05
2	0	0	1	0	0	14.6538	0.403501	0.403218	-0.0200477	1	0.000824032	13	0	3.0957	-8.08358e-06
2	0	0	1	0	0	15.0033	0.400005	0.399765	-0.02292	1	0.00081552	13	0	3.4452	-9.16262e-06
2	0	0	1	0	0	15.3529	0.39651	0.396254	-0.0316472	1	0.000806735	13	0	3.7948	-1.25403e-05
2	0	0	1	0	0	15.7023	0.393015	0.392743	-0.0229835	1	0.000797321	13	0	4.1442	-9.02659e-06
2	0	0	1	0	0	16.0519	0.38952	0.389309	-0.0292537	1	0.000787308	13	0	4.4938	-1.13887e-05
2	0	0	1	0	0	16.4014	0.386024	0.385785	-0.0346308	1	0.000777129	13	0	4.8433	-1.33601e-05
2	0	0	1	0	0	16.7509	0.382529	0.382246	-0.0260978	1	0.000766273	13	0	5.1928	-9.97576e-06
2	0	0	1	0	0	17.1004	0.379035	0.378832	-0.0348981	1	0.000755002	13	0	5.5423	-1.32205e-05
2	0	0	1	0	0	17.4499	0.375539	0.375281	-0.0367341	1	0.00074353	13	0	5.8918	-1.37856e-05
2	0	0	1	0	0	17.7995	0.372044	0.371772	-0.0292696	1	0.000731381	13	0	6.2414	-1.08816e-05
2	0	0	1	0	0	18.1489	0.368549	0.368272	-0.0410099	1	0.000718964	13	0	6.5908	-1.51028e-05
2	0	0	1	0	0	18.4985	0.365054	0.364751	-0.0363972	1	0.000706277	13	0	6.9404	-1.32759e-05
2	0	0	1	0	0	18.848	0.361558	0.361287	-0.0345456	1	0.000692916	13	0	7.2899	-1.24809e-05
2	0	0	1	0	0	19.1975	0.358063	0.357804	-0.0449968	1	0.000679451	13	0	7.6394	-1.61001e-05
2	0	0	1	0	0	19.547	0.354569	0.354279	-0.0373336	1	0.000665562	13	0	7.9889	-1.32265e-05
2	0	0	1	0	0	19.8965	0.351073	0.350832	-0.0394176	1	0.00065111	13	0	8.3384	-1.38289e-05
2	1	0	1	0	1	20.1638	0.351623	0.351372	0.0390619	2	0.00065018	12	0	0.1149	1.37253e-05
2	1	0	1	0	1	20.5133	0.355117	0.354861	0.0471495	2	0.000666668	12	0	0.4644	1.67315e-05
2	1	0	1	0	1	20.8927	0.358912	0.358676	0.0442194	2	0.000685287	13	0	0.8438	1.58604e-05
2	1	0	1	0	1	21.2423	0.362407	0.362205	0.0535277	2	0.000702791	13	0	1.1934	1.9388e-05
2	1	0	1	0	1	21.5918	0.365903	0.365686	0.0510192	2	0.000720214	13	0	1.5429	1.8657e-05
2	1	0	1	0	1	21.9413	0.369398	0.369176	0.0460489	2	0.000737983	13	0	1.8924	1.70002e-05
2	1	0	1	0	1	22.2908	0.372892	0.372692	0.0561976	2	0.000755536	13	0	2.2419	2.09444e-05
2	1	0	1	0	1	22.6403	0.376388	0.376171	0.0470796	2	0.000773123	13	0	2.5914	1.771e-05
2	1	0	1	0	1	22.9899	0.379883	0.379633	0.0498439	2	0.000790919	13	0	2.941	1.89224e-05
2	1	0	1	0	1	23.3393	0.383378	0.383135	0.0549171	2	0.000808399	13	0	3.2904	2.10406e-05
2	1	0	1	0	1	23.6889	0.386873	0.386636	0.0451762	2	0.000826123	13	0	3.64	1.74668e-05
2	1	0	1	0	1	24.0384	0.390368	0.390131	0.0535632	2	0.00084384	13	0	3.9895	2.08966e-05
2	1	0	1	0	1	24.3879	0.393864	0.393658	0.0518917	2	0.000861376	13	0	4.339	2.04276e-05
2	1	0	1	0	1	24.7374	0.397358	0.397159	0.0460132	2	0.000879241	13	0	4.6885	1.82745e-05
2	1	0	1	0	1	25.0869	0.400854	0.400671	0.0566561	2	0.000896971	13	0	5.038	2.27005e-05
2	1	0	1	0	1	25.4365	0.404349	0.404128	0.0478353	2	0.000914762	13	0	5.3876	1.93316e-05
2	1	0	1	0	1	25.786	0.407845	0.407611	0.0510568	2	0.000932924	13	0	5.7371	2.08113e-05
2	1	0	1	0	1	26.1355	0.411339	0.411152	0.0557968	2	0.000950765	13	0	6.0866	2.2941e-05
2	1	0	1	0	1	26.485	0.414834	0.414657	0.0466471	2	0.000968978	13	0	6.4361	1.93426e-05
2	1	0	1	0	1	26.8345	0.41833	0.418084	0.0561756	2	0.000987267	13	0	6.7856	2.34861e-05
2	1	0	1	0	1	27.1841	0.421825	0.421582	0.0528902	2	0.00100557	13	0	7.1352	2.22975e-05
2	1	0	1	0	1	27.5335	0.42532	0.425083	0.0496533	2	0.00102432	13	0	7.4846	2.11068e-05
2	1	0	1	0	1	27.8831	0.428815	0.428633	0.0597477	2	0.00104302	13	0	7.8342	2.56098e-05
2	1	0	1	0	1	28.2326	0.432311	0.432089	0.0501749	2	0.00106203	13	0	8.1837	2.168e-05
2	1	0	1	0	1	28.5821	0.435805	0.435595	0.0570847	2	0.00108143	13	0	8.5332	2.48658e-05
2	1	0	1	0	1	28.9316	0.4393	0.439111	0.0587576	2	0.00110081	13	0	8.8827	2.58011e-05
2	1	0	1	0	1	29.2811	0.442796	0.442573	0.052342	2	0.0011208	13	0	9.2322	2.31651e-05
2	1	0	1	0	1	29.6307	0.446291	0.446109	0.0635373	2	0.00114093	13	0	9.5818	2.83446e-05
2	1	0	1	0	1	29.9776	0.449761	0.449601	0.0567486	2	0.00116124	13	0	9.9287	2.55143e-05
2	0	0	1	0	1	30.3364	0.44664	0.446378	-0.00493309	2	0.00116334	13	0	0.1298	-2.20202e-06
2	1	0	1	0	1	30.6859	0.443145	0.442932	-0.0101576	2	0.00115983	13	0	0.4793	-4.49912e-06
2	0	0	1	0	1	31.0354	0.439651	0.439436	-0.0187465	2	0.00115551	13	0	0.8288	-8.2379e-06
2	0	0	1	0	1	31.3849	0.436155	0.435904	-0.0111926	2	0.0011501	13	0	1.1783	-4.87889e-06
2	0	0	1	0	1	31.7345	0.43266	0.432415	-0.021461	2	0.00114396	13	0	1.5279	-9.28006e-06
2	0	0	1	0	1	32.084	0.429164	0.428935	-0.0211222	2	0.00113737	13	0	1.8774	-9.06004e-06
2	0	0	1	0	1	32.4335	0.425669	0.425422	-0.0172156	2	0.00112992	13	0	2.2269	-7.32391e-06
2	0	0	1	0	1	32.783	0.422174	0.42195	-0.0286336	2	0.0011222	13	0	2.5764	-1.20819e-05
2	0	0	1	0	1	33.1325	0.418679	0.418431	-0.0205924	2	0.00111394	13	0	2.9259	-8.61651e-06
2	0	0	1	0	1	33.482	0.415185	0.414976	-0.0255386	2	0.00110509	13	0	3.2754	-1.05979e-05
2	0	0	1	0	1	33.8315	0.411689	0.411478	-0.0303296	2	0.00109612	13	0	3.6249	-1.248e-05
2	0	0	1	0	1	34.1811	0.408194	0.407984	-0.0225536	2	0.00108649	13	0	3.9745	-9.20152e-06
2	0	0	1	0	1	34.5306	0.404698	0.404444	-0.0335672	2	0.00107652	13	0	4.324	-1.3576e-05
2	0	0	1	0	1	34.8801	0.401203	0.400939	-0.0282048	2	0.00106636	13	0	4.6735	-1.13084e-05
2	0	0	1	0	1	35.2296	0.397709	0.39747	-0.0288452	2	0.00105559	13	0	5.023	-1.14651e-05
2	0	0	1	0	1	35.5791	0.394213	0.39394	-0.0365977	2	0.00104481	13	0	5.3725	-1.44173e-05
2	0	0	1	0	1	35.9287	0.390718	0.390477	-0.0273562	2	0.00103347	13	0	5.7221	-1.0682e-05
2	0	0	1	0	1	36.2781	0.387223	0.386916	-0.0370544	2	0.00102185	13	0	6.0715	-1.43369e-05
2	0	0	1	0	1	36.6277	0.383728	0.383453	-0.0345894	2	0.00101008	13	0	6.4211	-1.32634e-05
2	0	0	1	0	1	36.9772	0.380232	0.38002	-0.0317986	2	0.000997716	13	0	6.7706	-1.20841e-05
2	0	0	1	0	1	37.3267	0.376737	0.376488	-0.0416904	2	0.000985294	13	0	7.1201	-1.56959e-05
2	0	0	1	0	1	37.6762	0.373243	0.372978	-0.0327126	2	0.000972467	13	0	7.4696	-1.22011e-05
2	0	0	1	0	1	38.0257	0.369747	0.369533	-0.0393905	2	0.000959191	13	0	7.8191	-1.45561e-05
2	0	0	1	0	1	38.3753	0.366252	0.365983	-0.0414917	2	0.000945886	13	0	8.1687	-1.51853e-05
2	0	0	1	0	1	38.7247	0.362757	0.362532	-0.0350714	2	0.000931959	13	0	8.5181	-1.27145e-05
2	0	0	1	0	1	39.0743	0.359262	0.359024	-0.0461348	2	0.000917888	13	0	8.8677	-1.65635e-05
2	0	0	1	0	1	39.4238	0.355766	0.355461	-0.0389178	2	0.000903507	13	0	9.2172	-1.38338e-05
2	0	0	1	0	1	39.7733	0.352271	0.352017	-0.0422196	2	0.00088858	13	0	9.5667	-1.4862e-05
2	0	0	1	0	0	40.0455	0.350474	0.350212	0.0126183	3	0.000879051	13	0	0.000000000000000E+000	4.41909e-06
2	1	0	1	0	0	40.44	0.354419	0.354194	0.0386524	3	0.000893746	13	0	0.3945	1.36905e-05
2	1	0	1	0	0	40.7895	0.357913	0.357626	0.0499689	3	0.000909467	13	0	0.744	1.78702e-05
2	1	0	1	0	0	41.139	0.361408	0.361168	0.0444244	3	0.000925287	13	0	1.0935	1.60447e-05
2	1	0	1	0	0	41.4885	0.364904	0.364638	0.0437668	3	0.000941519	13	0	1.443	1.5959e-05
2	1	0	1	0	0	41.8381	0.368399	0.368199	0.0507513	3	0.000957462	13	0	1.7926	1.86866e-05
2	1	0	1	0	0	42.1875	0.371894	0.371696	0.0409112	3	0.000973606	13	0	2.142	1.52065e-05
2	1	0	1	0	0	42.5371	0.375389	0.375131	0.0503219	3	0.000989667	13	0	2.4916	1.88773e-05
2	1	0	1	0	0	42.8866	0.378885	0.378632	0.0432009	3	0.00100558	13	0	2.8411	1.63572e-05
2	1	0	1	0	0	43.2361	0.38238	0.382145	0.0453449	3	0.00102169	13	0	3.1906	1.73283e-05
2	1	0	1	0	0	43.5856	0.385874	0.385673	0.0489647	3	0.00103744	13	0	3.5401	1.88844e-05
2	1	0	1	0	0	43.9351	0.38937	0.389128	0.0400218	3	0.00105343	13	0	3.8896	1.55736e-05
2	1	0	1	0	0	44.2847	0.392865	0.39262	0.0503101	3	0.00106928	13	0	4.2392	1.97528e-05
2	1	0	1	0	0	44.6342	0.396361	0.396155	0.0440208	3	0.001085	13	0	4.5887	1.7439e-05
2	1	0	1	0	0	44.9837	0.399855	0.399644	0.0418972	3	0.00110096	13	0	4.9382	1.6744e-05
2	1	0	1	0	0	45.3332	0.40335	0.403104	0.0506295	3	0.00111665	13	0	5.2877	2.0409e-05
2	1	0	1	0	0	45.6827	0.406846	0.40667	0.0427002	3	0.00113248	13	0	5.6372	1.73649e-05
2	1	0	1	0	0	46.0323	0.410341	0.41017	0.0430291	3	0.00114846	13	0	5.9868	1.76492e-05
2	1	0	1	0	0	46.3817	0.413836	0.413629	0.0509484	3	0.00116422	13	0	6.3362	2.10737e-05
2	1	0	1	0	0	46.7313	0.417331	0.417129	0.0419474	3	0.00118012	13	0	6.6858	1.74975e-05
2	1	0	1	0	0	47.0808	0.420827	0.420598	0.0443022	3	0.00119626	13	0	7.0353	1.86334e-05
2	1	0	1	0	0	47.4303	0.424321	0.424047	0.0513841	3	0.00121222	13	0	7.3848	2.17893e-05
2	1	0	1	0	0	47.7798	0.427816	0.427565	0.0430152	3	0.00122841	13	0	7.7343	1.83918e-05
2	1	0	1	0	0	48.1293	0.431312	0.431075	0.0451798	3	0.00124486	13	0	8.0838	1.94759e-05
2	1	0	1	0	0	48.4789	0.434807	0.434559	0.0528278	3	0.00126121	13	0	8.4334	2.29568e-05
2	1	0	1	0	0	48.8283	0.438302	0.438089	0.04397	3	0.00127786	13	0	8.7828	1.92628e-05
2	1	0	1	0	0	49.1779	0.441797	0.441537	0.0471606	3	0.00129484	13	0	9.1324	2.08232e-05
2	1	0	1	0	0	49.5274	0.445293	0.445093	0.0548386	3	0.00131179	13	0	9.4819	2.44083e-05
2	1	0	1	0	0	49.8769	0.448787	0.448599	0.0457985	3	0.0013291	13	0	9.8314	2.05451e-05
2	0	0	1	0	0	50.1732	0.448239	0.447983	-0.00730764	3	0.00133507	13	0	0.0499	-3.2737e-06
2	0	0	1	0	0	50.5227	0.444743	0.444504	-0.0161584	3	0.00132998	13	0	0.3994	-7.18247e-06
2	0	0	1	0	0	50.8723	0.441248	0.441004	-0.0230122	3	0.0013241	13	0	0.749	-1.01485e-05
2	0	0	1	0	0	51.2217	0.437753	0.437453	-0.0148959	3	0.0013173	13	0	1.0984	-6.51627e-06
2	0	0	1	0	0	51.5713	0.434258	0.434045	-0.0231958	3	0.00130986	13	0	1.448	-1.0068e-05
2	0	0	1	0	0	51.9208	0.430762	0.430524	-0.0267555	3	0.00130216	13	0	1.7975	-1.15189e-05
2	0	0	1	0	0	52.2703	0.427267	0.427017	-0.0189598	3	0.00129375	13	0	2.147	-8.09618e-06
2	0	0	1	0	0	52.6198	0.423773	0.423551	-0.0282597	3	0.00128499	13	0	2.4965	-1.19694e-05
2	0	0	1	0	0	52.9693	0.420277	0.420031	-0.0289419	3	0.00127603	13	0	2.846	-1.21565e-05
2	0	0	1	0	0	53.3189	0.416782	0.416579	-0.0219385	3	0.00126645	13	0	3.1956	-9.13913e-06
2	0	0	1	0	0	53.6684	0.413286	0.413085	-0.0333229	3	0.00125667	13	0	3.5451	-1.37652e-05
2	0	0	1	0	0	54.0179	0.409791	0.40957	-0.0292008	3	0.00124669	13	0	3.8946	-1.19598e-05
2	0	0	1	0	0	54.3674	0.406296	0.406064	-0.0258553	3	0.00123611	13	0	4.2441	-1.04989e-05
2	0	0	1	0	0	54.7169	0.402801	0.402533	-0.0366024	3	0.0012254	13	0	4.5936	-1.47337e-05
2	0	0	1	0	0	55.0665	0.399306	0.399026	-0.0294156	3	0.00121446	13	0	4.9432	-1.17376e-05
2	0	0	1	0	0	55.4159	0.395811	0.395559	-0.0300438	3	0.00120303	13	0	5.2926	-1.18841e-05
2	0	0	1	0	0	55.7655	0.392316	0.392013	-0.0394145	3	0.00119159	13	0	5.6422	-1.5451e-05
2	0	0	1	0	0	56.115	0.38882	0.388549	-0.0296449	3	0.00117976	13	0	5.9917	-1.15185e-05
2	0	0	1	0	0	56.4645	0.385325	0.385052	-0.0351203	3	0.00116751	13	0	6.3412	-1.35231e-05
2	0	0	1	0	0	56.814	0.381831	0.381524	-0.0405679	3	0.00115527	13	0	6.6907	-1.54776e-05
2	0	0	1	0	0	57.1635	0.378335	0.378102	-0.0310362	3	0.00114253	13	0	7.0402	-1.17349e-05
2	0	0	1	0	0	57.5131	0.37484	0.374569	-0.0401224	3	0.0011295	13	0	7.3898	-1.50286e-05
2	0	0	1	0	0	57.8625	0.371345	0.371089	-0.0405841	3	0.00111643	13	0	7.7392	-1.50603e-05
2	0	0	1	0	0	58.2121	0.36785	0.367577	-0.0335174	3	0.00110275	13	0	8.0888	-1.23202e-05
2	0	0	1	0	0	58.5616	0.364354	0.364071	-0.0451448	3	0.00108895	13	0	8.4383	-1.64359e-05
2	0	0	1	0	0	58.9111	0.360859	0.360574	-0.0395946	3	0.00107492	13	0	8.7878	-1.42768e-05
2	0	0	1	0	0	59.2606	0.357365	0.357095	-0.0383573	3	0.00106033	13	0	9.1373	-1.36972e-05
2	0	0	1	0	0	59.6101	0.353869	0.353584	-0.048636	3	0.00104568	13	0	9.4868	-1.71969e-05
2	0	0	1	0	0	59.9597	0.350374	0.350077	-0.0390386	3	0.00103062	13	0	9.8364	-1.36665e-05
2	1	0	1	0	1	60.2219	0.352271	0.352035	0.0396146	4	0.00103352	12	0	0.1298	1.39457e-05
2	1	0	1	0	1	60.5864	0.355917	0.355672	0.0375056	4	0.00104863	13	0	0.4943	1.33397e-05
2	1	0	1	0	1	60.9359	0.359411	0.359214	0.0478872	4	0.00106383	13	0	0.8438	1.72018e-05
2	1	0	1	0	1	61.2854	0.362906	0.362678	0.0441939	4	0.00107903	13	0	1.1933	1.60281e-05
2	1	0	1	0	1	61.6349	0.366402	0.366164	0.0399183	4	0.00109456	13	0	1.5428	1.46167e-05
2	1	0	1	0	1	61.9845	0.369897	0.369697	0.0491015	4	0.00110984	13	0	1.8924	1.81527e-05
2	1	0	1	0	1	62.3339	0.373392	0.373204	0.0408557	4	0.00112511	13	0	2.2418	1.52475e-05
2	1	0	1	0	1	62.6835	0.376887	0.376639	0.0425454	4	0.00114051	13	0	2.5914	1.60243e-05
2	1	0	1	0	1	63.033	0.380383	0.380145	0.0481849	4	0.00115556	13	0	2.9409	1.83172e-05
2	1	0	1	0	1	63.3825	0.383877	0.383618	0.0377551	4	0.00117076	13	0	3.2904	1.44835e-05
2	1	0	1	0	1	63.732	0.387372	0.387154	0.0458724	4	0.00118589	13	0	3.6399	1.77597e-05
2	1	0	1	0	1	64.0815	0.390868	0.390673	0.0444599	4	0.00120074	13	0	3.9894	1.73693e-05
2	1	0	1	0	1	64.4311	0.394363	0.394124	0.038063	4	0.00121585	13	0	4.339	1.50015e-05
2	1	0	1	0	1	64.7805	0.397858	0.397621	0.0480132	4	0.00123072	13	0	4.6884	1.90911e-05
2	1	0	1	0	1	65.1301	0.401353	0.401161	0.0398556	4	0.00124554	13	0	5.038	1.59885e-05
2	1	0	1	0	1	65.4796	0.404849	0.404593	0.0411476	4	0.00126054	13	0	5.3875	1.6648e-05
2	1	0	1	0	1	65.8291	0.408344	0.408131	0.0469661	4	0.00127531	13	0	5.737	1.91683e-05
2	1	0	1	0	1	66.1786	0.411838	0.411642	0.0371912	4	0.00129021	13	0	6.0865	1.53095e-05
2	1	0	1	0	1	66.5281	0.415334	0.415131	0.0457191	4	0.00130509	13	0	6.436	1.89794e-05
2	1	0	1	0	1	66.8777	0.418829	0.418612	0.0434454	4	0.00131981	13	0	6.7856	1.81868e-05
2	1	0	1	0	1	67.2272	0.422325	0.422132	0.0382778	4	0.00133486	13	0	7.1351	1.61583e-05
2	1	0	1	0	1	67.5767	0.425819	0.425559	0.0484137	4	0.00134975	13	0	7.4846	2.06029e-05
2	1	0	1	0	1	67.9262	0.429314	0.429114	0.0397611	4	0.00136471	13	0	7.8341	1.7062e-05
2	1	0	1	0	1	68.2757	0.43281	0.432625	0.0429214	4	0.00137998	13	0	8.1836	1.85689e-05
2	1	0	1	0	1	68.6253	0.436305	0.4361	0.047727	4	0.00139504	13	0	8.5332	2.08137e-05
2	1	0	1	0	1	68.9747	0.4398	0.439614	0.0390696	4	0.00141049	13	0	8.8826	1.71755e-05
2	1	0	1	0	1	69.3243	0.443295	0.443081	0.0483059	4	0.00142604	13	0	9.2322	2.14034e-05
2	1	0	1	0	1	69.6738	0.446791	0.446573	0.04533	4	0.00144162	13	0	9.5817	2.02432e-05
2	1	0	0	0	1	69.9926	0.450011	0.449945	0.0517269	4	0.00145635	13	0	9.9005	2.32743e-05
2	0	0	1	0	1	70.3795	0.446141	0.445896	-0.0139946	4	0.0014531	13	0	0.2296	-6.24015e-06
2	0	0	1	0	1	70.7291	0.442646	0.442368	-0.0258377	4	0.00144658	13	0	0.5792	-1.14298e-05
2	0	0	1	0	1	71.0785	0.439151	0.438883	-0.0170272	4	0.00143925	13	0	0.9286	-7.47297e-06
2	0	0	1	0	1	71.4281	0.435656	0.435407	-0.0249515	4	0.00143126	13	0	1.2782	-1.0864e-05
2	0	0	1	0	1	71.7776	0.43216	0.431937	-0.0270326	4	0.00142311	13	0	1.6277	-1.16764e-05
2	0	0	1	0	1	72.1271	0.428665	0.428429	-0.0204662	4	0.00141423	13	0	1.9772	-8.76833e-06
2	0	0	1	0	1	72.4766	0.425171	0.424937	-0.0319816	4	0.00140518	13	0	2.3267	-1.35902e-05
2	0	0	1	0	1	72.8261	0.421675	0.421425	-0.0241775	4	0.0013958	13	0	2.6762	-1.0189e-05
2	0	0	1	0	1	73.1757	0.41818	0.417937	-0.0276511	4	0.00138591	13	0	3.0258	-1.15564e-05
2	0	0	1	0	1	73.5251	0.414685	0.414418	-0.0334644	4	0.00137604	13	0	3.3752	-1.38682e-05
2	0	0	1	0	1	73.8747	0.41119	0.410985	-0.0240578	4	0.00136562	13	0	3.7248	-9.88738e-06
2	0	0	1	0	1	74.2242	0.407694	0.407477	-0.0356457	4	0.00135502	13	0	4.0743	-1.45248e-05
2	0	0	1	0	1	74.5737	0.404199	0.403905	-0.0299725	4	0.00134419	13	0	4.4238	-1.21061e-05
2	0	0	1	0	1	74.9232	0.400705	0.400473	-0.0299001	4	0.0013329	13	0	4.7733	-1.19742e-05
2	0	0	1	0	1	75.2727	0.397209	0.396959	-0.0380041	4	0.00132166	13	0	5.1228	-1.50861e-05
2	0	0	1	0	1	75.6223	0.393714	0.393476	-0.0283116	4	0.00130998	13	0	5.4724	-1.11399e-05
2	0	0	1	0	1	75.9718	0.390218	0.389971	-0.0374146	4	0.00129802	13	0	5.8219	-1.45906e-05
2	0	0	1	0	1	76.3213	0.386724	0.386438	-0.0357901	4	0.00128603	13	0	6.1714	-1.38306e-05
2	0	0	1	0	1	76.6708	0.383229	0.382962	-0.0317267	4	0.00127346	13	0	6.5209	-1.21501e-05
2	0	0	1	0	1	77.0203	0.379733	0.379466	-0.0422632	4	0.00126092	13	0	6.8704	-1.60375e-05
2	0	0	1	0	1	77.3699	0.376238	0.375974	-0.033152	4	0.001248	13	0	7.22	-1.24643e-05
2	0	0	1	0	1	77.7193	0.372743	0.372498	-0.038929	4	0.00123469	13	0	7.5694	-1.4501e-05
2	0	0	1	0	1	78.0689	0.369248	0.368996	-0.0421347	4	0.00122138	13	0	7.919	-1.55475e-05
2	0	0	1	0	1	78.4184	0.365752	0.365508	-0.0343864	4	0.00120749	13	0	8.2685	-1.25685e-05
2	0	0	1	0	1	78.7679	0.362257	0.361984	-0.0456693	4	0.00119347	13	0	8.618	-1.65315e-05
2	0	0	1	0	1	79.1174	0.358762	0.35842	-0.0391272	4	0.00117921	13	0	8.9675	-1.4024e-05
2	0	0	1	0	1	79.4669	0.355267	0.355044	-0.0412395	4	0.0011644	13	0	9.317	-1.46418e-05
2	0	0	1	0	1	79.8165	0.351772	0.35151	-0.047436	4	0.00114961	13	0	9.6666	-1.66743e-05
2	1	0	1	0	0	80.0887	0.350973	0.350732	0.0296621	5	0.00114254	13	0	0.000000000000000E+000	1.04034e-05
2	1	0	1	0	0	80.4831	0.354918	0.354665	0.046046	5	0.00115724	13	0	0.3944	1.63309e-05
2	1	0	1	0	0	80.8327	0.358413	0.358168	0.0411228	5	0.00117182	13	0	0.744	1.47289e-05
2	1	0	1	0	0	81.1821	0.361908	0.361645	0.040221	5	0.00118689	13	0	1.0934	1.45457e-05
2	1	0	1	0	0	81.5317	0.365403	0.365193	0.0477567	5	0.00120167	13	0	1.443	1.74404e-05
2	1	0	1	0	0	81.8812	0.368899	0.368688	0.0371623	5	0.00121666	13	0	1.7925	1.37013e-05
2	1	0	1	0	0	82.2307	0.372393	0.372193	0.0461611	5	0.00123157	13	0	2.142	1.71808e-05
2	1	0	1	0	0	82.5802	0.375888	0.375663	0.0423082	5	0.00124625	13	0	2.4915	1.58936e-05
2	1	0	1	0	0	82.9297	0.379384	0.379171	0.038589	5	0.00126114	13	0	2.841	1.46318e-05
2	1	0	1	0	0	83.2793	0.382879	0.382671	0.0474379	5	0.0012757	13	0	3.1906	1.81531e-05
2	1	0	1	0	0	83.6287	0.386374	0.386156	0.0367379	5	0.00129028	13	0	3.54	1.41865e-05
2	1	0	1	0	0	83.9783	0.389869	0.389621	0.0433686	5	0.0013049	13	0	3.8896	1.68973e-05
2	1	0	1	0	0	84.3278	0.393365	0.393152	0.043285	5	0.00131917	13	0	4.2391	1.70176e-05
2	1	0	1	0	0	84.6773	0.396859	0.396605	0.0363357	5	0.0013337	13	0	4.5886	1.44109e-05
2	1	0	1	0	0	85.0268	0.400354	0.400144	0.0464345	5	0.00134796	13	0	4.9381	1.85805e-05
2	1	0	1	0	0	85.3763	0.40385	0.403633	0.0368745	5	0.00136221	13	0	5.2876	1.48838e-05
2	1	0	1	0	0	85.7259	0.407345	0.407095	0.0420175	5	0.00137666	13	0	5.6372	1.71051e-05
2	1	0	1	0	0	86.0753	0.41084	0.410672	0.0428912	5	0.0013907	13	0	5.9866	1.76142e-05
2	1	0	1	0	0	86.4249	0.414335	0.414151	0.0360312	5	0.00140508	13	0	6.3362	1.49223e-05
2	1	0	1	0	0	86.7744	0.417831	0.417599	0.0459504	5	0.0014192	13	0	6.6857	1.91888e-05
2	1	0	1	0	0	87.1239	0.421326	0.421146	0.0370124	5	0.00143339	13	0	7.0352	1.55876e-05
2	1	0	1	0	0	87.4734	0.42482	0.424621	0.0418077	5	0.00144774	13	0	7.3847	1.77524e-05
2	1	0	1	0	0	87.8229	0.428316	0.428158	0.0432781	5	0.00146186	13	0	7.7342	1.85299e-05
2	1	0	1	0	0	88.1725	0.431811	0.431591	0.0364342	5	0.00147635	13	0	8.0838	1.57247e-05
2	1	0	1	0	0	88.522	0.435307	0.435119	0.0468397	5	0.00149071	13	0	8.4333	2.03808e-05
2	1	0	1	0	0	88.8715	0.438801	0.438607	0.0375376	5	0.0015052	13	0	8.7828	1.64642e-05
2	1	0	1	0	0	89.221	0.442296	0.442062	0.043418	5	0.00151994	13	0	9.1323	1.91934e-05
2	1	0	1	0	0	89.5705	0.445792	0.445639	0.0444526	5	0.00153454	13	0	9.4818	1.98098e-05
2	1	0	1	0	0	89.9201	0.449287	0.449124	0.0384181	5	0.00154959	13	0	9.8314	1.72545e-05
2	0	0	1	0	0	90.2763	0.44714	0.44688	-0.0138225	5	0.00154841	13	0	0.1948	-6.17701e-06
2	0	0	1	0	0	90.6258	0.443644	0.443394	-0.0266708	5	0.00154152	13	0	0.5443	-1.18257e-05
2	0	0	1	0	0	90.9753	0.440149	0.439924	-0.0187322	5	0.00153389	13	0	0.8938	-8.24074e-06
2	0	0	1	0	0	91.3248	0.436654	0.436434	-0.0250519	5	0.00152559	13	0	1.2433	-1.09335e-05
2	0	0	1	0	0	91.6743	0.433159	0.432896	-0.0271604	5	0.00151716	13	0	1.5928	-1.17576e-05
2	0	0	1	0	0	92.0239	0.429664	0.429402	-0.0217661	5	0.00150803	13	0	1.9424	-9.3464e-06
2	0	0	1	0	0	92.3733	0.426169	0.425897	-0.0324532	5	0.00149882	13	0	2.2918	-1.38217e-05
2	0	0	1	0	0	92.7229	0.422674	0.422398	-0.0233991	5	0.00148921	13	0	2.6414	-9.88374e-06
2	0	0	1	0	0	93.0724	0.419178	0.41891	-0.0309324	5	0.00147923	13	0	2.9909	-1.29579e-05
2	0	0	1	0	0	93.4219	0.415683	0.415424	-0.0304287	5	0.00146921	13	0	3.3404	-1.26408e-05
2	0	0	1	0	0	93.7714	0.412189	0.411958	-0.0264913	5	0.00145863	13	0	3.6899	-1.09133e-05
2	0	0	1	0	0	94.1209	0.408693	0.408476	-0.0362282	5	0.00144807	13	0	4.0394	-1.47983e-05
2	0	0	1	0	0	94.4705	0.405198	0.404964	-0.0265812	5	0.00143704	13	0	4.389	-1.07645e-05
2	0	0	1	0	0	94.8199	0.401703	0.401479	-0.0357555	5	0.00142581	13	0	4.7384	-1.43551e-05
2	0	0	1	0	0	95.1695	0.398208	0.397944	-0.0324817	5	0.00141455	13	0	5.088	-1.29259e-05
2	0	0	1	0	0	95.519	0.394712	0.394465	-0.0311042	5	0.00140273	13	0	5.4375	-1.22695e-05
2	0	0	1	0	0	95.8685	0.391217	0.390897	-0.0393925	5	0.00139098	13	0	5.787	-1.53984e-05
2	0	0	1	0	0	96.218	0.387723	0.38741	-0.029405	5	0.00137881	13	0	6.1365	-1.13918e-05
2	0	0	1	0	0	96.5675	0.384227	0.383961	-0.040031	5	0.00136639	13	0	6.486	-1.53703e-05
2	0	0	1	0	0	96.9171	0.380732	0.380451	-0.0350465	5	0.00135393	13	0	6.8356	-1.33335e-05
2	0	0	1	0	0	97.2666	0.377236	0.376983	-0.0351633	5	0.00134087	13	0	7.1851	-1.3256e-05
2	0	0	1	0	0	97.6161	0.373741	0.373513	-0.0427567	5	0.0013279	13	0	7.5346	-1.59702e-05
2	0	0	1	0	0	97.9656	0.370246	0.37002	-0.0330449	5	0.00131444	13	0	7.8841	-1.22273e-05
2	0	0	1	0	0	98.3151	0.366751	0.366447	-0.0433305	5	0.00130073	13	0	8.2336	-1.58784e-05
2	0	0	1	0	0	98.6647	0.363256	0.362968	-0.0398855	5	0.00128693	13	0	8.5832	-1.44772e-05
2	0	0	1	0	0	99.0141	0.359761	0.359535	-0.038046	5	0.00127253	13	0	8.9326	-1.36789e-05
2	0	0	1	0	0	99.3637	0.356266	0.355992	-0.0475185	5	0.00125814	13	0	9.2822	-1.69162e-05
2	0	0	1	0	0	99.7132	0.35277	0.352487	-0.0373324	5	0.00124326	13	0	9.6317	-1.31592e-05
2	0	0	1	0	1	99.9928	0.35005	0.349876	-0.0438752	6	0.00123133	13	0	9.9113	-1.53509e-05
2	1	0	1	0	1	100.38	0.353919	0.353726	0.0398055	6	0.00124267	13	0	0.2946	1.40802e-05
2	1	0	1	0	1	100.729	0.357414	0.357144	0.0385741	6	0.00125716	13	0	0.644	1.37765e-05
2	1	0	1	0	1	101.079	0.360909	0.360668	0.0469167	6	0.00127158	13	0	0.9936	1.69214e-05
2	1	0	1	0	1	101.428	0.364405	0.364132	0.036159	6	0.00128626	13	0	1.3431	1.31667e-05
2	1	0	1	0	1	101.778	0.3679	0.367687	0.0459252	6	0.00130092	13	0	1.6926	1.68861e-05
2	1	0	1	0	1	102.127	0.371394	0.371173	0.0406258	6	0.00131536	13	0	2.0421	1.50792e-05
2	1	0	1	0	1	102.477	0.37489	0.374643	0.0389554	6	0.00133003	13	0	2.3916	1.45944e-05
2	1	0	1	0	1	102.826	0.378385	0.378144	0.0461375	6	0.00134431	13	0	2.7412	1.74466e-05
2	1	0	1	0	1	103.176	0.381881	0.381678	0.0351419	6	0.00135872	13	0	3.0907	1.34129e-05
2	1	0	1	0	1	103.525	0.385375	0.385187	0.04575	6	0.00137298	13	0	3.4402	1.76223e-05
2	1	0	1	0	1	103.875	0.38887	0.388636	0.0381251	6	0.00138705	13	0	3.7897	1.48168e-05
2	1	0	1	0	1	104.224	0.392366	0.392114	0.0392229	6	0.00140131	13	0	4.1392	1.53798e-05
2	1	0	1	0	1	104.574	0.395861	0.395631	0.0441341	6	0.00141517	13	0	4.4888	1.74608e-05
2	1	0	1	0	1	104.923	0.399356	0.399078	0.0344277	6	0.00142925	13	0	4.8382	1.37393e-05
2	1	0	1	0	1	105.273	0.402851	0.402648	0.044872	6	0.00144316	13	0	5.1878	1.80676e-05
2	1	0	1	0	1	105.623	0.406347	0.406127	0.0377214	6	0.00145696	13	0	5.5373	1.53197e-05
2	1	0	1	0	1	105.972	0.409841	0.409647	0.0394798	6	0.00147097	13	0	5.8868	1.61728e-05
2	1	0	1	0	1	106.322	0.413336	0.413108	0.0423576	6	0.00148457	13	0	6.2363	1.74983e-05
2	1	0	1	0	1	106.671	0.416832	0.416645	0.0343578	6	0.00149847	13	0	6.5858	1.4315e-05
2	1	0	1	0	1	107.021	0.420327	0.420079	0.0446198	6	0.00151216	13	0	6.9354	1.87438e-05
2	1	0	1	0	1	107.37	0.423822	0.423605	0.0356534	6	0.00152588	13	0	7.2848	1.5103e-05
2	1	0	1	0	1	107.72	0.427317	0.427058	0.0409839	6	0.00153978	13	0	7.6344	1.75025e-05
2	1	0	1	0	1	108.069	0.430813	0.430627	0.0411771	6	0.00155343	13	0	7.9839	1.7732e-05
2	1	0	1	0	1	108.419	0.434308	0.434071	0.0358831	6	0.00156746	13	0	8.3334	1.55758e-05
2	1	0	1	0	1	108.768	0.437802	0.437616	0.0451585	6	0.00158126	13	0	8.6829	1.97621e-05
2	1	0	1	0	1	109.118	0.441298	0.441093	0.0351354	6	0.0015953	13	0	9.0324	1.5498e-05
2	1	0	1	0	1	109.467	0.444793	0.444576	0.0440547	6	0.00160945	13	0	9.382	1.95857e-05
2	1	0	1	0	1	109.817	0.448289	0.448093	0.0398932	6	0.00162357	13	0	9.7315	1.78759e-05
2	0	0	1	0	1	110.143	0.448438	0.448215	-0.0214714	6	0.00162946	12	0	0.065	-9.62379e-06
2	0	0	1	0	1	110.522	0.444643	0.44443	-0.0204042	6	0.00162182	13	0	0.4444	-9.06824e-06
2	0	0	1	0	1	110.872	0.441148	0.440863	-0.0267852	6	0.00161416	13	0	0.794	-1.18086e-05
2	0	0	1	0	1	111.221	0.437653	0.437466	-0.0193356	6	0.00160572	13	0	1.1434	-8.45868e-06
2	0	0	1	0	1	111.571	0.434158	0.433921	-0.0308754	6	0.00159703	13	0	1.493	-1.33975e-05
2	0	0	1	0	1	111.921	0.430662	0.430406	-0.0223557	6	0.00158799	13	0	1.8425	-9.62202e-06
2	0	0	1	0	1	112.27	0.427167	0.426908	-0.0291275	6	0.00157846	13	0	2.192	-1.24348e-05
2	0	0	1	0	1	112.62	0.423673	0.423385	-0.0290634	6	0.00156895	13	0	2.5415	-1.2305e-05
2	0	0	1	0	1	112.969	0.420177	0.419926	-0.0254743	6	0.00155882	13	0	2.891	-1.06973e-05
2	0	0	1	0	1	113.319	0.416682	0.416458	-0.0345437	6	0.00154873	13	0	3.2406	-1.4386e-05
2	0	0	1	0	1	113.668	0.413187	0.412934	-0.0252219	6	0.00153824	13	0	3.59	-1.0415e-05
2	0	0	1	0	1	114.018	0.409692	0.409489	-0.0346891	6	0.00152749	13	0	3.9396	-1.42048e-05
2	0	0	1	0	1	114.367	0.406196	0.405944	-0.0304909	6	0.00151669	13	0	4.2891	-1.23776e-05
2	0	0	1	0	1	114.717	0.402701	0.402495	-0.030807	6	0.00150529	13	0	4.6386	-1.23997e-05
2	0	0	1	0	1	115.066	0.399207	0.398916	-0.0367442	6	0.00149408	13	0	4.9881	-1.46579e-05
2	0	0	1	0	1	115.416	0.395711	0.395456	-0.0283321	6	0.00148235	13	0	5.3376	-1.12041e-05
2	0	0	1	0	1	115.765	0.392216	0.391952	-0.0390738	6	0.00147054	13	0	5.6872	-1.53151e-05
2	0	0	1	0	1	116.115	0.388721	0.388409	-0.0335246	6	0.00145857	13	0	6.0366	-1.30212e-05
2	0	0	1	0	1	116.464	0.385226	0.384972	-0.0326972	6	0.00144611	13	0	6.3862	-1.25875e-05
2	0	0	1	0	1	116.814	0.38173	0.381427	-0.0419838	6	0.00143368	13	0	6.7357	-1.60137e-05
2	0	0	1	0	1	117.163	0.378235	0.377997	-0.0319072	6	0.00142088	13	0	7.0852	-1.20608e-05
2	0	0	1	0	1	117.513	0.374741	0.374487	-0.0391835	6	0.00140774	13	0	7.4347	-1.46737e-05
2	0	0	1	0	1	117.862	0.371245	0.371021	-0.0413708	6	0.0013946	13	0	7.7842	-1.53494e-05
2	0	0	1	0	1	118.212	0.36775	0.367474	-0.0337303	6	0.00138091	13	0	8.1338	-1.2395e-05
2	0	0	1	0	1	118.561	0.364254	0.363964	-0.0452846	6	0.00136709	13	0	8.4833	-1.64819e-05
2	0	0	1	0	1	118.911	0.36076	0.360515	-0.0384033	6	0.00135309	13	0	8.8328	-1.38449e-05
2	0	0	1	0	1	119.26	0.357265	0.356995	-0.0398396	6	0.00133852	13	0	9.1823	-1.42225e-05
2	0	0	1	0	1	119.61	0.353769	0.353511	-0.0474179	6	0.00132398	13	0	9.5318	-1.67627e-05
2	0	0	1	0	1	119.959	0.350274	0.350018	-0.0377629	6	0.00130891	13	0	9.8814	-1.32177e-05
2	1	0	1	0	0	120.277	0.352921	0.352699	0.0428337	7	0.00131425	13	0	0.1947	1.51074e-05
2	1	0	1	0	0	120.626	0.356416	0.35615	0.0406774	7	0.0013281	13	0	0.5442	1.44872e-05
2	1	0	1	0	0	120.976	0.35991	0.359628	0.0377206	7	0.00134258	13	0	0.8937	1.35654e-05
2	1	0	1	0	0	121.325	0.363406	0.363167	0.0464994	7	0.00135684	13	0	1.2432	1.6887e-05
2	1	0	1	0	0	121.675	0.366901	0.366709	0.0361839	7	0.00137127	13	0	1.5928	1.32689e-05
2	1	0	1	0	0	122.024	0.370397	0.370141	0.043956	7	0.0013857	13	0	1.9423	1.62699e-05
2	1	0	1	0	0	122.374	0.373891	0.373684	0.0413639	7	0.00139982	13	0	2.2918	1.54571e-05
2	1	0	1	0	0	122.723	0.377386	0.377116	0.0365881	7	0.00141419	13	0	2.6413	1.3798e-05
2	1	0	1	0	0	123.073	0.380882	0.380619	0.0459399	7	0.00142819	13	0	2.9908	1.74856e-05
2	1	0	1	0	0	123.422	0.384376	0.384136	0.0347626	7	0.00144222	13	0	3.3403	1.33536e-05
2	1	0	1	0	0	123.772	0.387872	0.387637	0.0426207	7	0.00145624	13	0	3.6898	1.65214e-05
2	1	0	1	0	0	124.121	0.391367	0.391146	0.0401418	7	0.00146992	13	0	4.0394	1.57013e-05
2	1	0	1	0	0	124.471	0.394863	0.394631	0.0355476	7	0.00148386	13	0	4.3889	1.40282e-05
2	1	0	1	0	0	124.82	0.398357	0.398146	0.0446858	7	0.00149745	13	0	4.7384	1.77915e-05
2	1	0	1	0	0	125.17	0.401852	0.401642	0.0335802	7	0.00151108	13	0	5.0879	1.34872e-05
2	1	0	1	0	0	125.519	0.405348	0.405126	0.0417553	7	0.00152474	13	0	5.4374	1.69162e-05
2	1	0	1	0	0	125.869	0.408843	0.408686	0.0391712	7	0.00153817	13	0	5.787	1.60087e-05
2	1	0	1	0	0	126.218	0.412338	0.412157	0.0347237	7	0.00155181	13	0	6.1364	1.43116e-05
2	1	0	1	0	0	126.568	0.415833	0.415647	0.0437955	7	0.00156513	13	0	6.486	1.82035e-05
2	1	0	1	0	0	126.917	0.419329	0.419102	0.0331746	7	0.00157857	13	0	6.8355	1.39035e-05
2	1	0	1	0	0	127.267	0.422823	0.422581	0.0414693	7	0.00159206	13	0	7.185	1.75242e-05
2	1	0	1	0	0	127.616	0.426318	0.426134	0.0384757	7	0.00160531	13	0	7.5345	1.63958e-05
2	1	0	1	0	0	127.966	0.429814	0.429592	0.0353222	7	0.00161892	13	0	7.884	1.51741e-05
2	1	0	1	0	0	128.315	0.433309	0.433086	0.0437222	7	0.00163225	13	0	8.2336	1.89355e-05
2	1	0	1	0	0	128.665	0.436804	0.436595	0.0334212	7	0.00164582	13	0	8.583	1.45915e-05
2	1	0	1	0	0	129.014	0.440299	0.440054	0.0426971	7	0.00165943	13	0	8.9326	1.8789e-05
2	1	0	1	0	0	129.364	0.443795	0.443595	0.0383377	7	0.00167294	13	0	9.2821	1.70064e-05
2	1	0	1	0	0	129.713	0.44729	0.447057	0.0373155	7	0.00168684	13	0	9.6316	1.66821e-05
2	1	0	1	0	0	130.01	0.449737	0.449525	0.00781809	7	0.00169765	13	0	9.9279	3.51443e-06
2	0	0	1	0	0	130.419	0.445642	0.445366	-0.025446	7	0.00169042	13	0	0.3446	-1.13328e-05
2	0	0	1	0	0	130.769	0.442146	0.441947	-0.0176909	7	0.00168244	13	0	0.6941	-7.81846e-06
2	0	0	1	0	0	131.118	0.438652	0.438389	-0.0301969	7	0.00167406	13	0	1.0436	-1.3238e-05
2	0	0	1	0	0	131.468	0.435156	0.434866	-0.0217667	7	0.00166534	13	0	1.3931	-9.46562e-06
2	0	0	1	0	0	131.817	0.431661	0.431448	-0.0276347	7	0.00165607	13	0	1.7426	-1.1923e-05
2	0	0	1	0	0	132.167	0.428166	0.427869	-0.0292825	7	0.0016468	13	0	2.0922	-1.25291e-05
2	0	0	1	0	0	132.516	0.424671	0.424465	-0.0240615	7	0.00163693	13	0	2.4416	-1.02133e-05
2	0	0	1	0	0	132.866	0.421176	0.420918	-0.0345814	7	0.00162705	13	0	2.7912	-1.45559e-05
2	0	0	1	0	0	133.215	0.41768	0.41744	-0.0246798	7	0.00161683	13	0	3.1407	-1.03023e-05
2	0	0	1	0	0	133.565	0.414185	0.413972	-0.0320992	7	0.00160627	13	0	3.4902	-1.32882e-05
2	0	0	1	0	0	133.914	0.41069	0.41047	-0.03296	7	0.00159576	13	0	3.8397	-1.35291e-05
2	0	0	1	0	0	134.264	0.407195	0.40696	-0.0268467	7	0.00158471	13	0	4.1892	-1.09255e-05
2	0	0	1	0	0	134.613	0.4037	0.403429	-0.0373223	7	0.00157356	13	0	4.5388	-1.50569e-05
2	0	0	1	0	0	134.963	0.400205	0.399983	-0.0298856	7	0.00156229	13	0	4.8882	-1.19537e-05
2	0	0	1	0	0	135.312	0.39671	0.396482	-0.0330679	7	0.00155057	13	0	5.2378	-1.31108e-05
2	0	0	1	0	0	135.662	0.393214	0.392933	-0.0378749	7	0.00153897	13	0	5.5873	-1.48823e-05
2	0	0	1	0	0	136.011	0.389719	0.389408	-0.0291798	7	0.00152684	13	0	5.9368	-1.13628e-05
2	0	0	1	0	0	136.361	0.386225	0.385953	-0.0400338	7	0.00151464	13	0	6.2863	-1.54512e-05
2	0	0	1	0	0	136.71	0.382729	0.382394	-0.0338634	7	0.00150226	13	0	6.6358	-1.29492e-05
2	0	0	1	0	0	137.06	0.379234	0.378981	-0.0356454	7	0.00148942	13	0	6.9854	-1.35089e-05
2	0	0	1	0	0	137.409	0.375739	0.375536	-0.0414907	7	0.00147666	13	0	7.3348	-1.55813e-05
2	0	0	1	0	0	137.759	0.372244	0.372008	-0.0327231	7	0.00146335	13	0	7.6844	-1.21732e-05
2	0	0	1	0	0	138.109	0.368748	0.368476	-0.0438485	7	0.00144993	13	0	8.0339	-1.61571e-05
2	0	0	1	0	0	138.458	0.365253	0.364956	-0.0368936	7	0.0014363	13	0	8.3834	-1.34645e-05
2	0	0	1	0	0	138.808	0.361759	0.361506	-0.0401231	7	0.00142216	13	0	8.7329	-1.45047e-05
2	0	0	1	0	0	139.157	0.358263	0.357992	-0.0447172	7	0.00140804	13	0	9.0824	-1.60084e-05
2	0	0	1	0	0	139.507	0.354768	0.35455	-0.0367304	7	0.00139337	13	0	9.432	-1.30228e-05
2	0	0	1	0	0	139.856	0.351272	0.351016	-0.0484099	7	0.0013785	13	0	9.7815	-1.69927e-05
2	1	0	1	0	1	140.143	0.351623	0.351416	0.0399995	8	0.00137513	12	0	0.0649	1.40565e-05
2	1	0	1	0	1	140.523	0.355417	0.355178	0.0391317	8	0.00138935	13	0	0.4444	1.38987e-05
2	1	0	1	0	1	140.872	0.358912	0.358679	0.0446757	8	0.00140327	13	0	0.7938	1.60242e-05
2	1	0	1	0	1	141.222	0.362407	0.362199	0.0351564	8	0.00141758	13	0	1.1434	1.27336e-05
2	1	0	1	0	1	141.571	0.365903	0.365694	0.045823	8	0.00143178	13	0	1.4929	1.67572e-05
2	1	0	1	0	1	141.921	0.369398	0.369187	0.0376886	8	0.00144587	13	0	1.8424	1.39141e-05
2	1	0	1	0	1	142.27	0.372892	0.372642	0.0402222	8	0.00146013	13	0	2.1919	1.49885e-05
2	1	0	1	0	1	142.62	0.376388	0.376173	0.0430602	8	0.00147399	13	0	2.5414	1.61981e-05
2	1	0	1	0	1	142.969	0.379883	0.379629	0.0349512	8	0.00148806	13	0	2.891	1.32685e-05
2	1	0	1	0	1	143.319	0.383378	0.383161	0.0446666	8	0.00150184	13	0	3.2404	1.71145e-05
2	1	0	1	0	1	143.668	0.386873	0.386621	0.0357699	8	0.00151553	13	0	3.59	1.38294e-05
2	1	0	1	0	1	144.018	0.390368	0.390131	0.0395854	8	0.00152932	13	0	3.9395	1.54435e-05
2	1	0	1	0	1	144.367	0.393864	0.39365	0.0412295	8	0.00154271	13	0	4.289	1.623e-05
2	1	0	1	0	1	144.717	0.397358	0.397129	0.0336567	8	0.00155634	13	0	4.6385	1.33661e-05
2	1	0	1	0	1	145.066	0.400854	0.400619	0.0434582	8	0.0015697	13	0	4.988	1.74102e-05
2	1	0	1	0	1	145.416	0.404349	0.404139	0.0343348	8	0.001583	13	0	5.3376	1.3876e-05
2	1	0	1	0	1	145.766	0.407845	0.407621	0.0390954	8	0.00159648	13	0	5.6871	1.59361e-05
2	1	0	1	0	1	146.115	0.411339	0.411162	0.040074	8	0.00160955	13	0	6.0366	1.64769e-05
2	1	0	1	0	1	146.465	0.414834	0.41462	0.0328411	8	0.00162291	13	0	6.3861	1.36166e-05
2	1	0	1	0	1	146.814	0.41833	0.418127	0.0434088	8	0.00163599	13	0	6.7356	1.81504e-05
2	1	0	1	0	1	147.164	0.421825	0.421614	0.0329968	8	0.00164911	13	0	7.0852	1.39119e-05
2	1	0	1	0	1	147.513	0.42532	0.425073	0.0395277	8	0.00166233	13	0	7.4346	1.68022e-05
2	1	0	1	0	1	147.863	0.428815	0.428645	0.0389812	8	0.00167531	13	0	7.7842	1.67091e-05
2	1	0	1	0	1	148.212	0.432311	0.432084	0.0331387	8	0.00168861	13	0	8.1337	1.43187e-05
2	1	0	1	0	1	148.562	0.435805	0.435601	0.0436548	8	0.00170168	13	0	8.4832	1.90161e-05
2	1	0	1	0	1	148.911	0.4393	0.4391	0.0325882	8	0.00171491	13	0	8.8327	1.43095e-05
2	1	0	1	0	1	149.261	0.442796	0.442562	0.0411518	8	0.00172826	13	0	9.1822	1.82122e-05
2	1	0	1	0	1	149.61	0.446291	0.446105	0.0385567	8	0.00174147	13	0	9.5318	1.72003e-05
2	1	0	1	0	1	149.957	0.449761	0.449554	0.0332747	8	0.00175495	13	0	9.8787	1.49588e-05
2	0	0	1	0	1	150.316	0.44664	0.446428	-0.0194096	8	0.00175142	13	0	0.2447	-8.66496e-06
2	0	0	1	0	1	150.665	0.443145	0.442906	-0.0279772	8	0.00174371	13	0	0.5942	-1.23912e-05
2	0	0	1	0	1	151.015	0.439651	0.439453	-0.0190679	8	0.00173524	13	0	0.9437	-8.37945e-06
2	0	0	1	0	1	151.364	0.436155	0.435876	-0.0306189	8	0.00172641	13	0	1.2932	-1.3346e-05
2	0	0	1	0	1	151.714	0.43266	0.432409	-0.0237412	8	0.00171736	13	0	1.6428	-1.02659e-05
2	0	0	1	0	1	152.064	0.429164	0.42894	-0.0277369	8	0.00170775	13	0	1.9923	-1.18975e-05
2	0	0	1	0	1	152.413	0.425669	0.425376	-0.030726	8	0.00169822	13	0	2.3418	-1.30701e-05
2	0	0	1	0	1	152.763	0.422174	0.421933	-0.0241177	8	0.00168809	13	0	2.6913	-1.0176e-05
2	0	0	1	0	1	153.112	0.418679	0.418394	-0.0351364	8	0.00167798	13	0	3.0408	-1.47009e-05
2	0	0	1	0	1	153.462	0.415185	0.414965	-0.0251059	8	0.00166757	13	0	3.3903	-1.04181e-05
2	0	0	1	0	1	153.811	0.411689	0.411487	-0.0337404	8	0.00165683	13	0	3.7398	-1.38838e-05
2	0	0	1	0	1	154.161	0.408194	0.407912	-0.0311044	8	0.00164612	13	0	4.0894	-1.26879e-05
2	0	0	1	0	1	154.51	0.404698	0.404434	-0.0300781	8	0.00163478	13	0	4.4389	-1.21646e-05
2	0	0	1	0	1	154.86	0.401203	0.400994	-0.0367742	8	0.00162367	13	0	4.7884	-1.47462e-05
2	0	0	1	0	1	155.209	0.397709	0.397437	-0.0280179	8	0.00161206	13	0	5.1379	-1.11353e-05
2	0	0	1	0	1	155.559	0.394213	0.393947	-0.0390718	8	0.00160039	13	0	5.4874	-1.53922e-05
2	0	0	1	0	1	155.908	0.390718	0.390434	-0.0305696	8	0.00158851	13	0	5.837	-1.19354e-05
2	0	0	1	0	1	156.258	0.387223	0.386925	-0.0370417	8	0.00157625	13	0	6.1864	-1.43324e-05
2	0	0	1	0	1	156.607	0.383728	0.383459	-0.0361303	8	0.00156405	13	0	6.536	-1.38545e-05
2	0	0	1	0	1	156.957	0.380232	0.379958	-0.0338435	8	0.00155127	13	0	6.8855	-1.28591e-05
2	0	0	1	0	1	157.306	0.376737	0.376471	-0.0413262	8	0.00153859	13	0	7.235	-1.55581e-05
2	0	0	1	0	1	157.656	0.373243	0.372997	-0.0323951	8	0.00152541	13	0	7.5845	-1.20833e-05
2	0	0	1	0	1	158.005	0.369747	0.369518	-0.0438195	8	0.00151211	13	0	7.934	-1.61921e-05
2	0	0	1	0	1	158.355	0.366252	0.365935	-0.0353469	8	0.00149855	13	0	8.2836	-1.29347e-05
2	0	0	1	0	1	158.704	0.362757	0.362513	-0.0422528	8	0.00148457	13	0	8.633	-1.53172e-05
2	0	0	1	0	1	159.054	0.359262	0.358963	-0.041031	8	0.00147059	13	0	8.9826	-1.47286e-05
2	0	0	1	0	1	159.403	0.355766	0.355536	-0.039286	8	0.00145598	13	0	9.3321	-1.39676e-05
2	0	0	1	0	1	159.753	0.352271	0.351968	-0.0473993	8	0.00144141	13	0	9.6816	-1.6683e-05
2	0	0	1	0	0	160.01	0.350324	0.350064	-0.00730409	9	0.00143141	13	0	9.9388	-2.5569e-06
2	1	0	1	0	0	160.42	0.354419	0.3542	0.0446357	9	0.00144452	13	0	0.3445	1.581e-05
2	1	0	1	0	0	160.769	0.357913	0.357713	0.035449	9	0.00145835	13	0	0.694	1.26806e-05
2	1	0	1	0	0	161.119	0.361408	0.361207	0.0431348	9	0.00147247	13	0	1.0435	1.55806e-05
2	1	0	1	0	0	161.468	0.364904	0.364695	0.039832	9	0.00148637	13	0	1.393	1.45265e-05
2	1	0	1	0	0	161.818	0.368399	0.368111	0.0377482	9	0.00150059	13	0	1.7426	1.38955e-05
2	1	0	1	0	0	162.167	0.371894	0.371703	0.0441235	9	0.00151437	13	0	2.092	1.64008e-05
2	1	0	1	0	0	162.517	0.375389	0.375152	0.034581	9	0.0015284	13	0	2.4416	1.29732e-05
2	1	0	1	0	0	162.866	0.378885	0.378596	0.0449302	9	0.00154211	13	0	2.7911	1.70104e-05
2	1	0	1	0	0	163.216	0.38238	0.382164	0.0340569	9	0.00155582	13	0	3.1406	1.30153e-05
2	1	0	1	0	0	163.565	0.385874	0.385614	0.0426385	9	0.00156946	13	0	3.4901	1.6442e-05
2	1	0	1	0	0	163.915	0.38937	0.389169	0.0364468	9	0.00158286	13	0	3.8396	1.4184e-05
2	1	0	1	0	0	164.264	0.392865	0.392637	0.0390334	9	0.00159643	13	0	4.1892	1.5326e-05
2	1	0	1	0	0	164.614	0.396361	0.396145	0.0390706	9	0.00160957	13	0	4.5387	1.54776e-05
2	1	0	1	0	0	164.963	0.399855	0.399625	0.0350428	9	0.00162299	13	0	4.8882	1.4004e-05
2	1	0	1	0	0	165.313	0.40335	0.403111	0.0418387	9	0.00163599	13	0	5.2377	1.68657e-05
2	1	0	1	0	0	165.662	0.406846	0.406634	0.0326044	9	0.00164929	13	0	5.5872	1.3258e-05
2	1	0	1	0	0	166.012	0.410341	0.410113	0.0427713	9	0.00166228	13	0	5.9368	1.75411e-05
2	1	0	1	0	0	166.361	0.413836	0.413621	0.0320976	9	0.0016753	13	0	6.2862	1.32763e-05
2	1	0	1	0	0	166.711	0.417331	0.417133	0.0412226	9	0.00168831	13	0	6.6358	1.71953e-05
2	1	0	1	0	0	167.06	0.420827	0.420616	0.0346066	9	0.00170113	13	0	6.9853	1.45561e-05
2	1	0	1	0	0	167.41	0.424321	0.424077	0.037401	9	0.00171419	13	0	7.3348	1.58609e-05
2	1	0	1	0	0	167.759	0.427816	0.427595	0.0383472	9	0.0017269	13	0	7.6843	1.63971e-05
2	1	0	1	0	0	168.109	0.431312	0.431078	0.0340468	9	0.00173998	13	0	8.0338	1.46768e-05
2	1	0	1	0	0	168.458	0.434807	0.43459	0.041425	9	0.00175274	13	0	8.3834	1.80029e-05
2	1	0	1	0	0	168.808	0.438302	0.438093	0.0320805	9	0.0017658	13	0	8.7328	1.40543e-05
2	1	0	1	0	0	169.157	0.441797	0.441577	0.0422332	9	0.00177874	13	0	9.0824	1.86492e-05
2	1	0	1	0	0	169.507	0.445293	0.445092	0.0331292	9	0.00179178	13	0	9.4319	1.47455e-05
2	1	0	1	0	0	169.856	0.448787	0.44857	0.0408032	9	0.00180499	13	0	9.7814	1.83031e-05
2	0	0	1	0	0	170.198	0.447788	0.447553	-0.0255141	9	0.00180604	12	0	0.1299	-1.14189e-05
2	0	0	1	0	0	170.562	0.444144	0.443912	-0.0210635	9	0.001798	13	0	0.4944	-9.35032e-06
2	0	0	1	0	0	170.912	0.440649	0.440436	-0.0249358	9	0.00178946	13	0	0.8438	-1.09826e-05
2	0	0	1	0	0	171.261	0.437154	0.436878	-0.0272398	9	0.00178082	13	0	1.1934	-1.19005e-05
2	0	0	1	0	0	171.611	0.433658	0.433408	-0.0233507	9	0.00177152	13	0	1.5429	-1.01204e-05
2	0	0	1	0	0	171.96	0.430163	0.429908	-0.0320496	9	0.00176223	13	0	1.8924	-1.37784e-05
2	0	0	1	0	0	172.31	0.426669	0.42642	-0.0229478	9	0.00175243	13	0	2.2419	-9.7854e-06
2	0	0	1	0	0	172.659	0.423173	0.422923	-0.0342291	9	0.00174254	13	0	2.5914	-1.44763e-05
2	0	0	1	0	0	173.009	0.419678	0.419448	-0.0242289	9	0.00173237	13	0	2.941	-1.01628e-05
2	0	0	1	0	0	173.358	0.416182	0.415963	-0.0347251	9	0.00172193	13	0	3.2905	-1.44444e-05
2	0	0	1	0	0	173.708	0.412688	0.412445	-0.0276544	9	0.00171143	13	0	3.64	-1.14059e-05
2	0	0	1	0	0	174.057	0.409192	0.408963	-0.0320128	9	0.00170047	13	0	3.9895	-1.3092e-05
2	0	0	1	0	0	174.407	0.405697	0.405421	-0.0339859	9	0.00168958	13	0	4.339	-1.37786e-05
2	0	0	1	0	0	174.756	0.402202	0.401987	-0.0294712	9	0.00167814	13	0	4.6886	-1.1847e-05
2	0	0	1	0	0	175.106	0.398707	0.398429	-0.0376781	9	0.00166687	13	0	5.038	-1.5012e-05
2	0	0	1	0	0	175.455	0.395212	0.395008	-0.0281258	9	0.00165512	13	0	5.3876	-1.11099e-05
2	0	0	1	0	0	175.805	0.391716	0.391445	-0.0400155	9	0.00164333	13	0	5.7371	-1.56639e-05
2	0	0	1	0	0	176.154	0.388221	0.38791	-0.0297604	9	0.00163126	13	0	6.0866	-1.15443e-05
2	0	0	1	0	0	176.504	0.384727	0.384413	-0.0398584	9	0.00161893	13	0	6.4361	-1.53221e-05
2	0	0	1	0	0	176.853	0.381231	0.380942	-0.0325855	9	0.00160652	13	0	6.7856	-1.24132e-05
2	0	0	1	0	0	177.203	0.377736	0.377461	-0.039074	9	0.00159365	13	0	7.1352	-1.47489e-05
2	0	0	1	0	0	177.552	0.374241	0.37397	-0.0366721	9	0.00158084	13	0	7.4846	-1.37143e-05
2	0	0	1	0	0	177.902	0.370746	0.370511	-0.0377114	9	0.00156744	13	0	7.8342	-1.39725e-05
2	0	0	1	0	0	178.252	0.36725	0.366975	-0.0409825	9	0.00155414	13	0	8.1837	-1.50396e-05
2	0	0	1	0	0	178.601	0.363755	0.363472	-0.0361034	9	0.00154022	13	0	8.5332	-1.31226e-05
2	0	0	1	0	0	178.951	0.360261	0.36	-0.0455031	9	0.00152634	13	0	8.8827	-1.63811e-05
2	0	0	1	0	0	179.3	0.356765	0.356481	-0.0358783	9	0.00151194	13	0	9.2322	-1.27899e-05
2	0	0	1	0	0	179.65	0.35327	0.353005	-0.0479323	9	0.0014974	13	0	9.5818	-1.69204e-05
2	0	0	1	0	0	179.974	0.35	0.349838	-0.0547939	9	0.00148347	13	0	9.9063	-1.9169e-05
2	1	0	1	0	1	180.301	0.35327	0.353038	0.0388216	10	0.00149234	12	0	0.2296	1.37055e-05
2	1	0	1	0	1	180.666	0.356915	0.356671	0.036259	10	0.00150611	13	0	0.5942	1.29326e-05
2	1	0	1	0	1	181.015	0.36041	0.360127	0.041636	10	0.00152013	13	0	0.9436	1.49943e-05
2	1	0	1	0	1	181.365	0.363905	0.363658	0.0397892	10	0.00153391	13	0	1.2932	1.44697e-05
2	1	0	1	0	1	181.714	0.367401	0.367201	0.0386854	10	0.00154799	13	0	1.6427	1.42053e-05
2	1	0	1	0	1	182.064	0.370895	0.370704	0.0419507	10	0.00156166	13	0	1.9922	1.55513e-05
2	1	0	1	0	1	182.413	0.37439	0.374177	0.0360318	10	0.0015756	13	0	2.3417	1.34823e-05
2	1	0	1	0	1	182.763	0.377886	0.377699	0.0429581	10	0.00158913	13	0	2.6912	1.62252e-05
2	1	0	1	0	1	183.112	0.381381	0.38111	0.0337117	10	0.00160284	13	0	3.0408	1.28479e-05
2	1	0	1	0	1	183.462	0.384876	0.384665	0.0438904	10	0.00161622	13	0	3.3902	1.68831e-05
2	1	0	1	0	1	183.811	0.388371	0.388139	0.03267	10	0.00162967	13	0	3.7398	1.26805e-05
2	1	0	1	0	1	184.161	0.391867	0.391605	0.0438408	10	0.00164293	13	0	4.0893	1.71683e-05
2	1	0	1	0	1	184.51	0.395362	0.395158	0.0322893	10	0.00165613	13	0	4.4388	1.27594e-05
2	1	0	1	0	1	184.86	0.398856	0.398616	0.0421964	10	0.00166928	13	0	4.7883	1.68201e-05
2	1	0	1	0	1	185.209	0.402352	0.40216	0.0336346	10	0.00168224	13	0	5.1378	1.35265e-05
2	1	0	1	0	1	185.559	0.405847	0.405564	0.0396593	10	0.00169531	13	0	5.4874	1.60844e-05
2	1	0	1	0	1	185.909	0.409343	0.409172	0.035193	10	0.00170814	13	0	5.8369	1.44e-05
2	1	0	1	0	1	186.258	0.412837	0.412626	0.0369948	10	0.00172114	13	0	6.1864	1.5265e-05
2	1	0	1	0	1	186.608	0.416332	0.416146	0.0375656	10	0.00173376	13	0	6.5359	1.56328e-05
2	1	0	1	0	1	186.957	0.419828	0.419564	0.0346255	10	0.00174668	13	0	6.8854	1.45276e-05
2	1	0	1	0	1	187.307	0.423322	0.423131	0.0393051	10	0.00175923	13	0	7.2349	1.66312e-05
2	1	0	1	0	1	187.656	0.426818	0.426572	0.0321803	10	0.0017721	13	0	7.5844	1.37272e-05
2	1	0	1	0	1	188.006	0.430313	0.430122	0.0413497	10	0.00178468	13	0	7.934	1.77854e-05
2	1	0	1	0	1	188.355	0.433809	0.433564	0.0308977	10	0.00179749	13	0	8.2835	1.33961e-05
2	1	0	1	0	1	188.705	0.437303	0.437091	0.0420145	10	0.00181014	13	0	8.633	1.83642e-05
2	1	0	1	0	1	189.054	0.440798	0.440641	0.0311185	10	0.00182292	13	0	8.9825	1.37121e-05
2	1	0	1	0	1	189.404	0.444294	0.444075	0.0413442	10	0.00183575	13	0	9.332	1.83599e-05
2	1	0	1	0	1	189.753	0.447789	0.447602	0.0334174	10	0.00184855	13	0	9.6816	1.49577e-05
2	0	0	1	0	1	190.064	0.449087	0.448851	-0.0214086	10	0.00185628	13	0	0.000000000000000E+000	-9.60928e-06
2	0	0	1	0	1	190.459	0.445142	0.444891	-0.0277771	10	0.00184817	13	0	0.3945	-1.23578e-05
2	0	0	1	0	1	190.808	0.441647	0.441359	-0.0211482	10	0.00183994	13	0	0.744	-9.33396e-06
2	0	0	1	0	1	191.158	0.438153	0.437921	-0.0274348	10	0.00183102	13	0	1.0935	-1.20143e-05
2	0	0	1	0	1	191.507	0.434657	0.43439	-0.0265196	10	0.00182208	13	0	1.443	-1.15199e-05
2	0	0	1	0	1	191.857	0.431162	0.430921	-0.0254904	10	0.00181249	13	0	1.7926	-1.09843e-05
2	0	0	1	0	1	192.206	0.427667	0.427377	-0.0314885	10	0.00180301	13	0	2.142	-1.34575e-05
2	0	0	1	0	1	192.556	0.424172	0.423934	-0.02438	10	0.00179295	13	0	2.4916	-1.03355e-05
2	0	0	1	0	1	192.906	0.420676	0.420479	-0.0343529	10	0.00178293	13	0	2.8411	-1.44447e-05
2	0	0	1	0	1	193.255	0.417181	0.416967	-0.0247122	10	0.00177253	13	0	3.1906	-1.03042e-05
2	0	0	1	0	1	193.605	0.413687	0.413446	-0.0358266	10	0.00176198	13	0	3.5401	-1.48124e-05
2	0	0	1	0	1	193.954	0.410191	0.409967	-0.0263009	10	0.00175126	13	0	3.8896	-1.07825e-05
2	0	0	1	0	1	194.304	0.406696	0.406455	-0.0356545	10	0.00174022	13	0	4.2392	-1.44919e-05
2	0	0	1	0	1	194.653	0.4032	0.402923	-0.0291456	10	0.0017291	13	0	4.5887	-1.17434e-05
2	0	0	1	0	1	195.003	0.399705	0.399461	-0.0348961	10	0.0017176	13	0	4.9382	-1.39396e-05
2	0	0	1	0	1	195.352	0.39621	0.395917	-0.0323996	10	0.0017062	13	0	5.2877	-1.28275e-05
2	0	0	1	0	1	195.702	0.392715	0.39244	-0.0338076	10	0.00169424	13	0	5.6372	-1.32675e-05
2	0	0	1	0	1	196.051	0.38922	0.388934	-0.0358137	10	0.00168246	13	0	5.9868	-1.39291e-05
2	0	0	1	0	1	196.401	0.385725	0.385476	-0.0331827	10	0.00167007	13	0	6.3362	-1.27911e-05
2	0	0	1	0	1	196.75	0.38223	0.381926	-0.0392731	10	0.00165783	13	0	6.6858	-1.49994e-05
2	0	0	1	0	1	197.1	0.378734	0.378433	-0.0318588	10	0.00164504	13	0	7.0353	-1.20564e-05
2	0	0	1	0	1	197.449	0.375239	0.374957	-0.042432	10	0.00163226	13	0	7.3848	-1.59102e-05
2	0	0	1	0	1	197.799	0.371745	0.371503	-0.032821	10	0.00161914	13	0	7.7343	-1.21931e-05
2	0	0	1	0	1	198.148	0.368249	0.367974	-0.0429338	10	0.00160573	13	0	8.0838	-1.57985e-05
2	0	0	1	0	1	198.498	0.364754	0.364441	-0.0370797	10	0.00159221	13	0	8.4334	-1.35133e-05
2	0	0	1	0	1	198.847	0.361259	0.361004	-0.0400576	10	0.00157815	13	0	8.7828	-1.4461e-05
2	0	0	1	0	1	199.197	0.357764	0.357444	-0.0431942	10	0.00156417	13	0	9.1324	-1.54395e-05
2	0	0	1	0	1	199.546	0.354268	0.354012	-0.0376611	10	0.00154953	13	0	9.4819	-1.33325e-05
2	0	0	1	0	1	199.896	0.350773	0.35047	-0.0481722	10	0.0015349	13	0	9.8314	-1.68829e-05
2	0	0	1	0	1	199.971	0.35	0.349685	-0.0438626	10	0.0015315	13	0	9.9063	-1.53381e-05