File: ACS_Catal_2026/Figures_Na_K/main_figures/data/EC/20251112_2-148_alpha_reproducibility/20251112_2-148_004_Na_first_2_K1_03_CVA_C02.mpt
EC-Lab ASCII FILE
Nb header lines : 66

Cyclic Voltammetry Advanced

Run on channel : 2 (SN 69290)
User :
CE vs. WE compliance from -10 V to 10 V
Electrode connection : standard
Potential control : Ewe
Ewe ctrl range : min = -1.00 V, max = 1.00 V
Safety Limits :
	Do not start on E overload
Acquisition started on : 11/12/2025 16:20:32.186
Loaded Setting File :  C:\Users\User\Documents\EC-Lab\Data\Yatsuzuka\20251112_2-148_alpha_reproducibility\20251112_2-148_002_alpha_reproducibility_2_K1.mps
Saved on :
	File : 20251112_2-148_004_Na_first_2_K1_03_CVA_C02.mpr
	Directory : C:\Users\User\Documents\EC-Lab\Data\Yatsuzuka\20251112_2-148_alpha_reproducibility\
	Host : 192.109.209.127
Device : SP-150e (SN .003883)
Address : 192.109.209.128
EC-Lab for windows v11.52 (software)
Internet server v11.52 (firmware)
Command interpretor v11.50 (firmware)
Electrode material :
Initial state :
Electrolyte :
Comments :
Electrode surface area : 0.001 cm2
Characteristic mass : 0.001 g
Equivalent Weight : 0.000 g/eq.
Density : 0.000 g/cm3
Volume (V) : 0.001 cm3
Cycle Definition : Charge/Discharge alternance
Ei (V)              0.450
vs.                 Ref
ti (h:m:s)          0:00:10.0000
dti (s)             0.0000
dE/dt               5.000
dE/dt unit          mV/s
E1 (V)              0.700
vs.                 Ref
t1 (h:m:s)          0:00:0.0000
dt1 (s)             0.1000
Step percent        50
N                   10
E range min (V)     -1.000
E range max (V)     1.000
I Range             10 mA
I Range min         Unset
I Range max         Unset
I Range init        Unset
Bandwidth           5
E2 (V)              0.450
vs.                 Ref
t2 (h:m:s)          0:00:0.0000
dt2 (s)             0.1000
nc cycles           14
nr                  1
Reverse Scan        0
Ef (V)              0.000
vs.                 Eoc
tf (h:m:s)          0:00:0.0000
dtf (s)             0.1000

mode	ox/red	error	control changes	Ns changes	counter inc.	time/s	control/V	Ewe/V	<I>/mA	cycle number	(Q-Qo)/C	I Range	Ns	step time/s	P/W
2	1	0	1	0	0	232.052	0.450021	0.449535	0.0212069	1	0.0000000E+000	11	0	0.000000000000000E+000	9.53322e-06
2	1	0	1	0	0	234.604	0.462781	0.462316	0.0151563	1	3.49343e-05	11	0	2.4971	7.00699e-06
2	0	0	1	0	0	237.201	0.475765	0.475269	0.0106632	1	7.10307e-05	11	0	5.094	5.06791e-06
2	0	0	1	0	0	239.798	0.488749	0.488295	0.0112471	1	0.000106983	11	0	7.6909	5.49191e-06
2	0	0	0	0	0	242.395	0.501734	0.501268	0.0116608	1	0.000143089	11	0	10.2878	5.84519e-06
2	0	0	1	0	0	244.992	0.514718	0.514252	0.0123311	1	0.000179251	11	0	12.8847	6.34129e-06
2	0	0	1	0	0	247.589	0.527704	0.527246	0.0124429	1	0.000216313	11	0	15.4817	6.56047e-06
2	0	0	0	0	0	250.186	0.540688	0.540225	0.0131766	1	0.000255336	11	0	18.0786	7.11834e-06
2	1	0	1	0	0	252.783	0.553672	0.553208	0.0193657	1	0.000297451	11	0	20.6755	1.07133e-05
2	1	0	1	0	0	255.38	0.566657	0.566161	0.0211817	1	0.00034529	11	0	23.2724	1.19923e-05
2	1	0	0	0	0	257.977	0.579642	0.579148	0.0236072	1	0.000403939	11	0	25.8694	1.36721e-05
2	1	0	1	0	0	260.574	0.592626	0.59215	0.0328838	1	0.000482856	11	0	28.4663	1.94721e-05
2	1	0	1	0	0	263.171	0.605611	0.605152	0.0522517	1	0.00059855	11	0	31.0632	3.16202e-05
2	1	0	1	0	0	265.767	0.618595	0.618155	0.0860563	1	0.000780774	11	0	33.6601	5.31961e-05
2	1	0	1	0	0	268.364	0.631581	0.631133	0.148034	1	0.00108436	11	0	36.2571	9.34292e-05
2	1	0	1	0	0	270.961	0.644565	0.644044	0.261443	1	0.00160431	11	0	38.854	0.000168381
2	1	0	1	0	0	273.558	0.657549	0.657131	0.437278	1	0.0024924	11	0	41.4509	0.000287349
2	1	0	0	0	0	276.155	0.670534	0.670094	0.722755	1	0.00397894	11	0	44.0478	0.000484314
2	1	0	1	0	0	278.752	0.683518	0.683073	1.13996	1	0.00636539	11	0	46.6447	0.000778673
2	1	0	1	0	0	281.349	0.696504	0.696111	1.64497	1	0.00995974	11	0	49.2417	0.00114508
2	1	0	1	0	0	283.697	0.691759	0.691299	1.31213	1	0.0136685	11	0	51.5892	0.000907071
2	1	0	1	0	0	286.293	0.678774	0.678347	0.857739	1	0.0164224	11	0	54.1861	0.000581844
2	1	0	1	0	0	288.89	0.665789	0.665332	0.510024	1	0.0181639	11	0	56.7831	0.000339336
2	1	0	1	0	0	291.487	0.652805	0.65234	0.304762	1	0.0191949	11	0	59.38	0.000198808
2	1	0	1	0	0	294.084	0.63982	0.639373	0.170165	1	0.0197995	11	0	61.9769	0.000108799
2	1	0	0	0	0	296.681	0.626836	0.626434	0.0907861	1	0.0201254	11	0	64.5738	5.68715e-05
2	1	0	1	0	0	299.278	0.613852	0.613401	0.0453594	1	0.0202966	11	0	67.1707	2.78235e-05
2	1	0	1	0	0	301.875	0.600866	0.600395	0.0203675	1	0.0203817	11	0	69.7677	1.22285e-05
2	1	0	0	0	0	304.472	0.587882	0.58742	0.00959959	1	0.0204186	11	0	72.3646	5.63899e-06
2	1	0	1	0	0	307.069	0.574897	0.574419	0.00340239	1	0.0204288	11	0	0.000000000000000E+000	1.9544e-06
2	1	0	1	0	0	309.666	0.561913	0.561473	-0.00169768	1	0.0204239	11	0	0.9988	-9.53202e-07
2	0	0	1	0	0	312.263	0.548929	0.548482	-0.00709453	1	0.0204109	11	0	3.5957	-3.89123e-06
2	0	0	1	0	0	314.86	0.535943	0.535485	-0.00811505	1	0.0203929	11	0	6.1927	-4.34549e-06
2	0	0	1	0	0	317.457	0.522959	0.522489	-0.00812174	1	0.0203721	11	0	8.7896	-4.24352e-06
2	1	0	1	0	0	320.053	0.509974	0.509497	-0.00606077	1	0.0203487	11	0	11.3865	-3.08795e-06
2	1	0	0	0	0	322.65	0.49699	0.496534	-0.00727082	1	0.0203238	11	0	13.9834	-3.61021e-06
2	0	0	1	0	0	325.247	0.484005	0.483541	-0.0121273	1	0.0202976	11	0	16.5804	-5.86403e-06
2	0	0	1	0	0	327.844	0.47102	0.470557	-0.0119194	1	0.0202703	11	0	19.1773	-5.60874e-06
2	0	0	0	0	0	330.441	0.458036	0.45757	-0.0138894	1	0.0202415	11	0	21.7742	-6.35535e-06
2	1	0	1	0	1	332.808	0.453841	0.453345	0.015212	2	0.0202318	11	0	0.7542	6.8963e-06
2	0	0	1	0	1	335.404	0.466825	0.466306	0.0101163	2	0.0202644	11	0	3.3511	4.7173e-06
2	1	0	0	0	1	338.001	0.47981	0.479397	0.0156435	2	0.0202981	11	0	5.948	7.49946e-06
2	1	0	1	0	1	340.598	0.492794	0.492383	0.0100753	2	0.0203314	11	0	8.5449	4.96091e-06
2	1	0	1	0	1	343.195	0.50578	0.505321	0.0149882	2	0.0203647	11	0	11.1419	7.57387e-06
2	0	0	0	0	1	345.792	0.518764	0.518304	0.0100819	2	0.0203982	11	0	13.7388	5.22551e-06
2	0	0	1	0	1	348.389	0.531748	0.531274	0.0109529	2	0.0204325	11	0	16.3357	5.81897e-06
2	0	0	1	0	1	350.986	0.544733	0.544324	0.0112265	2	0.0204686	11	0	18.9326	6.11087e-06
2	1	0	1	0	1	353.583	0.557717	0.557309	0.0185123	2	0.0205078	11	0	21.5295	1.0317e-05
2	1	0	1	0	1	356.18	0.570703	0.570252	0.0164017	2	0.0205531	11	0	24.1265	9.35308e-06
2	1	0	1	0	1	358.777	0.583687	0.583257	0.0277008	2	0.0206106	11	0	26.7234	1.61567e-05
2	1	0	1	0	1	361.374	0.596671	0.596201	0.0351916	2	0.02069	11	0	29.3203	2.09813e-05
2	1	0	0	0	1	363.971	0.609656	0.609218	0.0573442	2	0.0208097	11	0	31.9172	3.49351e-05
2	1	0	1	0	1	366.568	0.622641	0.62217	0.0957305	2	0.0210055	11	0	34.5142	5.95607e-05
2	1	0	1	0	1	369.164	0.635626	0.635187	0.167272	2	0.0213386	11	0	37.1111	0.000106249
2	1	0	0	0	1	371.761	0.64861	0.648153	0.290066	2	0.0219154	11	0	39.708	0.000188007
2	1	0	1	0	1	374.358	0.661594	0.661152	0.488606	2	0.0229095	11	0	42.3049	0.000323043
2	1	0	1	0	1	376.955	0.67458	0.67414	0.78913	2	0.0245473	11	0	44.9019	0.000531984
2	1	0	0	0	1	379.552	0.687564	0.687107	1.20784	2	0.0271101	11	0	47.4988	0.000829917
2	1	0	1	0	1	382.034	0.699974	0.699499	1.66155	2	0.0307109	11	0	49.9808	0.00116226
2	1	0	1	0	1	384.487	0.687763	0.687333	1.03786	2	0.0339578	11	0	52.4333	0.000713356
2	1	0	1	0	1	387.084	0.674779	0.67431	0.652465	2	0.0360952	11	0	55.0302	0.000439963
2	1	0	1	0	1	389.68	0.661794	0.661365	0.406768	2	0.0374553	11	0	57.6271	0.000269022
2	1	0	0	0	1	392.277	0.64881	0.648367	0.237805	2	0.038268	11	0	60.224	0.000154185
2	1	0	1	0	1	394.874	0.635826	0.635382	0.135825	2	0.0387398	11	0	62.8209	8.63007e-05
2	1	0	1	0	1	397.471	0.62284	0.622376	0.0709508	2	0.0389963	11	0	65.4179	4.41581e-05
2	1	0	0	0	1	400.068	0.609856	0.60941	0.035583	2	0.0391277	11	0	68.0148	2.16846e-05
2	1	0	1	0	1	402.665	0.596871	0.596405	0.0160548	2	0.0391893	11	0	70.6117	9.57519e-06
2	1	0	1	0	1	405.262	0.583887	0.583451	0.00239986	2	0.0392134	11	0	73.2086	1.4002e-06
2	1	0	0	0	1	407.859	0.570902	0.570446	0.000543084	2	0.0392168	11	0	0.000000000000000E+000	3.098e-07
2	1	0	1	0	1	410.456	0.557917	0.55745	-0.00227298	2	0.0392083	11	0	2.4971	-1.26707e-06
2	0	0	1	0	1	413.053	0.544933	0.544506	-0.00931585	2	0.0391932	11	0	5.094	-5.07254e-06
2	0	0	1	0	1	415.65	0.531948	0.531481	-0.0067725	2	0.0391739	11	0	7.6909	-3.59946e-06
2	1	0	0	0	1	418.247	0.518964	0.518522	-0.00891873	2	0.0391521	11	0	10.2878	-4.62456e-06
2	0	0	1	0	1	420.844	0.505979	0.505495	-0.0120735	2	0.0391283	11	0	12.8848	-6.10312e-06
2	0	0	1	0	1	423.44	0.492994	0.492508	-0.0117768	2	0.0391031	11	0	15.4817	-5.80016e-06
2	1	0	0	0	1	426.037	0.48001	0.479555	-0.00755051	2	0.0390768	11	0	18.0786	-3.62089e-06
2	0	0	1	0	1	428.634	0.467025	0.466563	-0.0127671	2	0.0390489	11	0	20.6755	-5.95667e-06
2	0	0	1	0	1	431.231	0.45404	0.453592	-0.0100159	2	0.0390195	11	0	23.2725	-4.54315e-06
2	1	0	0	0	0	433.598	0.457836	0.45736	0.0142637	3	0.0390286	11	0	1.4982	6.52366e-06
2	1	0	1	0	0	436.195	0.470821	0.470369	0.0151792	3	0.0390616	11	0	4.0952	7.13984e-06
2	1	0	1	0	0	438.791	0.483806	0.483348	0.0106173	3	0.0390945	11	0	6.6921	5.13186e-06
2	1	0	0	0	0	441.388	0.49679	0.496311	0.0146901	3	0.0391273	11	0	9.289	7.29085e-06
2	1	0	1	0	0	443.985	0.509774	0.509307	0.0105927	3	0.0391602	11	0	11.8859	5.39495e-06
2	1	0	1	0	0	446.582	0.522759	0.522281	0.014669	3	0.0391933	11	0	14.4828	7.66135e-06
2	1	0	0	0	0	449.179	0.535744	0.535319	0.0107439	3	0.0392274	11	0	17.0798	5.75141e-06
2	1	0	1	0	0	451.776	0.548729	0.548246	0.0169334	3	0.0392633	11	0	19.6767	9.28366e-06
2	1	0	1	0	0	454.373	0.561713	0.561222	0.0139905	3	0.039303	11	0	22.2736	7.85176e-06
2	1	0	1	0	0	456.97	0.574697	0.574213	0.0219874	3	0.0393504	11	0	24.8705	1.26254e-05
2	1	0	1	0	0	459.567	0.587683	0.587212	0.0279082	3	0.039411	11	0	27.4675	1.6388e-05
2	1	0	1	0	0	462.164	0.600667	0.600237	0.0424693	3	0.0394974	11	0	30.0644	2.54917e-05
2	1	0	1	0	0	464.761	0.613651	0.613166	0.0671644	3	0.0396314	11	0	32.6613	4.11829e-05
2	1	0	0	0	0	467.358	0.626636	0.626206	0.108801	3	0.0398532	11	0	35.2582	6.81317e-05
2	1	0	1	0	0	469.954	0.63962	0.639169	0.191488	3	0.0402346	11	0	37.8551	0.000122393
2	1	0	1	0	0	472.551	0.652606	0.652117	0.331232	3	0.0408959	11	0	40.4521	0.000216002
2	1	0	0	0	0	475.148	0.66559	0.665119	0.560375	3	0.0420244	11	0	43.049	0.000372716
2	1	0	1	0	0	477.745	0.678574	0.678114	0.888727	3	0.0438889	11	0	45.6459	0.000602659
2	1	0	1	0	0	480.342	0.691559	0.691096	1.30094	3	0.0467192	11	0	48.2428	0.000899074
2	1	0	1	0	0	482.68	0.696753	0.69632	1.4649	3	0.0501952	11	0	50.5804	0.00102004
2	1	0	1	0	0	485.277	0.683768	0.683284	0.950652	3	0.0532927	11	0	53.1773	0.000649566
2	1	0	0	0	0	487.874	0.670784	0.670382	0.570678	3	0.05523	11	0	55.7742	0.000382572
2	1	0	1	0	0	490.47	0.6578	0.657361	0.342516	3	0.0563859	11	0	58.3711	0.000225156
2	1	0	1	0	0	493.067	0.644814	0.644327	0.190731	3	0.0570615	11	0	60.9681	0.000122893
2	1	0	0	0	0	495.664	0.63183	0.631414	0.107182	3	0.0574333	11	0	63.565	6.76761e-05
2	1	0	1	0	0	498.261	0.618846	0.618415	0.05261	3	0.0576319	11	0	66.1619	3.25348e-05
2	1	0	1	0	0	500.858	0.605861	0.605455	0.0257226	3	0.0577334	11	0	68.7588	1.55739e-05
2	1	0	0	0	0	503.455	0.592876	0.592405	0.0110884	3	0.0577793	11	0	71.3558	6.56883e-06
2	1	0	1	0	0	506.052	0.579891	0.579473	0.00436966	3	0.0577953	11	0	73.9527	2.5321e-06
2	1	0	1	0	0	508.649	0.566907	0.566438	-0.00179121	3	0.0577938	11	0	0.2996	-1.01461e-06
2	0	0	1	0	0	511.246	0.553923	0.553452	-0.00798399	3	0.0577828	11	0	2.8965	-4.41875e-06
2	1	0	1	0	0	513.843	0.540937	0.540478	-0.0047385	3	0.057766	11	0	5.4935	-2.56105e-06
2	0	0	1	0	0	516.44	0.527953	0.527451	-0.0103812	3	0.0577456	11	0	8.0904	-5.47557e-06
2	1	0	1	0	0	519.037	0.514968	0.514472	-0.00587634	3	0.0577232	11	0	10.6873	-3.02321e-06
2	0	0	0	0	0	521.634	0.501984	0.501526	-0.011945	3	0.0576992	11	0	13.2842	-5.99073e-06
2	0	0	1	0	0	524.23	0.489	0.488545	-0.00846578	3	0.0576734	11	0	15.8811	-4.13591e-06
2	0	0	1	0	0	526.827	0.476014	0.475572	-0.013251	3	0.0576464	11	0	18.4781	-6.30179e-06
2	0	0	0	0	0	529.424	0.46303	0.462544	-0.0108232	3	0.0576185	11	0	21.075	-5.00621e-06
2	0	0	1	0	0	531.996	0.45017	0.449646	-0.00247656	3	0.0575892	11	0	23.647	-1.11358e-06
2	0	0	1	0	1	534.388	0.461832	0.461386	0.0106176	4	0.057617	11	0	2.2973	4.89881e-06
2	1	0	0	0	1	536.985	0.474816	0.474321	0.0142152	4	0.0576496	11	0	4.8942	6.74256e-06
2	0	0	1	0	1	539.581	0.4878	0.487294	0.0122667	4	0.0576822	11	0	7.4911	5.97749e-06
2	1	0	1	0	1	542.178	0.500786	0.500338	0.0122414	4	0.057715	11	0	10.0881	6.12483e-06
2	1	0	0	0	1	544.775	0.51377	0.513293	0.014992	4	0.0577479	11	0	12.685	7.6953e-06
2	1	0	1	0	1	547.372	0.526755	0.526252	0.0137541	4	0.0577809	11	0	15.2819	7.23814e-06
2	1	0	1	0	1	549.969	0.539739	0.53929	0.0158142	4	0.0578152	11	0	17.8788	8.52842e-06
2	1	0	1	0	1	552.566	0.552723	0.552266	0.0120654	4	0.0578518	11	0	20.4757	6.6633e-06
2	1	0	1	0	1	555.163	0.565709	0.565271	0.0176228	4	0.0578931	11	0	23.0727	9.96167e-06
2	1	0	1	0	1	557.76	0.578693	0.578246	0.0205336	4	0.0579426	11	0	25.6696	1.18735e-05
2	1	0	1	0	1	560.357	0.591677	0.59122	0.0298886	4	0.0580089	11	0	28.2665	1.76707e-05
2	1	0	0	0	1	562.954	0.604662	0.604215	0.0455941	4	0.0581049	11	0	30.8634	2.75487e-05
2	1	0	1	0	1	565.551	0.617647	0.617197	0.0768399	4	0.0582573	11	0	33.4604	4.74253e-05
2	1	0	1	0	1	568.148	0.630632	0.63018	0.126223	4	0.0585131	11	0	36.0573	7.95432e-05
2	1	0	0	0	1	570.745	0.643616	0.643159	0.219977	4	0.0589555	11	0	38.6542	0.00014148
2	1	0	1	0	1	573.341	0.6566	0.656154	0.384019	4	0.0597225	11	0	41.2511	0.000251975
2	1	0	1	0	1	575.938	0.669585	0.669167	0.631111	4	0.0610182	11	0	43.848	0.000422319
2	1	0	0	0	1	578.535	0.68257	0.682113	0.986588	4	0.0631029	11	0	46.445	0.000672964
2	1	0	1	0	1	581.132	0.695555	0.695087	1.45858	4	0.0662546	11	0	49.0419	0.00101384
2	1	0	0	0	1	583.47	0.692758	0.692322	1.24542	4	0.0696836	11	0	51.3794	0.000862235
2	1	0	1	0	1	586.067	0.679773	0.67931	0.79786	4	0.0723064	11	0	53.9764	0.000541994
2	1	0	1	0	1	588.664	0.666788	0.666306	0.492778	4	0.0739564	11	0	56.5733	0.000328341
2	1	0	0	0	1	591.261	0.653804	0.653381	0.29286	4	0.0749566	11	0	59.1702	0.000191349
2	1	0	1	0	1	593.857	0.64082	0.640386	0.16433	4	0.0755343	11	0	61.7671	0.000105235
2	1	0	1	0	1	596.454	0.627834	0.62739	0.0905746	4	0.0758537	11	0	64.3641	5.68256e-05
2	1	0	0	0	1	599.051	0.61485	0.614418	0.042676	4	0.0760199	11	0	66.961	2.62209e-05
2	1	0	1	0	1	601.648	0.601865	0.601433	0.0232317	4	0.0761011	11	0	69.5579	1.39723e-05
2	0	0	1	0	1	604.245	0.588881	0.588394	0.0064135	4	0.0761357	11	0	72.1548	3.77366e-06
2	1	0	1	0	1	606.842	0.575897	0.575433	-0.00106518	4	0.0761451	11	0	0.0998	-6.12942e-07
2	0	0	1	0	1	609.439	0.562911	0.562465	-0.00539642	4	0.0761398	11	0	1.7979	-3.0353e-06
2	0	0	1	0	1	612.036	0.549927	0.549471	-0.00857516	4	0.0761267	11	0	4.3948	-4.7118e-06
2	0	0	1	0	1	614.633	0.536942	0.536476	-0.00816766	4	0.0761088	11	0	6.9917	-4.38175e-06
2	0	0	0	0	1	617.23	0.523958	0.523527	-0.00801916	4	0.076088	11	0	9.5886	-4.19825e-06
2	0	0	1	0	1	619.827	0.510974	0.510497	-0.00998542	4	0.076065	11	0	12.1855	-5.09753e-06
2	0	0	1	0	1	622.424	0.497988	0.497503	-0.00777659	4	0.0760406	11	0	14.7825	-3.86888e-06
2	1	0	0	0	1	625.021	0.485004	0.484544	-0.00777531	4	0.0760147	11	0	17.3794	-3.76748e-06
2	1	0	1	0	1	627.617	0.472019	0.471591	-0.00755007	4	0.0759878	11	0	19.9763	-3.56054e-06
2	1	0	1	0	1	630.214	0.459035	0.458605	-0.0087687	4	0.0759591	11	0	22.5732	-4.02137e-06
2	0	0	0	0	0	632.581	0.452842	0.452383	0.0101663	5	0.0759442	11	0	0.4994	4.59908e-06
2	1	0	1	0	0	635.178	0.465826	0.465389	0.0155649	5	0.0759763	11	0	3.0963	7.24374e-06
2	0	0	1	0	0	637.775	0.478812	0.478386	0.00975178	5	0.076009	11	0	5.6933	4.66512e-06
2	1	0	0	0	0	640.372	0.491796	0.491356	0.014897	5	0.0760417	11	0	8.2902	7.31974e-06
2	1	0	1	0	0	642.968	0.504781	0.504317	0.0124187	5	0.0760742	11	0	10.8871	6.26294e-06
2	0	0	1	0	0	645.565	0.517765	0.517257	0.0101345	5	0.0761064	11	0	13.484	5.24213e-06
2	1	0	1	0	0	648.162	0.530749	0.530285	0.0105061	5	0.0761397	11	0	16.0809	5.57121e-06
2	0	0	1	0	0	650.759	0.543735	0.543317	0.0111217	5	0.0761741	11	0	18.6779	6.04258e-06
2	1	0	1	0	0	653.356	0.556719	0.556284	0.0131148	5	0.0762115	11	0	21.2748	7.29557e-06
2	0	0	1	0	0	655.953	0.569703	0.569258	0.0156916	5	0.0762541	11	0	23.8717	8.93255e-06
2	1	0	0	0	0	658.55	0.582688	0.582258	0.0225064	5	0.0763074	11	0	26.4686	1.31046e-05
2	1	0	1	0	0	661.147	0.595673	0.595227	0.0308914	5	0.0763798	11	0	29.0656	1.83874e-05
2	1	0	1	0	0	663.744	0.608658	0.608184	0.0495703	5	0.0764883	11	0	31.6625	3.01479e-05
2	1	0	0	0	0	666.341	0.621642	0.621179	0.08469	5	0.076664	11	0	34.2594	5.26077e-05
2	1	0	1	0	0	668.938	0.634626	0.634168	0.148337	5	0.076964	11	0	36.8563	9.40708e-05
2	1	0	1	0	0	671.535	0.647611	0.647156	0.262525	5	0.0774866	11	0	39.4532	0.000169895
2	1	0	0	0	0	674.132	0.660596	0.660138	0.445106	5	0.0783877	11	0	42.0502	0.000293831
2	1	0	1	0	0	676.728	0.673581	0.673132	0.741569	5	0.0799061	11	0	44.6471	0.000499174
2	1	0	1	0	0	679.325	0.686565	0.686122	1.14957	5	0.0823249	11	0	47.244	0.000788747
2	1	0	1	0	0	681.922	0.699549	0.699115	1.6733	5	0.0859787	11	0	49.8409	0.00116983
2	1	0	1	0	0	684.26	0.688762	0.688319	1.14772	5	0.0892578	11	0	52.1785	0.000789996
2	1	0	0	0	0	686.857	0.675778	0.675358	0.729811	5	0.0916681	11	0	54.7754	0.000492884
2	1	0	1	0	0	689.454	0.662794	0.662377	0.439921	5	0.093161	11	0	57.3723	0.000291393
2	1	0	1	0	0	692.051	0.649808	0.649401	0.256135	5	0.094039	11	0	59.9693	0.000166334
2	1	0	0	0	0	694.648	0.636824	0.636426	0.137662	5	0.0945343	11	0	62.5662	8.76118e-05
2	1	0	1	0	0	697.244	0.623839	0.623401	0.074167	5	0.0948002	11	0	65.1631	4.62358e-05
2	1	0	1	0	0	699.841	0.610855	0.610418	0.0369783	5	0.0949349	11	0	67.76	2.25722e-05
2	1	0	0	0	0	702.438	0.59787	0.597401	0.0139467	5	0.0949982	11	0	70.357	8.33177e-06
2	1	0	1	0	0	705.035	0.584885	0.584431	0.00669434	5	0.0950231	11	0	72.9539	3.91238e-06
2	1	0	1	0	0	707.632	0.571901	0.57144	-0.000999373	5	0.0950265	11	0	0.0999	-5.71082e-07
2	0	0	1	0	0	710.229	0.558916	0.558414	-0.00557494	5	0.0950182	11	0	2.0975	-3.11312e-06
2	0	0	0	0	0	712.826	0.545932	0.545486	-0.00432939	5	0.0950034	11	0	4.6944	-2.36162e-06
2	0	0	1	0	0	715.423	0.532947	0.532471	-0.00705669	5	0.0949846	11	0	7.2914	-3.75748e-06
2	0	0	1	0	0	718.02	0.519962	0.519505	-0.00856602	5	0.0949628	11	0	9.8883	-4.45009e-06
2	1	0	0	0	0	720.617	0.506978	0.506543	-0.00658017	5	0.0949392	11	0	12.4852	-3.33314e-06
2	0	0	1	0	0	723.214	0.493994	0.493529	-0.0119356	5	0.0949142	11	0	15.0821	-5.89054e-06
2	0	0	1	0	0	725.811	0.481009	0.480564	-0.00918677	5	0.0948881	11	0	17.679	-4.41483e-06
2	0	0	0	0	0	728.408	0.468024	0.467578	-0.0132938	5	0.0948606	11	0	20.276	-6.21588e-06
2	0	0	1	0	0	731.004	0.455039	0.454545	-0.0136623	5	0.0948315	11	0	22.8729	-6.21011e-06
2	0	0	1	0	1	733.371	0.456838	0.456385	0.00975173	6	0.0948356	11	0	1.2985	4.45055e-06
2	0	0	0	0	1	735.968	0.469822	0.469357	0.012152	6	0.0948677	11	0	3.8954	5.70362e-06
2	0	0	1	0	1	738.565	0.482806	0.48236	0.0102863	6	0.0949001	11	0	6.4923	4.96169e-06
2	0	0	1	0	1	741.162	0.495791	0.495308	0.00996357	6	0.0949325	11	0	9.0892	4.93504e-06
2	1	0	0	0	1	743.759	0.508776	0.508294	0.0135735	6	0.0949651	11	0	11.6862	6.89932e-06
2	0	0	1	0	1	746.355	0.521761	0.521336	0.00993994	6	0.0949977	11	0	14.2831	5.18204e-06
2	1	0	1	0	1	748.952	0.534745	0.53432	0.0138781	6	0.095031	11	0	16.88	7.41535e-06
2	0	0	1	0	1	751.549	0.547729	0.54723	0.0115739	6	0.0950659	11	0	19.4769	6.33356e-06
2	1	0	1	0	1	754.146	0.560715	0.560249	0.0177565	6	0.0951044	11	0	22.0739	9.94807e-06
2	1	0	1	0	1	756.743	0.573699	0.573229	0.0208832	6	0.0951494	11	0	24.6708	1.19708e-05
2	1	0	1	0	1	759.34	0.586684	0.586234	0.0260828	6	0.095207	11	0	27.2677	1.52906e-05
2	1	0	0	0	1	761.937	0.599668	0.599191	0.0396261	6	0.0952873	11	0	29.8646	2.37436e-05
2	1	0	1	0	1	764.534	0.612652	0.612209	0.0573337	6	0.0954108	11	0	32.4615	3.51002e-05
2	1	0	1	0	1	767.131	0.625638	0.625188	0.10272	6	0.0956147	11	0	35.0585	6.42191e-05
2	1	0	0	0	1	769.728	0.638622	0.638175	0.175925	6	0.0959655	11	0	37.6554	0.000112271
2	1	0	1	0	1	772.325	0.651606	0.651192	0.305793	6	0.0965798	11	0	40.2523	0.00019913
2	1	0	1	0	1	774.922	0.664591	0.664116	0.520291	6	0.0976333	11	0	42.8492	0.000345534
2	1	0	1	0	1	777.518	0.677575	0.677128	0.840047	6	0.0993741	11	0	45.4461	0.00056882
2	1	0	1	0	1	780.115	0.690561	0.690052	1.26029	6	0.102088	11	0	48.0431	0.000869667
2	1	0	0	0	1	782.453	0.697752	0.697237	1.49409	6	0.105511	11	0	50.3806	0.00104173
2	1	0	1	0	1	785.05	0.684768	0.684321	0.998568	6	0.108672	11	0	52.9775	0.000683341
2	1	0	1	0	1	787.647	0.671782	0.67132	0.616395	6	0.110778	11	0	55.5745	0.000413798
2	1	0	0	0	1	790.244	0.658798	0.65831	0.362579	6	0.112022	11	0	58.1714	0.000238689
2	1	0	1	0	1	792.841	0.645813	0.645369	0.20821	6	0.112746	11	0	60.7683	0.000134372
2	1	0	1	0	1	795.438	0.632829	0.632417	0.114871	6	0.113149	11	0	63.3652	7.26466e-05
2	1	0	0	0	1	798.035	0.619844	0.619422	0.0552713	6	0.113363	11	0	65.9622	3.42363e-05
2	1	0	1	0	1	800.631	0.606859	0.606467	0.0294378	6	0.11347	11	0	68.5591	1.7853e-05
2	1	0	1	0	1	803.228	0.593875	0.59339	0.00945235	6	0.113517	11	0	71.156	5.60893e-06
2	1	0	1	0	1	805.825	0.58089	0.580398	0.00373851	6	0.113533	11	0	73.7529	2.16982e-06
2	1	0	0	0	1	808.422	0.567906	0.56743	-1.54511e-05	6	0.113533	11	0	0.3995	-8.76742e-09
2	0	0	1	0	1	811.019	0.554921	0.554426	-0.00777803	6	0.113522	11	0	2.9965	-4.31235e-06
2	0	0	1	0	1	813.616	0.541936	0.541524	-0.00617248	6	0.113505	11	0	5.5934	-3.34255e-06
2	0	0	0	0	1	816.213	0.528952	0.528522	-0.00879032	6	0.113485	11	0	8.1903	-4.64588e-06
2	0	0	1	0	1	818.81	0.515968	0.515494	-0.0108421	6	0.113463	11	0	10.7872	-5.58902e-06
2	1	0	1	0	1	821.407	0.502982	0.502517	-0.00639317	6	0.11344	11	0	13.3842	-3.21267e-06
2	0	0	0	0	1	824.004	0.489998	0.489579	-0.0115766	6	0.113414	11	0	15.9811	-5.66764e-06
2	0	0	1	0	1	826.601	0.477013	0.476546	-0.00948317	6	0.113388	11	0	18.578	-4.51917e-06
2	0	0	1	0	1	829.198	0.464029	0.463562	-0.0086522	6	0.11336	11	0	21.1749	-4.01083e-06
2	0	0	1	0	1	831.794	0.451045	0.450543	-0.0142128	6	0.11333	11	0	23.7718	-6.40349e-06
2	1	0	1	0	0	834.161	0.460832	0.460408	0.0141618	7	0.113353	11	0	2.1525	6.5202e-06
2	0	0	1	0	0	836.758	0.473818	0.473378	0.00963233	7	0.113386	11	0	4.7495	4.55973e-06
2	0	0	0	0	0	839.355	0.486802	0.486327	0.0102925	7	0.113418	11	0	7.3464	5.00554e-06
2	1	0	1	0	0	841.952	0.499787	0.49933	0.0139024	7	0.11345	11	0	9.9433	6.9419e-06
2	1	0	1	0	0	844.549	0.512771	0.512288	0.0123439	7	0.113483	11	0	12.5402	6.32362e-06
2	1	0	1	0	0	847.145	0.525755	0.525301	0.0132292	7	0.113515	11	0	15.1371	6.94934e-06
2	1	0	1	0	0	849.742	0.538741	0.538271	0.0115301	7	0.113549	11	0	17.7341	6.20632e-06
2	1	0	1	0	0	852.339	0.551725	0.551271	0.0133702	7	0.113584	11	0	20.331	7.37058e-06
2	1	0	1	0	0	854.936	0.564709	0.564198	0.0156851	7	0.113624	11	0	22.9279	8.84947e-06
2	1	0	0	0	0	857.533	0.577694	0.577171	0.0210119	7	0.113672	11	0	25.5248	1.21275e-05
2	1	0	1	0	0	860.13	0.590678	0.590148	0.027637	7	0.113734	11	0	28.1217	1.631e-05
2	1	0	1	0	0	862.727	0.603664	0.60326	0.0444262	7	0.113824	11	0	30.7187	2.68006e-05
2	1	0	0	0	0	865.324	0.616648	0.616199	0.0662908	7	0.113966	11	0	33.3156	4.08484e-05
2	1	0	1	0	0	867.921	0.629632	0.629174	0.119252	7	0.114203	11	0	35.9125	7.50304e-05
2	1	0	1	0	0	870.518	0.642617	0.642168	0.205429	7	0.114613	11	0	38.5094	0.00013192
2	1	0	1	0	0	873.115	0.655601	0.655179	0.357615	7	0.11533	11	0	41.1063	0.000234302
2	1	0	1	0	0	875.712	0.668587	0.66813	0.593808	7	0.116548	11	0	43.7033	0.000396741
2	1	0	1	0	0	878.309	0.681571	0.681155	0.944412	7	0.118524	11	0	46.3002	0.000643291
2	1	0	1	0	0	880.905	0.694555	0.694066	1.38014	7	0.121524	11	0	48.8971	0.00095791
2	1	0	1	0	0	883.243	0.693756	0.69335	1.30054	7	0.124941	11	0	51.2347	0.000901728
2	1	0	0	0	0	885.84	0.680772	0.680324	0.872227	7	0.127727	11	0	53.8316	0.000593397
2	1	0	1	0	0	888.437	0.667787	0.667339	0.523705	7	0.1295	11	0	56.4285	0.000349489
2	1	0	1	0	0	891.034	0.654802	0.654395	0.304395	7	0.130558	11	0	59.0255	0.000199195
2	1	0	0	0	0	893.631	0.641818	0.641397	0.16945	7	0.131157	11	0	61.6224	0.000108684
2	1	0	1	0	0	896.228	0.628833	0.628396	0.0878905	7	0.131482	11	0	64.2193	5.523e-05
2	1	0	1	0	0	898.825	0.615849	0.615408	0.0466481	7	0.131653	11	0	66.8162	2.87076e-05
2	1	0	1	0	0	901.421	0.602865	0.602395	0.0234599	7	0.131736	11	0	69.4131	1.41321e-05
2	1	0	1	0	0	904.018	0.589879	0.58938	0.00990436	7	0.131771	11	0	72.0101	5.83744e-06
2	1	0	1	0	0	906.615	0.576895	0.576434	0.00133219	7	0.131781	11	0	0.000000000000000E+000	7.67921e-07
2	1	0	1	0	0	909.212	0.56391	0.563454	-0.00216464	7	0.131776	11	0	1.0987	-1.21967e-06
2	0	0	0	0	0	911.809	0.550926	0.550468	-0.00673138	7	0.131763	11	0	3.6956	-3.70541e-06
2	0	0	1	0	0	914.406	0.537942	0.537493	-0.00981555	7	0.131746	11	0	6.2925	-5.27579e-06
2	0	0	1	0	0	917.003	0.524956	0.524498	-0.0104181	7	0.131725	11	0	8.8895	-5.46427e-06
2	0	0	0	0	0	919.6	0.511972	0.511477	-0.0115407	7	0.131703	11	0	11.4864	-5.90281e-06
2	1	0	1	0	0	922.197	0.498988	0.498527	-0.00842126	7	0.131679	11	0	14.0833	-4.19822e-06
2	1	0	1	0	0	924.794	0.486003	0.485518	-0.00728958	7	0.131653	11	0	16.6802	-3.53922e-06
2	1	0	1	0	0	927.391	0.473019	0.472544	-0.0085102	7	0.131626	11	0	19.2771	-4.02144e-06
2	1	0	1	0	0	929.988	0.460033	0.459578	-0.00868031	7	0.131598	11	0	21.8741	-3.98928e-06
2	1	0	1	0	1	932.354	0.451844	0.451329	0.0125231	8	0.131579	11	0	0.2997	5.65204e-06
2	1	0	0	0	1	934.951	0.464828	0.464336	0.0135473	8	0.131611	11	0	2.8966	6.29052e-06
2	1	0	1	0	1	937.548	0.477812	0.477351	0.0139978	8	0.131643	11	0	5.4935	6.68185e-06
2	0	0	1	0	1	940.145	0.490797	0.490373	0.0105832	8	0.131676	11	0	8.0904	5.1897e-06
2	1	0	1	0	1	942.742	0.503781	0.503334	0.0129982	8	0.131708	11	0	10.6873	6.54244e-06
2	1	0	1	0	1	945.339	0.516767	0.516234	0.0139397	8	0.13174	11	0	13.2843	7.19616e-06
2	1	0	1	0	1	947.936	0.529751	0.529276	0.0141338	8	0.131773	11	0	15.8812	7.48068e-06
2	1	0	1	0	1	950.532	0.542735	0.542302	0.0107206	8	0.131807	11	0	18.4781	5.81381e-06
2	1	0	0	0	1	953.129	0.55572	0.555221	0.012474	8	0.131844	11	0	21.075	6.92582e-06
2	0	0	1	0	1	955.726	0.568704	0.568258	0.0150206	8	0.131885	11	0	23.6719	8.53559e-06
2	1	0	1	0	1	958.323	0.58169	0.581227	0.0202445	8	0.131936	11	0	26.2689	1.17666e-05
2	1	0	0	0	1	960.92	0.594674	0.594214	0.0333824	8	0.132005	11	0	28.8658	1.98363e-05
2	1	0	1	0	1	963.517	0.607658	0.607174	0.0495891	8	0.132107	11	0	31.4627	3.01092e-05
2	1	0	1	0	1	966.114	0.620643	0.620207	0.0775285	8	0.13227	11	0	34.0596	4.80837e-05
2	1	0	0	0	1	968.711	0.633628	0.633114	0.136368	8	0.132547	11	0	36.6566	8.63365e-05
2	1	0	1	0	1	971.308	0.646612	0.646198	0.241255	8	0.13303	11	0	39.2535	0.000155898
2	1	0	1	0	1	973.905	0.659597	0.659147	0.416898	8	0.133872	11	0	41.8504	0.000274797
2	1	0	1	0	1	976.502	0.672581	0.672096	0.685249	8	0.135282	11	0	44.4473	0.000460553
2	1	0	1	0	1	979.099	0.685567	0.68511	1.06512	8	0.137529	11	0	47.0443	0.000729722
2	1	0	1	0	1	981.696	0.698551	0.69812	1.52672	8	0.140875	11	0	49.6412	0.00106584
2	1	0	1	0	1	984.033	0.689761	0.689327	1.07471	8	0.144002	11	0	51.9787	0.000740825
2	1	0	1	0	1	986.63	0.676776	0.676323	0.689152	8	0.146255	11	0	54.5757	0.000466089
2	1	0	0	0	1	989.227	0.663792	0.66333	0.431276	8	0.147707	11	0	57.1726	0.000286078
2	1	0	1	0	1	991.824	0.650807	0.650373	0.246571	8	0.148571	11	0	59.7695	0.000160363
2	1	0	1	0	1	994.421	0.637823	0.637367	0.137323	8	0.149059	11	0	62.3664	8.7525e-05
2	1	0	1	0	1	997.018	0.624839	0.624392	0.07321	8	0.149323	11	0	64.9633	4.57118e-05
2	1	0	1	0	1	999.615	0.611853	0.611359	0.0359261	8	0.149458	11	0	67.5603	2.19637e-05
2	1	0	1	0	1	1002.21	0.598869	0.598388	0.0145716	8	0.149522	11	0	70.1572	8.71949e-06
2	0	0	1	0	1	1004.81	0.585884	0.585467	0.00242483	8	0.149547	11	0	72.7541	1.41966e-06
2	1	0	0	0	1	1007.41	0.5729	0.572461	0.00119077	8	0.149551	11	0	0.0999	6.81667e-07
2	1	0	1	0	1	1010	0.559916	0.559471	-0.00205584	8	0.149543	11	0	2.1973	-1.15018e-06
2	0	0	1	0	1	1012.6	0.54693	0.546452	-0.00754885	8	0.149529	11	0	4.7943	-4.12509e-06
2	0	0	0	0	1	1015.2	0.533946	0.533469	-0.00961983	8	0.14951	11	0	7.3912	-5.13188e-06
2	0	0	1	0	1	1017.79	0.520961	0.520468	-0.0105162	8	0.149489	11	0	9.9881	-5.47335e-06
2	0	0	1	0	1	1020.39	0.507977	0.507479	-0.00703814	8	0.149466	11	0	12.585	-3.57171e-06
2	1	0	0	0	1	1022.99	0.494992	0.494543	-0.00726199	8	0.149441	11	0	15.182	-3.59137e-06
2	0	0	1	0	1	1025.58	0.482007	0.481577	-0.0128589	8	0.149415	11	0	17.7789	-6.19253e-06
2	0	0	1	0	1	1028.18	0.469023	0.468555	-0.00907192	8	0.149388	11	0	20.3758	-4.2507e-06
2	1	0	1	0	1	1030.78	0.456039	0.455534	-0.00945134	8	0.149359	11	0	22.9727	-4.30541e-06
2	1	0	1	0	0	1033.14	0.455838	0.4554	0.0125452	9	0.149358	11	0	1.0987	5.71307e-06
2	1	0	1	0	0	1035.74	0.468823	0.46837	0.0143216	9	0.149391	11	0	3.6956	6.7078e-06
2	1	0	1	0	0	1038.34	0.481807	0.481337	0.0107999	9	0.149423	11	0	6.2925	5.19837e-06
2	0	0	1	0	0	1040.93	0.494793	0.494352	0.0104368	9	0.149455	11	0	8.8895	5.15946e-06
2	1	0	1	0	0	1043.53	0.507777	0.507325	0.0130021	9	0.149487	11	0	11.4864	6.59628e-06
2	1	0	1	0	0	1046.13	0.520761	0.520283	0.0144654	9	0.14952	11	0	14.0833	7.52609e-06
2	0	0	0	0	0	1048.73	0.533746	0.533324	0.0105986	9	0.149553	11	0	16.6802	5.65249e-06
2	0	0	1	0	0	1051.32	0.546731	0.546308	0.0115674	9	0.149587	11	0	19.2772	6.31938e-06
2	1	0	1	0	0	1053.92	0.559716	0.559321	0.0165022	9	0.149624	11	0	21.8741	9.23e-06
2	1	0	0	0	0	1056.52	0.5727	0.572207	0.0194981	9	0.149668	11	0	24.471	1.1157e-05
2	1	0	1	0	0	1059.11	0.585684	0.585259	0.0251751	9	0.149723	11	0	27.0679	1.47339e-05
2	1	0	1	0	0	1061.71	0.59867	0.598201	0.0360852	9	0.149798	11	0	29.6649	2.15862e-05
2	1	0	0	0	0	1064.31	0.611654	0.611256	0.058074	9	0.149914	11	0	32.2618	3.54981e-05
2	1	0	1	0	0	1066.9	0.624638	0.624198	0.0959035	9	0.150104	11	0	34.8587	5.98628e-05
2	1	0	1	0	0	1069.5	0.637623	0.637187	0.161018	9	0.15043	11	0	37.4556	0.000102599
2	1	0	1	0	0	1072.1	0.650607	0.650198	0.286898	9	0.150998	11	0	40.0525	0.00018654
2	1	0	1	0	0	1074.69	0.663593	0.663141	0.48293	9	0.151982	11	0	42.6495	0.000320251
2	1	0	1	0	0	1077.29	0.676577	0.676158	0.788578	9	0.153607	11	0	45.2464	0.000533203
2	1	0	1	0	0	1079.89	0.689561	0.689086	1.18436	9	0.156152	11	0	47.8433	0.000816124
2	1	0	1	0	0	1082.23	0.69875	0.698308	1.52908	9	0.159454	11	0	50.1809	0.00106777
2	1	0	0	0	0	1084.82	0.685766	0.685288	0.937065	9	0.162582	11	0	52.7778	0.000642159
2	1	0	1	0	0	1087.42	0.672781	0.672327	0.599178	9	0.164555	11	0	55.3747	0.000402844
2	1	0	1	0	0	1090.02	0.659797	0.659368	0.365029	9	0.1658	11	0	57.9716	0.000240689
2	1	0	1	0	0	1092.61	0.646813	0.646387	0.209761	9	0.16653	11	0	60.5685	0.000135587
2	1	0	1	0	0	1095.21	0.633827	0.633421	0.113262	9	0.166932	11	0	63.1655	7.17429e-05
2	1	0	1	0	0	1097.81	0.620843	0.620426	0.056976	9	0.167145	11	0	65.7624	3.53494e-05
2	1	0	1	0	0	1100.4	0.607859	0.607388	0.0265647	9	0.167252	11	0	68.3593	1.61351e-05
2	1	0	0	0	0	1103	0.594874	0.594414	0.0134519	9	0.167301	11	0	70.9562	7.99598e-06
2	1	0	1	0	0	1105.6	0.581889	0.581413	0.00451218	9	0.167318	11	0	73.5532	2.62344e-06
2	1	0	1	0	0	1108.2	0.568904	0.56846	-0.000456386	9	0.167317	11	0	0.0999	-2.59437e-07
2	0	0	0	0	0	1110.79	0.55592	0.555499	-0.00459967	9	0.167307	11	0	2.6968	-2.55511e-06
2	0	0	1	0	0	1113.39	0.542935	0.542505	-0.00872864	9	0.167291	11	0	5.2937	-4.73533e-06
2	1	0	1	0	0	1115.99	0.52995	0.52952	-0.00582584	9	0.167271	11	0	7.8907	-3.0849e-06
2	0	0	0	0	0	1118.58	0.516966	0.516502	-0.00974985	9	0.167249	11	0	10.4876	-5.03581e-06
2	0	0	1	0	0	1121.18	0.503981	0.503535	-0.00944482	9	0.167226	11	0	13.0845	-4.75579e-06
2	1	0	1	0	0	1123.78	0.490997	0.490537	-0.00921446	9	0.167201	11	0	15.6814	-4.52003e-06
2	0	0	1	0	0	1126.37	0.478013	0.477512	-0.010632	9	0.167175	11	0	18.2783	-5.07689e-06
2	0	0	1	0	0	1128.97	0.465027	0.464529	-0.0135989	9	0.167147	11	0	20.8753	-6.31708e-06
2	1	0	1	0	0	1131.57	0.452043	0.45162	-0.00881225	9	0.167118	11	0	23.4722	-3.97979e-06
2	1	0	0	0	1	1133.93	0.459834	0.459374	0.0111795	10	0.167136	11	0	1.8978	5.13557e-06
2	1	0	1	0	1	1136.53	0.472818	0.472411	0.0128869	10	0.167168	11	0	4.4947	6.08792e-06
2	1	0	1	0	1	1139.13	0.485803	0.48534	0.0150471	10	0.1672	11	0	7.0916	7.30296e-06
2	1	0	1	0	1	1141.72	0.498787	0.498326	0.0110204	10	0.167233	11	0	9.6885	5.49173e-06
2	1	0	0	0	1	1144.32	0.511772	0.511325	0.00958636	10	0.167265	11	0	12.2854	4.90175e-06
2	1	0	1	0	1	1146.92	0.524757	0.524342	0.0128487	10	0.167297	11	0	14.8824	6.7371e-06
2	1	0	1	0	1	1149.52	0.537742	0.537257	0.014086	10	0.16733	11	0	17.4793	7.5678e-06
2	1	0	0	0	1	1152.11	0.550726	0.550293	0.0118368	10	0.167365	11	0	20.0762	6.51368e-06
2	1	0	1	0	1	1154.71	0.56371	0.563245	0.014766	10	0.167404	11	0	22.6731	8.31685e-06
2	1	0	1	0	1	1157.31	0.576696	0.576232	0.0205525	10	0.16745	11	0	25.2701	1.1843e-05
2	1	0	0	0	1	1159.9	0.58968	0.589226	0.0288186	10	0.16751	11	0	27.867	1.69806e-05
2	1	0	1	0	1	1162.5	0.602664	0.602236	0.0420211	10	0.167594	11	0	30.4639	2.53066e-05
2	1	0	1	0	1	1165.1	0.615649	0.615176	0.0658208	10	0.167727	11	0	33.0608	4.04914e-05
2	1	0	1	0	1	1167.69	0.628633	0.6282	0.111116	10	0.167947	11	0	35.6577	6.9803e-05
2	1	0	1	0	1	1170.29	0.641619	0.641215	0.194352	10	0.16833	11	0	38.2547	0.000124621
2	1	0	1	0	1	1172.89	0.654603	0.654203	0.33504	10	0.168999	11	0	40.8516	0.000219184
2	1	0	1	0	1	1175.48	0.667587	0.667143	0.56509	10	0.170146	11	0	43.4485	0.000376996
2	1	0	0	0	1	1178.08	0.680572	0.680123	0.899856	10	0.172025	11	0	46.0454	0.000612012
2	1	0	1	0	1	1180.68	0.693557	0.693101	1.31386	10	0.174885	11	0	48.6424	0.000910636
2	1	0	1	0	1	1183.02	0.694755	0.694299	1.26848	10	0.178199	11	0	50.9799	0.000880705
2	1	0	1	0	1	1185.61	0.681771	0.681342	0.827971	10	0.180874	11	0	53.5768	0.000564131
2	1	0	0	0	1	1188.21	0.668786	0.668353	0.510578	10	0.182577	11	0	56.1738	0.000341246
2	1	0	1	0	1	1190.81	0.655801	0.655349	0.303917	10	0.183615	11	0	58.7707	0.000199172
2	1	0	1	0	1	1193.4	0.642817	0.642385	0.169735	10	0.184215	11	0	61.3676	0.000109035
2	1	0	1	0	1	1196	0.629833	0.629429	0.0904186	10	0.184544	11	0	63.9645	5.69121e-05
2	1	0	0	0	1	1198.6	0.616848	0.616435	0.0445684	10	0.184715	11	0	66.5614	2.74735e-05
2	1	0	1	0	1	1201.19	0.603863	0.603437	0.0204221	10	0.184799	11	0	69.1584	1.23235e-05
2	0	0	1	0	1	1203.79	0.590878	0.590397	0.00582277	10	0.184834	11	0	71.7553	3.43775e-06
2	1	0	0	0	1	1206.39	0.577894	0.577451	0.00142653	10	0.184844	11	0	0.000000000000000E+000	8.2375e-07
2	0	0	1	0	1	1208.99	0.56491	0.564389	-0.00538716	10	0.18484	11	0	1.0987	-3.04045e-06
2	1	0	1	0	1	1211.58	0.551924	0.551455	-0.00335007	10	0.184827	11	0	3.6957	-1.84741e-06
2	0	0	0	0	1	1214.18	0.53894	0.538462	-0.00850563	10	0.184809	11	0	6.2926	-4.57996e-06
2	0	0	1	0	1	1216.78	0.525955	0.525473	-0.0101519	10	0.184789	11	0	8.8895	-5.33456e-06
2	1	0	1	0	1	1219.37	0.512971	0.512558	-0.00793786	10	0.184767	11	0	11.4864	-4.06861e-06
2	0	0	1	0	1	1221.97	0.499987	0.499534	-0.00840759	10	0.184742	11	0	14.0833	-4.19988e-06
2	0	0	1	0	1	1224.57	0.487001	0.486493	-0.0103522	10	0.184717	11	0	16.6803	-5.03629e-06
2	0	0	1	0	1	1227.16	0.474017	0.473573	-0.0112572	10	0.184691	11	0	19.2772	-5.33111e-06
2	0	0	1	0	1	1229.76	0.461032	0.460606	-0.0135819	10	0.184663	11	0	21.8741	-6.25593e-06
2	1	0	1	0	0	1232.13	0.450844	0.450361	0.0123091	11	0.184639	11	0	0.0999	5.54353e-06
2	1	0	1	0	0	1234.72	0.463829	0.463339	0.013718	11	0.18467	11	0	2.6968	6.35607e-06
2	1	0	1	0	0	1237.32	0.476813	0.476353	0.0147953	11	0.184702	11	0	5.2937	7.04779e-06
2	1	0	1	0	0	1239.92	0.489799	0.489375	0.0135041	11	0.184735	11	0	7.8907	6.60856e-06
2	0	0	1	0	0	1242.51	0.502783	0.502342	0.0114548	11	0.184766	11	0	10.4876	5.75422e-06
2	1	0	1	0	0	1245.11	0.515768	0.515297	0.0127962	11	0.184798	11	0	13.0845	6.59387e-06
2	1	0	0	0	0	1247.71	0.528752	0.528303	0.0132356	11	0.184831	11	0	15.6814	6.99243e-06
2	0	0	1	0	0	1250.31	0.541736	0.54127	0.0114922	11	0.184864	11	0	18.2783	6.22041e-06
2	1	0	1	0	0	1252.9	0.554722	0.554274	0.0160776	11	0.1849	11	0	20.8753	8.91138e-06
2	1	0	0	0	0	1255.5	0.567706	0.56725	0.0150453	11	0.18494	11	0	23.4722	8.53444e-06
2	1	0	1	0	0	1258.1	0.58069	0.580218	0.0221883	11	0.184989	11	0	26.0691	1.28741e-05
2	1	0	1	0	0	1260.69	0.593675	0.593222	0.031706	11	0.185055	11	0	28.666	1.88087e-05
2	1	0	0	0	0	1263.29	0.60666	0.606209	0.0430284	11	0.185151	11	0	31.263	2.60842e-05
2	1	0	1	0	0	1265.89	0.619645	0.61914	0.0728699	11	0.185303	11	0	33.8599	4.51167e-05
2	1	0	1	0	0	1268.48	0.632629	0.632189	0.128961	11	0.185563	11	0	36.4568	8.15277e-05
2	1	0	1	0	0	1271.08	0.645613	0.645139	0.230644	11	0.186016	11	0	39.0537	0.000148797
2	1	0	0	0	0	1273.68	0.658598	0.658134	0.393696	11	0.186809	11	0	41.6506	0.000259105
2	1	0	1	0	0	1276.27	0.671583	0.671134	0.655437	11	0.188151	11	0	44.2476	0.000439887
2	1	0	1	0	0	1278.87	0.684568	0.68406	1.014	11	0.190293	11	0	46.8445	0.000693639
2	1	0	0	0	0	1281.47	0.697552	0.697074	1.45742	11	0.193475	11	0	49.4414	0.00101593
2	1	0	0	0	0	1283.81	0.69076	0.690347	1.12136	11	0.196644	11	0	51.779	0.000774129
2	1	0	1	0	0	1286.4	0.677775	0.677315	0.736582	11	0.199054	11	0	54.3759	0.000498898
2	1	0	1	0	0	1289	0.664791	0.664309	0.449124	11	0.200576	11	0	56.9728	0.000298357
2	1	0	1	0	0	1291.6	0.651807	0.651361	0.260187	11	0.201476	11	0	59.5697	0.000169476
2	1	0	1	0	0	1294.19	0.638821	0.638382	0.138737	11	0.201979	11	0	62.1667	8.85673e-05
2	1	0	1	0	0	1296.79	0.625837	0.625392	0.0762427	11	0.202249	11	0	64.7636	4.76816e-05
2	1	0	1	0	0	1299.39	0.612852	0.61239	0.0339481	11	0.202387	11	0	67.3605	2.07895e-05
2	1	0	0	0	0	1301.98	0.599868	0.599382	0.0177471	11	0.202452	11	0	69.9574	1.06373e-05
2	0	0	1	0	0	1304.58	0.586884	0.586466	0.00474615	11	0.202478	11	0	72.5543	2.78345e-06
2	0	0	1	0	0	1307.18	0.573898	0.573437	-0.00317704	11	0.202482	11	0	0.000000000000000E+000	-1.82183e-06
2	1	0	0	0	0	1309.78	0.560914	0.560439	-0.00223926	11	0.202474	11	0	2.0975	-1.25497e-06
2	0	0	1	0	0	1312.37	0.547929	0.547505	-0.00798059	11	0.20246	11	0	4.6944	-4.36941e-06
2	1	0	1	0	0	1314.97	0.534945	0.5345	-0.00493123	11	0.202442	11	0	7.2913	-2.63574e-06
2	1	0	0	0	0	1317.57	0.52196	0.521506	-0.00605831	11	0.20242	11	0	9.8883	-3.15945e-06
2	1	0	1	0	0	1320.16	0.508975	0.508512	-0.00740643	11	0.202397	11	0	12.4852	-3.76626e-06
2	0	0	1	0	0	1322.76	0.495991	0.495533	-0.0116885	11	0.202373	11	0	15.0821	-5.79203e-06
2	1	0	1	0	0	1325.36	0.483006	0.482548	-0.00721069	11	0.202348	11	0	17.679	-3.4795e-06
2	0	0	0	0	0	1327.95	0.470022	0.469571	-0.0133912	11	0.20232	11	0	20.2759	-6.2881e-06
2	1	0	1	0	0	1330.55	0.457037	0.456558	-0.00833969	11	0.202292	11	0	22.8729	-3.80755e-06
2	1	0	1	0	1	1332.92	0.454839	0.45438	0.0110396	12	0.202287	11	0	0.8989	5.01617e-06
2	1	0	1	0	1	1335.51	0.467825	0.467381	0.0125483	12	0.202319	11	0	3.4959	5.86485e-06
2	0	0	1	0	1	1338.11	0.480809	0.480361	0.00988738	12	0.202351	11	0	6.0928	4.74952e-06
2	1	0	1	0	1	1340.71	0.493793	0.49333	0.0122722	12	0.202382	11	0	8.6897	6.05424e-06
2	1	0	0	0	1	1343.3	0.506778	0.506291	0.0118809	12	0.202415	11	0	11.2866	6.01519e-06
2	1	0	1	0	1	1345.9	0.519763	0.519316	0.0121618	12	0.202447	11	0	13.8836	6.31585e-06
2	1	0	1	0	1	1348.5	0.532748	0.532334	0.0141066	12	0.202479	11	0	16.4805	7.50941e-06
2	0	0	0	0	1	1351.1	0.545732	0.545272	0.0119012	12	0.202513	11	0	19.0774	6.48939e-06
2	1	0	1	0	1	1353.69	0.558716	0.558281	0.0170437	12	0.20255	11	0	21.6743	9.51517e-06
2	1	0	1	0	1	1356.29	0.571702	0.57124	0.0200894	12	0.202592	11	0	24.2713	1.14759e-05
2	1	0	0	0	1	1358.89	0.584686	0.584273	0.020994	12	0.202645	11	0	26.8682	1.22662e-05
2	1	0	1	0	1	1361.48	0.597671	0.59719	0.0341157	12	0.202717	11	0	29.4651	2.03735e-05
2	1	0	1	0	1	1364.08	0.610655	0.610197	0.0504571	12	0.202826	11	0	32.062	3.07888e-05
2	1	0	1	0	1	1366.68	0.623639	0.623194	0.0863222	12	0.203003	11	0	34.6589	5.37955e-05
2	1	0	1	0	1	1369.27	0.636625	0.63622	0.154585	12	0.203308	11	0	37.2559	9.83498e-05
2	1	0	1	0	1	1371.87	0.649609	0.649178	0.266997	12	0.20384	11	0	39.8528	0.000173328
2	1	0	1	0	1	1374.47	0.662594	0.66214	0.461152	12	0.204766	11	0	42.4497	0.000305347
2	1	0	0	0	1	1377.06	0.675578	0.675118	0.744231	12	0.206309	11	0	45.0466	0.000502444
2	1	0	1	0	1	1379.66	0.688562	0.688077	1.11723	12	0.208713	11	0	47.6435	0.000768742
2	1	0	1	0	1	1382	0.699749	0.69932	1.54156	12	0.211848	11	0	49.9811	0.00107804
2	1	0	1	0	1	1384.6	0.686765	0.686345	0.971388	12	0.215012	11	0	52.578	0.000666708
2	1	0	1	0	1	1387.19	0.673781	0.673308	0.644775	12	0.217117	11	0	55.1749	0.000434132
2	1	0	1	0	1	1389.79	0.660795	0.660342	0.378163	12	0.218424	11	0	57.7719	0.000249717
2	1	0	1	0	1	1392.39	0.647811	0.647358	0.216357	12	0.219181	11	0	60.3688	0.00014006
2	1	0	1	0	1	1394.98	0.634826	0.63437	0.113232	12	0.219594	11	0	62.9657	7.18311e-05
2	1	0	0	0	1	1397.58	0.621842	0.621431	0.0601921	12	0.219812	11	0	65.5626	3.74052e-05
2	1	0	1	0	1	1400.18	0.608857	0.608435	0.0278975	12	0.219921	11	0	68.1596	1.69738e-05
2	1	0	1	0	1	1402.77	0.595872	0.595436	0.00967399	12	0.219971	11	0	70.7565	5.76024e-06
2	1	0	0	0	1	1405.37	0.582888	0.582432	0.0046071	12	0.219988	11	0	73.3534	2.68332e-06
2	0	0	1	0	1	1407.97	0.569903	0.569464	-0.00239329	12	0.219988	11	0	0.2996	-1.36289e-06
2	0	0	1	0	1	1410.57	0.556919	0.556451	-0.00758039	12	0.219978	11	0	2.8965	-4.21811e-06
2	0	0	0	0	1	1413.16	0.543934	0.543491	-0.00655934	12	0.219962	11	0	5.4935	-3.56494e-06
2	1	0	1	0	1	1415.76	0.530949	0.530521	-0.00535586	12	0.219943	11	0	8.0904	-2.8414e-06
2	0	0	1	0	1	1418.36	0.517965	0.517485	-0.0100278	12	0.219921	11	0	10.6873	-5.18926e-06
2	0	0	1	0	1	1420.95	0.504981	0.504531	-0.00820256	12	0.219898	11	0	13.2842	-4.13845e-06
2	0	0	1	0	1	1423.55	0.491995	0.491545	-0.012367	12	0.219874	11	0	15.8812	-6.07895e-06
2	1	0	1	0	1	1426.15	0.479011	0.47854	-0.00779643	12	0.219848	11	0	18.4781	-3.7309e-06
2	0	0	1	0	1	1428.74	0.466026	0.465559	-0.0125241	12	0.219821	11	0	21.075	-5.8307e-06
2	0	0	0	0	1	1431.34	0.453042	0.452546	-0.0135395	12	0.219792	11	0	23.6719	-6.12724e-06
2	0	0	1	0	0	1433.71	0.458835	0.458368	0.0102014	13	0.219805	11	0	1.698	4.67598e-06
2	1	0	1	0	0	1436.3	0.471819	0.471408	0.0130558	13	0.219837	11	0	4.2949	6.15463e-06
2	0	0	0	0	0	1438.9	0.484804	0.48434	0.0108087	13	0.219869	11	0	6.8918	5.23509e-06
2	1	0	1	0	0	1441.5	0.497789	0.497343	0.0117448	13	0.219901	11	0	9.4888	5.84122e-06
2	1	0	1	0	0	1444.1	0.510773	0.510336	0.0137082	13	0.219933	11	0	12.0857	6.99579e-06
2	1	0	0	0	0	1446.69	0.523758	0.523299	0.0108592	13	0.219965	11	0	14.6826	5.68261e-06
2	0	0	1	0	0	1449.29	0.536742	0.536259	0.0104463	13	0.219998	11	0	17.2795	5.60191e-06
2	1	0	1	0	0	1451.89	0.549728	0.549262	0.0138569	13	0.220032	11	0	19.8765	7.61109e-06
2	1	0	0	0	0	1454.48	0.562712	0.562297	0.0156599	13	0.220071	11	0	22.4734	8.80552e-06
2	1	0	1	0	0	1457.08	0.575696	0.575235	0.0205004	13	0.220115	11	0	25.0703	1.17925e-05
2	1	0	1	0	0	1459.68	0.588681	0.588233	0.0264951	13	0.220172	11	0	27.6672	1.55853e-05
2	1	0	1	0	0	1462.27	0.601665	0.601207	0.0400286	13	0.220253	11	0	30.2641	2.40654e-05
2	1	0	1	0	0	1464.87	0.614651	0.614232	0.0627102	13	0.220378	11	0	32.8611	3.85186e-05
2	1	0	1	0	0	1467.47	0.627635	0.627192	0.101955	13	0.220585	11	0	35.458	6.39453e-05
2	1	0	1	0	0	1470.06	0.640619	0.640203	0.183672	13	0.220945	11	0	38.0549	0.000117588
2	1	0	0	0	0	1472.66	0.653604	0.653102	0.320571	13	0.22158	11	0	40.6518	0.000209366
2	1	0	1	0	0	1475.26	0.666588	0.666148	0.539999	13	0.222674	11	0	43.2487	0.000359719
2	1	0	1	0	0	1477.86	0.679574	0.679147	0.859337	13	0.224469	11	0	45.8457	0.000583616
2	1	0	0	0	0	1480.45	0.692558	0.692061	1.28998	13	0.227232	11	0	48.4426	0.000892743
2	1	0	0	0	0	1482.79	0.695754	0.695291	1.35122	13	0.230555	11	0	50.7802	0.000939491
2	1	0	1	0	0	1485.39	0.682769	0.682327	0.853289	13	0.233375	11	0	53.3771	0.000582222
2	1	0	1	0	0	1487.98	0.669785	0.669367	0.525361	13	0.235129	11	0	55.974	0.000351659
2	1	0	1	0	0	1490.58	0.6568	0.656358	0.319335	13	0.236203	11	0	58.5709	0.000209598
2	1	0	0	0	0	1493.18	0.643816	0.643323	0.174762	13	0.236831	11	0	61.1678	0.000112429
2	1	0	1	0	0	1495.77	0.630831	0.630349	0.0962212	13	0.237176	11	0	63.7648	6.06529e-05
2	1	0	1	0	0	1498.37	0.617846	0.617445	0.0491797	13	0.237353	11	0	66.3617	3.03658e-05
2	1	0	0	0	0	1500.97	0.604862	0.60441	0.022482	13	0.23744	11	0	68.9586	1.35883e-05
2	1	0	1	0	0	1503.56	0.591877	0.591404	0.007937	13	0.237477	11	0	71.5555	4.69397e-06
2	0	0	1	0	0	1506.16	0.578892	0.578458	-0.00113847	13	0.237488	11	0	0.0999	-6.58558e-07
2	1	0	0	0	0	1508.76	0.565908	0.565419	-0.00100062	13	0.237484	11	0	1.0987	-5.65772e-07
2	1	0	1	0	0	1511.36	0.552923	0.552454	-0.00686976	13	0.237472	11	0	3.6956	-3.79523e-06
2	0	0	1	0	0	1513.95	0.539939	0.539488	-0.00784507	13	0.237454	11	0	6.2925	-4.23232e-06
2	1	0	1	0	0	1516.55	0.526955	0.526497	-0.00601366	13	0.237435	11	0	8.8894	-3.16618e-06
2	0	0	1	0	0	1519.15	0.513969	0.513506	-0.0112689	13	0.237412	11	0	11.4864	-5.78663e-06
2	0	0	1	0	0	1521.74	0.500985	0.500549	-0.0100521	13	0.237389	11	0	14.0833	-5.03158e-06
2	0	0	1	0	0	1524.34	0.488	0.487535	-0.0122875	13	0.237364	11	0	16.6802	-5.99059e-06
2	0	0	0	0	0	1526.94	0.475016	0.474528	-0.0122936	13	0.237338	11	0	19.2771	-5.83367e-06
2	0	0	1	0	0	1529.53	0.462032	0.461578	-0.0111142	13	0.23731	11	0	21.874	-5.13008e-06
2	0	0	1	0	1	1531.95	0.450071	0.449592	-0.00389353	14	0.237283	11	0	24.2853	-1.7505e-06
2	1	0	1	0	1	1534.5	0.462831	0.462345	0.0140039	14	0.237313	11	0	2.4971	6.47462e-06
2	1	0	1	0	1	1537.09	0.475815	0.475326	0.0141	14	0.237345	11	0	5.094	6.70208e-06
2	1	0	1	0	1	1539.69	0.488799	0.488332	0.0120337	14	0.237377	11	0	7.6909	5.87646e-06
2	1	0	0	0	1	1542.29	0.501784	0.50133	0.014763	14	0.237409	11	0	10.2878	7.40115e-06
2	1	0	1	0	1	1544.89	0.514768	0.514284	0.0121559	14	0.23744	11	0	12.8847	6.25158e-06
2	0	0	1	0	1	1547.48	0.527754	0.527306	0.00985821	14	0.237473	11	0	15.4817	5.19829e-06
2	1	0	0	0	1	1550.08	0.540738	0.540281	0.0152757	14	0.237506	11	0	18.0786	8.25316e-06
2	1	0	1	0	1	1552.68	0.553722	0.553237	0.01602	14	0.237541	11	0	20.6755	8.86288e-06
2	1	0	1	0	1	1555.27	0.566707	0.566272	0.0146576	14	0.237581	11	0	23.2724	8.30022e-06
2	1	0	1	0	1	1557.87	0.579691	0.579249	0.0227649	14	0.237628	11	0	25.8693	1.31866e-05
2	1	0	1	0	1	1560.47	0.592676	0.592228	0.0277703	14	0.237691	11	0	28.4663	1.64464e-05
2	1	0	1	0	1	1563.06	0.605661	0.605232	0.0408161	14	0.237781	11	0	31.0632	2.47032e-05
2	1	0	1	0	1	1565.66	0.618645	0.6182	0.0677769	14	0.237925	11	0	33.6601	4.18997e-05
2	1	0	0	0	1	1568.26	0.63163	0.63121	0.123835	14	0.238169	11	0	36.257	7.81656e-05
2	1	0	1	0	1	1570.85	0.644615	0.6442	0.216366	14	0.238594	11	0	38.854	0.000139383
2	1	0	1	0	1	1573.45	0.657599	0.657164	0.372994	14	0.239342	11	0	41.4509	0.000245118
2	1	0	0	0	1	1576.05	0.670584	0.670113	0.619523	14	0.240616	11	0	44.0478	0.00041515
2	1	0	1	0	1	1578.65	0.683568	0.683115	0.974432	14	0.242672	11	0	46.6447	0.000665649
2	1	0	1	0	1	1581.24	0.696554	0.696078	1.38748	14	0.245728	11	0	49.2417	0.000965794
2	1	0	1	0	1	1583.58	0.691759	0.691284	1.13261	14	0.248908	11	0	51.5792	0.000782956
2	1	0	1	0	1	1586.18	0.678774	0.678367	0.747666	14	0.251328	11	0	54.1761	0.000507192
2	1	0	1	0	1	1588.77	0.665789	0.665347	0.470938	14	0.252903	11	0	56.7731	0.000313337
2	1	0	1	0	1	1591.37	0.652805	0.652369	0.268149	14	0.253838	11	0	59.37	0.000174932
2	1	0	1	0	1	1593.97	0.63982	0.639401	0.144856	14	0.254359	11	0	61.9669	9.26213e-05
2	1	0	0	0	1	1596.56	0.626836	0.626394	0.0793227	14	0.254641	11	0	64.5638	4.96872e-05
2	1	0	1	0	1	1599.16	0.613852	0.613369	0.0391944	14	0.254784	11	0	67.1607	2.40406e-05
2	1	0	1	0	1	1601.76	0.600866	0.600416	0.0153162	14	0.254851	11	0	69.7577	9.19607e-06
2	0	0	0	0	1	1604.35	0.587882	0.58741	0.00296141	14	0.254878	11	0	72.3546	1.73956e-06
2	1	0	1	0	1	1606.95	0.574897	0.57447	-0.00151778	14	0.254883	11	0	0.000000000000000E+000	-8.71918e-07
2	1	0	1	0	1	1609.55	0.561913	0.56146	-0.00351799	14	0.254876	11	0	2.2973	-1.97521e-06
2	1	0	1	0	1	1612.15	0.548929	0.548458	-0.00537457	14	0.254862	11	0	4.8942	-2.94772e-06
2	1	0	1	0	1	1614.74	0.535943	0.53552	-0.00684329	14	0.254844	11	0	7.4912	-3.66472e-06
2	0	0	1	0	1	1617.34	0.522959	0.52252	-0.00634772	14	0.254823	11	0	10.0881	-3.31681e-06
2	0	0	1	0	1	1619.94	0.509974	0.509514	-0.00989988	14	0.2548	11	0	12.685	-5.04413e-06
2	0	0	0	0	1	1622.53	0.49699	0.496506	-0.00942005	14	0.254776	11	0	15.2819	-4.67711e-06
2	0	0	1	0	1	1625.13	0.484005	0.483586	-0.00983624	14	0.254751	11	0	17.8789	-4.75666e-06
2	0	0	1	0	1	1627.73	0.47102	0.470563	-0.0130518	14	0.254725	11	0	20.4758	-6.1417e-06
2	0	0	0	0	1	1630.32	0.458036	0.45763	-0.0139158	14	0.254697	11	0	23.0727	-6.36828e-06
2	1	0	1	0	0	1632.69	0.453841	0.453333	0.0145332	15	0.254687	11	0	0.7542	6.58838e-06
2	1	0	1	0	0	1635.29	0.466825	0.466372	0.0146163	15	0.254719	11	0	3.3511	6.81662e-06
2	1	0	0	0	0	1637.88	0.47981	0.479321	0.0131049	15	0.254751	11	0	5.948	6.28145e-06
2	1	0	1	0	0	1640.48	0.492794	0.492305	0.0128746	15	0.254782	11	0	8.5449	6.33821e-06
2	0	0	1	0	0	1643.08	0.50578	0.505381	0.0102554	15	0.254814	11	0	11.1419	5.18286e-06
2	0	0	0	0	0	1645.68	0.518764	0.51831	0.0101209	15	0.254846	11	0	13.7388	5.24578e-06
2	0	0	1	0	0	1648.27	0.531748	0.531321	0.00982235	15	0.254878	11	0	16.3357	5.21882e-06
2	1	0	1	0	0	1650.87	0.544733	0.544322	0.011179	15	0.254912	11	0	18.9326	6.08497e-06
2	1	0	1	0	0	1653.47	0.557717	0.55726	0.016375	15	0.254948	11	0	21.5295	9.12512e-06
2	1	0	1	0	0	1656.06	0.570703	0.570231	0.0198103	15	0.25499	11	0	24.1265	1.12964e-05
2	1	0	1	0	0	1658.66	0.583687	0.583242	0.024555	15	0.255041	11	0	26.7234	1.43215e-05
2	1	0	1	0	0	1661.26	0.596671	0.596246	0.0337128	15	0.255109	11	0	29.3203	2.01011e-05
2	1	0	0	0	0	1663.85	0.609656	0.609203	0.0504641	15	0.255212	11	0	31.9172	3.07429e-05
2	1	0	1	0	0	1666.45	0.622641	0.622245	0.0847755	15	0.255378	11	0	34.5142	5.27511e-05
2	1	0	1	0	0	1669.05	0.635626	0.635209	0.146017	15	0.255665	11	0	37.1111	9.27515e-05
2	1	0	0	0	0	1671.64	0.64861	0.648169	0.25491	15	0.256169	11	0	39.708	0.000165225
2	1	0	1	0	0	1674.24	0.661594	0.661162	0.43975	15	0.25705	11	0	42.3049	0.000290746
2	1	0	1	0	0	1676.84	0.67458	0.674172	0.71722	15	0.258531	11	0	44.9019	0.00048353
2	1	0	0	0	0	1679.44	0.687564	0.687131	1.09898	15	0.260874	11	0	47.4988	0.000755145
2	1	0	1	0	0	1681.92	0.699974	0.699384	1.52459	15	0.264124	11	0	49.9808	0.00106627
2	1	0	1	0	0	1684.37	0.687763	0.687303	1.04958	15	0.267236	11	0	52.4333	0.000721382
2	1	0	1	0	0	1686.97	0.674779	0.674357	0.668672	15	0.269429	11	0	55.0302	0.000450924
2	1	0	1	0	0	1689.56	0.661794	0.661367	0.394156	15	0.270774	11	0	57.6271	0.000260682
2	1	0	0	0	0	1692.16	0.64881	0.648362	0.224485	15	0.271555	11	0	60.224	0.000145548
2	1	0	1	0	0	1694.76	0.635826	0.635349	0.121122	15	0.271983	11	0	62.8209	7.69548e-05
2	1	0	1	0	0	1697.35	0.62284	0.622374	0.0612228	15	0.272209	11	0	65.4179	3.81035e-05
2	1	0	0	0	0	1699.95	0.609856	0.609369	0.0281572	15	0.272323	11	0	68.0148	1.71581e-05
2	1	0	1	0	0	1702.55	0.596871	0.596395	0.0106942	15	0.272375	11	0	70.6117	6.378e-06
2	0	0	1	0	0	1705.14	0.583887	0.583473	0.00154549	15	0.272394	11	0	73.2086	9.01755e-07
2	1	0	0	0	0	1707.74	0.570902	0.570428	0.000538816	15	0.272394	11	0	0.000000000000000E+000	3.07355e-07
2	0	0	1	0	0	1710.34	0.557917	0.557506	-0.00482454	15	0.272385	11	0	2.9965	-2.68971e-06
2	0	0	1	0	0	1712.94	0.544933	0.544501	-0.00772012	15	0.272369	11	0	5.5934	-4.20361e-06
2	0	0	1	0	0	1715.53	0.531948	0.531512	-0.00953113	15	0.27235	11	0	8.1903	-5.06591e-06
2	0	0	0	0	0	1718.13	0.518964	0.51853	-0.0108204	15	0.272329	11	0	10.7872	-5.61068e-06
2	1	0	1	0	0	1720.73	0.505979	0.505525	-0.00768436	15	0.272307	11	0	13.3842	-3.88464e-06
2	0	0	1	0	0	1723.32	0.492994	0.492509	-0.00963874	15	0.272282	11	0	15.9811	-4.74717e-06
2	0	0	0	0	0	1725.92	0.48001	0.479568	-0.0125084	15	0.272257	11	0	18.578	-5.99863e-06
2	1	0	1	0	0	1728.52	0.467025	0.466578	-0.00958096	15	0.27223	11	0	21.1749	-4.47027e-06
2	0	0	1	0	0	1731.11	0.45404	0.453612	-0.0108526	15	0.272202	11	0	23.7719	-4.92286e-06
2	0	0	0	0	0	1731.92	0.450021	0.449649	-0.0252481	15	0.272193	11	0	24.575	-1.13528e-05