File: ACS_Catal_2026/Figures_Na_K/main_figures/data/EC/20251112_2-148_alpha_reproducibility/20251112_2-148_006_gamma_reproducibility_2_K2_03_CVA_C02.mpt
EC-Lab ASCII FILE
Nb header lines : 66

Cyclic Voltammetry Advanced

Run on channel : 2 (SN 69290)
User :
CE vs. WE compliance from -10 V to 10 V
Electrode connection : standard
Potential control : Ewe
Ewe ctrl range : min = -1.00 V, max = 1.00 V
Safety Limits :
	Do not start on E overload
Acquisition started on : 11/12/2025 20:23:02.181
Loaded Setting File :  C:\Users\User\Documents\EC-Lab\Data\Yatsuzuka\20251112_2-148_alpha_reproducibility\20251112_2-148_002_alpha_reproducibility_2_K1.mps
Saved on :
	File : 20251112_2-148_006_gamma_reproducibility_2_K2_r_03_CVA_C02.mpr
	Directory : C:\Users\User\Documents\EC-Lab\Data\Yatsuzuka\20251112_2-148_alpha_reproducibility\
	Host : 192.109.209.127
Device : SP-150e (SN .003883)
Address : 192.109.209.128
EC-Lab for windows v11.52 (software)
Internet server v11.52 (firmware)
Command interpretor v11.50 (firmware)
Electrode material :
Initial state :
Electrolyte :
Comments :
Electrode surface area : 0.001 cm2
Characteristic mass : 0.001 g
Equivalent Weight : 0.000 g/eq.
Density : 0.000 g/cm3
Volume (V) : 0.001 cm3
Cycle Definition : Charge/Discharge alternance
Ei (V)              0.450
vs.                 Ref
ti (h:m:s)          0:00:10.0000
dti (s)             0.0000
dE/dt               5.000
dE/dt unit          mV/s
E1 (V)              0.700
vs.                 Ref
t1 (h:m:s)          0:00:0.0000
dt1 (s)             0.1000
Step percent        50
N                   10
E range min (V)     -1.000
E range max (V)     1.000
I Range             10 mA
I Range min         Unset
I Range max         Unset
I Range init        Unset
Bandwidth           5
E2 (V)              0.450
vs.                 Ref
t2 (h:m:s)          0:00:0.0000
dt2 (s)             0.1000
nc cycles           14
nr                  1
Reverse Scan        0
Ef (V)              0.000
vs.                 Eoc
tf (h:m:s)          0:00:0.0000
dtf (s)             0.1000

mode	ox/red	error	control changes	Ns changes	counter inc.	time/s	control/V	Ewe/V	<I>/mA	cycle number	(Q-Qo)/C	I Range	Ns	step time/s	P/W
2	1	0	0	0	0	232.601	0.450021	0.44963	0.0059486	1	0.0000000E+000	11	0	0.000000000000000E+000	2.67467e-06
2	1	0	1	0	0	235.153	0.462781	0.462342	0.00319287	1	8.50023e-06	11	0	2.4971	1.4762e-06
2	1	0	0	0	0	237.75	0.475765	0.475263	0.00320526	1	1.71295e-05	11	0	5.094	1.52334e-06
2	0	0	1	0	0	240.347	0.488749	0.488287	0.00322135	1	2.59477e-05	11	0	7.6909	1.57294e-06
2	0	0	1	0	0	242.944	0.501734	0.501265	0.00323977	1	3.46837e-05	11	0	10.2878	1.62399e-06
2	1	0	1	0	0	245.541	0.514718	0.514282	0.00319353	1	4.34284e-05	11	0	12.8847	1.64238e-06
2	1	0	1	0	0	248.138	0.527704	0.527254	0.0032749	1	5.22398e-05	11	0	15.4817	1.7267e-06
2	1	0	1	0	0	250.735	0.540688	0.540281	0.0033266	1	6.1095e-05	11	0	18.0786	1.7973e-06
2	1	0	1	0	0	253.332	0.553672	0.553236	0.00339451	1	7.0192e-05	11	0	20.6755	1.87796e-06
2	1	0	0	0	0	255.929	0.566657	0.566197	0.00370549	1	7.9823e-05	11	0	23.2724	2.09804e-06
2	1	0	1	0	0	258.526	0.579642	0.579203	0.00404088	1	9.01357e-05	11	0	25.8694	2.34049e-06
2	1	0	1	0	0	261.123	0.592626	0.592168	0.00485014	1	0.000101981	11	0	28.4663	2.8721e-06
2	1	0	0	0	0	263.72	0.605611	0.605154	0.00674345	1	0.000117134	11	0	31.0632	4.08082e-06
2	1	0	1	0	0	266.316	0.618595	0.618136	0.0113436	1	0.000140124	11	0	33.6601	7.01192e-06
2	1	0	1	0	0	268.913	0.631581	0.631174	0.022054	1	0.000182019	11	0	36.2571	1.39199e-05
2	1	0	0	0	0	271.51	0.644565	0.644094	0.0443749	1	0.000265487	11	0	38.854	2.85816e-05
2	1	0	1	0	0	274.107	0.657549	0.657124	0.0856581	1	0.000429762	11	0	41.4509	5.6288e-05
2	1	0	1	0	0	276.704	0.670534	0.670077	0.153638	1	0.000734629	11	0	44.0478	0.000102949
2	1	0	1	0	0	279.301	0.683518	0.68311	0.253477	1	0.00125742	11	0	46.6447	0.000173153
2	1	0	1	0	0	281.898	0.696504	0.69606	0.391022	1	0.00208596	11	0	49.2417	0.000272174
2	1	0	0	0	0	284.246	0.691759	0.691336	0.335663	1	0.00299918	11	0	51.5892	0.000232056
2	1	0	1	0	0	286.842	0.678774	0.678368	0.214144	1	0.00370355	11	0	54.1861	0.000145268
2	1	0	1	0	0	289.439	0.665789	0.665344	0.126207	1	0.00413901	11	0	56.7831	8.3971e-05
2	1	0	0	0	0	292.036	0.652805	0.652352	0.0683461	1	0.0043848	11	0	59.38	4.45857e-05
2	1	0	1	0	0	294.633	0.63982	0.63941	0.0339116	1	0.00451305	11	0	61.9769	2.16834e-05
2	1	0	1	0	0	297.23	0.626836	0.626386	0.0153663	1	0.00457371	11	0	64.5738	9.62521e-06
2	1	0	1	0	0	299.827	0.613852	0.613394	0.00668397	1	0.00460036	11	0	67.1707	4.09991e-06
2	1	0	1	0	0	302.424	0.600866	0.600431	0.00303768	1	0.00461183	11	0	69.7677	1.82392e-06
2	0	0	1	0	0	305.021	0.587882	0.587427	0.00158768	1	0.00461704	11	0	72.3646	9.32644e-07
2	1	0	1	0	0	307.618	0.574897	0.574442	0.000957375	1	0.00461982	11	0	74.9615	5.49957e-07
2	0	0	0	0	0	310.215	0.561913	0.561464	0.000569207	1	0.00462147	11	0	77.5584	3.19589e-07
2	0	0	1	0	0	312.812	0.548929	0.548497	0.000459919	1	0.00462249	11	0	80.1553	2.52264e-07
2	1	0	1	0	0	315.409	0.535943	0.535505	0.000322945	1	0.00462321	11	0	82.7523	1.72939e-07
2	0	0	0	0	0	318.006	0.522959	0.522485	0.000234402	1	0.00462363	11	0	85.3492	1.22471e-07
2	1	0	1	0	0	320.602	0.509974	0.509515	0.000256899	1	0.00462394	11	0	0.1998	1.30894e-07
2	0	0	1	0	0	323.199	0.49699	0.496491	0.000113872	1	0.00462404	11	0	0.0999	5.65364e-08
2	0	0	0	0	0	325.796	0.484005	0.483542	6.36144e-05	1	0.00462395	11	0	0.2997	3.07602e-08
2	1	0	1	0	0	328.393	0.47102	0.470545	5.04178e-05	1	0.00462377	11	0	0.000000000000000E+000	2.37239e-08
2	0	0	1	0	0	330.99	0.458036	0.457608	-0.00010033	1	0.00462347	11	0	0.8989	-4.59116e-08
2	1	0	0	0	1	333.357	0.453841	0.453353	0.00269349	2	0.00462523	11	0	0.7642	1.2211e-06
2	1	0	1	0	1	335.953	0.466825	0.466336	0.0027835	2	0.00463262	11	0	3.3611	1.29804e-06
2	1	0	1	0	1	338.55	0.47981	0.479319	0.00280504	2	0.00464019	11	0	5.958	1.34451e-06
2	1	0	1	0	1	341.147	0.492794	0.49232	0.00277564	2	0.00464779	11	0	8.5549	1.3665e-06
2	1	0	1	0	1	343.744	0.50578	0.505342	0.00277599	2	0.00465521	11	0	11.1519	1.40282e-06
2	1	0	1	0	1	346.341	0.518764	0.518317	0.00274838	2	0.0046626	11	0	13.7488	1.42453e-06
2	1	0	1	0	1	348.938	0.531748	0.531355	0.00274002	2	0.00467011	11	0	16.3457	1.45592e-06
2	1	0	0	0	1	351.535	0.544733	0.544304	0.00276781	2	0.00467768	11	0	18.9426	1.50653e-06
2	1	0	1	0	1	354.132	0.557717	0.557273	0.00295111	2	0.00468548	11	0	21.5395	1.64457e-06
2	1	0	1	0	1	356.729	0.570703	0.570258	0.00314116	2	0.00469363	11	0	24.1365	1.79127e-06
2	1	0	0	0	1	359.326	0.583687	0.583222	0.00343595	2	0.00470251	11	0	26.7334	2.00392e-06
2	1	0	1	0	1	361.923	0.596671	0.596222	0.00453481	2	0.0047131	11	0	29.3303	2.70375e-06
2	1	0	1	0	1	364.52	0.609656	0.609209	0.0069725	2	0.00472789	11	0	31.9272	4.24771e-06
2	1	0	0	0	1	367.117	0.622641	0.622232	0.0132774	2	0.0047534	11	0	34.5242	8.26165e-06
2	1	0	1	0	1	369.713	0.635626	0.635191	0.0270971	2	0.00480398	11	0	37.1211	1.72119e-05
2	1	0	1	0	1	372.31	0.64861	0.64813	0.0553027	2	0.00490772	11	0	39.718	3.58433e-05
2	1	0	1	0	1	374.907	0.661594	0.661189	0.105599	2	0.00511174	11	0	42.3149	6.98209e-05
2	1	0	1	0	1	377.504	0.67458	0.674148	0.184655	2	0.00548258	11	0	44.9119	0.000124485
2	1	0	1	0	1	380.101	0.687564	0.687101	0.297381	2	0.00610135	11	0	47.5088	0.000204331
2	1	0	0	0	1	382.583	0.699974	0.69967	0.443857	2	0.00701507	11	0	49.9908	0.000310554
2	1	0	1	0	1	385.036	0.687763	0.687335	0.29507	2	0.00791045	11	0	52.4433	0.000202812
2	1	0	0	0	1	387.633	0.674779	0.674337	0.181832	2	0.00851906	11	0	55.0402	0.000122616
2	1	0	1	0	1	390.229	0.661794	0.661359	0.106547	2	0.00888622	11	0	57.6371	7.04655e-05
2	1	0	1	0	1	392.826	0.64881	0.648356	0.0554278	2	0.00908995	11	0	60.234	3.59369e-05
2	1	0	1	0	1	395.423	0.635826	0.635403	0.026601	2	0.00919208	11	0	62.8309	1.69023e-05
2	1	0	1	0	1	398.02	0.62284	0.622428	0.0115853	2	0.00923903	11	0	65.4279	7.21101e-06
2	1	0	1	0	1	400.617	0.609856	0.60942	0.0050199	2	0.009259	11	0	68.0248	3.05923e-06
2	1	0	1	0	1	403.214	0.596871	0.596369	0.00225493	2	0.00926746	11	0	70.6217	1.34477e-06
2	1	0	0	0	1	405.811	0.583887	0.583483	0.00120407	2	0.00927135	11	0	73.2186	7.02556e-07
2	1	0	1	0	1	408.408	0.570902	0.570456	0.000762878	2	0.00927344	11	0	75.8156	4.35189e-07
2	1	0	1	0	1	411.005	0.557917	0.55749	0.000531536	2	0.00927472	11	0	78.4125	2.96326e-07
2	1	0	0	0	1	413.602	0.544933	0.544506	0.000338522	2	0.00927551	11	0	81.0094	1.84328e-07
2	1	0	1	0	1	416.199	0.531948	0.531492	0.000298892	2	0.00927598	11	0	83.6063	1.58859e-07
2	1	0	1	0	1	418.796	0.518964	0.518524	0.000259329	2	0.00927625	11	0	0.1997	1.34468e-07
2	1	0	0	0	1	421.393	0.505979	0.505514	0.000115564	2	0.00927639	11	0	0.000000000000000E+000	5.84194e-08
2	1	0	1	0	1	423.989	0.492994	0.492538	0.000100408	2	0.00927637	11	0	0.2997	4.94546e-08
2	1	0	1	0	1	426.586	0.48001	0.479551	8.31876e-05	2	0.0092762	11	0	0.000000000000000E+000	3.98927e-08
2	0	0	1	0	1	429.183	0.467025	0.466626	4.09797e-05	2	0.00927592	11	0	0.000000000000000E+000	1.91222e-08
2	1	0	1	0	1	431.78	0.45404	0.453567	-0.000152355	2	0.00927539	11	0	1.8978	-6.9103e-08
2	0	0	1	0	0	434.147	0.457836	0.45739	0.00265292	3	0.00927946	11	0	1.5632	1.21342e-06
2	1	0	0	0	0	436.744	0.470821	0.470395	0.00277494	3	0.00928675	11	0	4.1602	1.30532e-06
2	1	0	1	0	0	439.34	0.483806	0.483382	0.00265588	3	0.00929418	11	0	6.7571	1.2838e-06
2	1	0	1	0	0	441.937	0.49679	0.496325	0.00268135	3	0.00930157	11	0	9.354	1.33082e-06
2	1	0	1	0	0	444.534	0.509774	0.50934	0.00271099	3	0.00930891	11	0	11.9509	1.38081e-06
2	1	0	0	0	0	447.131	0.522759	0.522304	0.00273632	3	0.00931632	11	0	14.5478	1.42919e-06
2	1	0	1	0	0	449.728	0.535744	0.5353	0.00267127	3	0.00932372	11	0	17.1448	1.42993e-06
2	1	0	1	0	0	452.325	0.548729	0.548306	0.00273081	3	0.00933121	11	0	19.7417	1.49732e-06
2	1	0	0	0	0	454.922	0.561713	0.561244	0.00294742	3	0.00933889	11	0	22.3386	1.65423e-06
2	1	0	1	0	0	457.519	0.574697	0.574272	0.00316164	3	0.00934708	11	0	24.9355	1.81564e-06
2	1	0	1	0	0	460.116	0.587683	0.587215	0.0036555	3	0.00935625	11	0	27.5325	2.14656e-06
2	1	0	0	0	0	462.713	0.600667	0.60022	0.0049096	3	0.00936756	11	0	30.1294	2.94684e-06
2	1	0	1	0	0	465.31	0.613651	0.613202	0.00819488	3	0.0093844	11	0	32.7263	5.02512e-06
2	1	0	1	0	0	467.907	0.626636	0.626187	0.0162222	3	0.00941508	11	0	35.3232	1.01581e-05
2	1	0	1	0	0	470.503	0.63962	0.639191	0.033866	3	0.00947775	11	0	37.9201	2.16468e-05
2	1	0	1	0	0	473.1	0.652606	0.652183	0.068105	3	0.00960624	11	0	40.5171	4.44169e-05
2	1	0	1	0	0	475.697	0.66559	0.66511	0.126734	3	0.00985399	11	0	43.114	8.42919e-05
2	1	0	1	0	0	478.294	0.678574	0.678149	0.216749	3	0.0102937	11	0	45.7109	0.000146988
2	1	0	0	0	0	480.891	0.691559	0.691126	0.342792	3	0.0110128	11	0	48.3078	0.000236913
2	1	0	0	0	0	483.229	0.696753	0.696328	0.394841	3	0.0119415	11	0	50.6454	0.000274939
2	1	0	1	0	0	485.826	0.683768	0.683352	0.255677	3	0.0127747	11	0	53.2423	0.000174718
2	1	0	1	0	0	488.423	0.670784	0.670364	0.155471	3	0.0133006	11	0	55.8392	0.000104222
2	1	0	1	0	0	491.019	0.6578	0.657386	0.0874437	3	0.0136104	11	0	58.4361	5.74842e-05
2	1	0	1	0	0	493.616	0.644814	0.644404	0.044431	3	0.0137759	11	0	61.0331	2.86315e-05
2	1	0	1	0	0	496.213	0.63183	0.631405	0.0204526	3	0.0138566	11	0	63.63	1.29138e-05
2	1	0	1	0	0	498.81	0.618846	0.618453	0.00871886	3	0.0138922	11	0	66.2269	5.3922e-06
2	1	0	0	0	0	501.407	0.605861	0.605414	0.00367834	3	0.0139072	11	0	68.8238	2.22692e-06
2	1	0	1	0	0	504.004	0.592876	0.592409	0.00172344	3	0.0139135	11	0	71.4208	1.02098e-06
2	1	0	1	0	0	506.601	0.579891	0.579437	0.0010186	3	0.0139166	11	0	74.0177	5.90216e-07
2	0	0	0	0	0	509.198	0.566907	0.566438	0.000670678	3	0.0139183	11	0	76.6146	3.79898e-07
2	0	0	1	0	0	511.795	0.553923	0.5535	0.000474733	3	0.0139194	11	0	79.2115	2.62765e-07
2	0	0	1	0	0	514.392	0.540937	0.540486	0.000328287	3	0.01392	11	0	81.8085	1.77435e-07
2	0	0	0	0	0	516.989	0.527953	0.527483	0.000232783	3	0.0139205	11	0	0.4994	1.22789e-07
2	1	0	1	0	0	519.586	0.514968	0.514514	0.000217953	3	0.0139207	11	0	0.3995	1.1214e-07
2	1	0	1	0	0	522.183	0.501984	0.501485	0.000176639	3	0.0139208	11	0	0.0999	8.85816e-08
2	1	0	1	0	0	524.779	0.489	0.488519	9.08657e-05	3	0.0139208	11	0	0.000000000000000E+000	4.43896e-08
2	0	0	1	0	0	527.376	0.476014	0.475565	4.59602e-05	3	0.0139206	11	0	0.4994	2.18571e-08
2	1	0	1	0	0	529.973	0.46303	0.462544	1.4387e-05	3	0.0139203	11	0	0.5993	6.65463e-09
2	0	0	0	0	0	532.545	0.45017	0.449661	-0.000903383	3	0.0139198	11	0	1.5732	-4.06216e-07
2	1	0	1	0	1	534.937	0.461832	0.461391	0.00265944	4	0.0139262	11	0	2.3523	1.22704e-06
2	1	0	1	0	1	537.534	0.474816	0.474354	0.00266729	4	0.0139336	11	0	4.9492	1.26524e-06
2	0	0	1	0	1	540.13	0.4878	0.487335	0.00265143	4	0.0139409	11	0	7.5461	1.29213e-06
2	1	0	1	0	1	542.727	0.500786	0.500308	0.00257563	4	0.0139482	11	0	10.1431	1.28861e-06
2	1	0	1	0	1	545.324	0.51377	0.51334	0.00258841	4	0.0139554	11	0	12.74	1.32873e-06
2	0	0	1	0	1	547.921	0.526755	0.526349	0.00258762	4	0.0139625	11	0	15.3369	1.36199e-06
2	1	0	0	0	1	550.518	0.539739	0.539309	0.00265596	4	0.0139698	11	0	17.9338	1.43238e-06
2	1	0	1	0	1	553.115	0.552723	0.552215	0.00275767	4	0.0139772	11	0	20.5307	1.52282e-06
2	1	0	1	0	1	555.712	0.565709	0.565234	0.00290642	4	0.0139849	11	0	23.1277	1.64281e-06
2	1	0	0	0	1	558.309	0.578693	0.578252	0.00312241	4	0.0139931	11	0	25.7246	1.80554e-06
2	1	0	1	0	1	560.906	0.591677	0.59123	0.00380913	4	0.0140024	11	0	28.3215	2.25207e-06
2	1	0	1	0	1	563.503	0.604662	0.604205	0.00549746	4	0.0140145	11	0	30.9184	3.32159e-06
2	1	0	0	0	1	566.1	0.617647	0.617243	0.00973734	4	0.014034	11	0	33.5154	6.01031e-06
2	1	0	1	0	1	568.697	0.630632	0.630192	0.02006	4	0.0140713	11	0	36.1123	1.26416e-05
2	1	0	1	0	1	571.294	0.643616	0.643167	0.0417496	4	0.0141487	11	0	38.7092	2.6852e-05
2	1	0	1	0	1	573.89	0.6566	0.656169	0.0827284	4	0.014306	11	0	41.3061	5.42838e-05
2	1	0	0	0	1	576.487	0.669585	0.669128	0.151144	4	0.0146033	11	0	43.903	0.000101134
2	1	0	1	0	1	579.084	0.68257	0.682156	0.252446	4	0.0151207	11	0	46.5	0.000172207
2	1	0	1	0	1	581.681	0.695555	0.6951	0.388477	4	0.015946	11	0	49.0969	0.000270031
2	1	0	1	0	1	584.019	0.692758	0.692358	0.34794	4	0.0168829	11	0	51.4344	0.000240899
2	1	0	0	0	1	586.616	0.679773	0.679297	0.219729	4	0.0176104	11	0	54.0314	0.000149261
2	1	0	1	0	1	589.213	0.666788	0.666273	0.132873	4	0.0180576	11	0	56.6283	8.85294e-05
2	1	0	1	0	1	591.81	0.653804	0.653396	0.0723058	4	0.0183182	11	0	59.2252	4.72443e-05
2	1	0	1	0	1	594.406	0.64082	0.6404	0.0349802	4	0.0184522	11	0	61.8221	2.24013e-05
2	1	0	1	0	1	597.003	0.627834	0.627389	0.0155024	4	0.0185144	11	0	64.4191	9.72604e-06
2	1	0	1	0	1	599.6	0.61485	0.614401	0.00654588	4	0.018541	11	0	67.016	4.02179e-06
2	1	0	1	0	1	602.197	0.601865	0.601423	0.00277228	4	0.0185519	11	0	69.6129	1.66731e-06
2	1	0	0	0	1	604.794	0.588881	0.58843	0.00136648	4	0.0185566	11	0	72.2098	8.0408e-07
2	1	0	1	0	1	607.391	0.575897	0.575414	0.000837484	4	0.018559	11	0	74.8067	4.819e-07
2	1	0	1	0	1	609.988	0.562911	0.562398	0.000484115	4	0.0185603	11	0	77.4037	2.72265e-07
2	1	0	0	0	1	612.585	0.549927	0.549506	0.000308574	4	0.018561	11	0	80.0006	1.69563e-07
2	0	0	1	0	1	615.182	0.536942	0.536519	0.00022392	4	0.0185614	11	0	0.4994	1.20137e-07
2	0	0	1	0	1	617.779	0.523958	0.523497	0.000235285	4	0.0185616	11	0	0.0999	1.23171e-07
2	1	0	1	0	1	620.376	0.510974	0.510467	0.000151251	4	0.0185616	11	0	0.1997	7.72089e-08
2	1	0	1	0	1	622.973	0.497988	0.49751	9.56104e-06	4	0.0185615	11	0	0.000000000000000E+000	4.75672e-09
2	1	0	1	0	1	625.57	0.485004	0.484537	-1.62237e-05	4	0.0185613	11	0	0.000000000000000E+000	-7.86097e-09
2	0	0	1	0	1	628.166	0.472019	0.471577	-1.8491e-05	4	0.0185608	11	0	2.5969	-8.71993e-09
2	1	0	0	0	1	630.763	0.459035	0.45857	-0.000113296	4	0.0185603	11	0	5.1938	-5.19542e-08
2	1	0	1	0	0	633.13	0.452842	0.452382	0.00242638	5	0.0185612	11	0	0.5544	1.09765e-06
2	1	0	1	0	0	635.727	0.465826	0.465385	0.00255999	5	0.0185682	11	0	3.1513	1.19138e-06
2	1	0	1	0	0	638.324	0.478812	0.478372	0.00260901	5	0.0185752	11	0	5.7483	1.24808e-06
2	1	0	1	0	0	640.921	0.491796	0.491337	0.0025918	5	0.0185823	11	0	8.3452	1.27345e-06
2	1	0	1	0	0	643.517	0.504781	0.504323	0.00259618	5	0.0185895	11	0	10.9421	1.30931e-06
2	1	0	0	0	0	646.114	0.517765	0.517325	0.00265383	5	0.0185966	11	0	13.539	1.37289e-06
2	1	0	1	0	0	648.711	0.530749	0.530322	0.00266241	5	0.0186038	11	0	16.1359	1.41194e-06
2	1	0	1	0	0	651.308	0.543735	0.543283	0.00268138	5	0.018611	11	0	18.7329	1.45675e-06
2	1	0	0	0	0	653.905	0.556719	0.556214	0.00270703	5	0.0186183	11	0	21.3298	1.50569e-06
2	1	0	1	0	0	656.502	0.569703	0.569265	0.0029153	5	0.0186259	11	0	23.9267	1.65958e-06
2	1	0	1	0	0	659.099	0.582688	0.582255	0.0032948	5	0.0186343	11	0	26.5236	1.91841e-06
2	1	0	0	0	0	661.696	0.595673	0.5952	0.00405154	5	0.0186441	11	0	29.1206	2.41148e-06
2	1	0	1	0	0	664.293	0.608658	0.608215	0.00628907	5	0.0186575	11	0	31.7175	3.8251e-06
2	1	0	1	0	0	666.89	0.621642	0.621252	0.0117915	5	0.0186804	11	0	34.3144	7.32549e-06
2	1	0	1	0	0	669.487	0.634626	0.634208	0.0247787	5	0.0187263	11	0	36.9113	1.57148e-05
2	1	0	0	0	0	672.084	0.647611	0.647153	0.0513941	5	0.018822	11	0	39.5082	3.32598e-05
2	1	0	1	0	0	674.681	0.660596	0.660136	0.100206	5	0.0190141	11	0	42.1052	6.61495e-05
2	1	0	1	0	0	677.277	0.673581	0.673153	0.177581	5	0.0193685	11	0	44.7021	0.000119539
2	1	0	0	0	0	679.874	0.686565	0.686149	0.28991	5	0.0199686	11	0	47.299	0.000198922
2	1	0	1	0	0	682.471	0.699549	0.699139	0.435837	5	0.0209056	11	0	49.8959	0.000304711
2	1	0	1	0	0	684.809	0.688762	0.688319	0.304134	5	0.0217731	11	0	52.2335	0.000209342
2	1	0	1	0	0	687.406	0.675778	0.67538	0.190289	5	0.0224046	11	0	54.8304	0.000128517
2	1	0	1	0	0	690.003	0.662794	0.662382	0.110673	5	0.0227882	11	0	57.4273	7.33076e-05
2	1	0	1	0	0	692.6	0.649808	0.649349	0.0578233	5	0.0230011	11	0	60.0243	3.75475e-05
2	1	0	1	0	0	695.197	0.636824	0.636389	0.0272835	5	0.0231071	11	0	62.6212	1.73629e-05
2	1	0	1	0	0	697.793	0.623839	0.623415	0.0117586	5	0.0231548	11	0	65.2181	7.33048e-06
2	1	0	0	0	0	700.39	0.610855	0.610432	0.00503977	5	0.0231749	11	0	67.815	3.07644e-06
2	1	0	1	0	0	702.987	0.59787	0.597451	0.00228127	5	0.0231833	11	0	70.412	1.36295e-06
2	1	0	1	0	0	705.584	0.584885	0.584451	0.00107854	5	0.023187	11	0	73.0089	6.30354e-07
2	0	0	0	0	0	708.181	0.571901	0.571416	0.000653607	5	0.0231889	11	0	75.6058	3.73482e-07
2	1	0	1	0	0	710.778	0.558916	0.558511	0.000493926	5	0.02319	11	0	78.2027	2.75863e-07
2	1	0	1	0	0	713.375	0.545932	0.545484	0.00038304	5	0.0231907	11	0	80.7996	2.08942e-07
2	1	0	0	0	0	715.972	0.532947	0.532481	0.000285542	5	0.0231911	11	0	83.3966	1.52046e-07
2	0	0	1	0	0	718.569	0.519962	0.519559	0.000273408	5	0.0231915	11	0	1.4982	1.42051e-07
2	0	0	1	0	0	721.166	0.506978	0.506556	0.000154784	5	0.0231916	11	0	0.000000000000000E+000	7.8407e-08
2	0	0	1	0	0	723.763	0.493994	0.493534	6.52008e-05	5	0.0231916	11	0	0.000000000000000E+000	3.21788e-08
2	0	0	0	0	0	726.36	0.481009	0.480596	6.8402e-05	5	0.0231915	11	0	0.0998	3.28737e-08
2	0	0	1	0	0	728.957	0.468024	0.46755	8.86328e-05	5	0.0231912	11	0	0.1998	4.14403e-08
2	1	0	1	0	0	731.553	0.455039	0.454597	1.42537e-07	5	0.0231908	11	0	2.7967	6.47971e-11
2	0	0	1	0	1	733.92	0.456838	0.456346	0.00251995	6	0.0231942	11	0	1.3535	1.14997e-06
2	0	0	1	0	1	736.517	0.469822	0.469374	0.00264345	6	0.0232014	11	0	3.9504	1.24077e-06
2	0	0	1	0	1	739.114	0.482806	0.482405	0.00272686	6	0.0232087	11	0	6.5473	1.31545e-06
2	1	0	0	0	1	741.711	0.495791	0.495336	0.00261695	6	0.0232159	11	0	9.1442	1.29627e-06
2	1	0	1	0	1	744.308	0.508776	0.508343	0.00263249	6	0.0232231	11	0	11.7412	1.33821e-06
2	1	0	1	0	1	746.904	0.521761	0.521287	0.00260692	6	0.0232302	11	0	14.3381	1.35895e-06
2	1	0	0	0	1	749.501	0.534745	0.534291	0.00262204	6	0.0232374	11	0	16.935	1.40093e-06
2	1	0	1	0	1	752.098	0.547729	0.547262	0.00275051	6	0.0232447	11	0	19.5319	1.50525e-06
2	1	0	1	0	1	754.695	0.560715	0.560309	0.00280366	6	0.0232522	11	0	22.1289	1.57091e-06
2	1	0	0	0	1	757.292	0.573699	0.573236	0.00299106	6	0.0232601	11	0	24.7258	1.71458e-06
2	1	0	1	0	1	759.889	0.586684	0.586222	0.00348204	6	0.0232688	11	0	27.3227	2.04125e-06
2	1	0	1	0	1	762.486	0.599668	0.599239	0.00452402	6	0.0232793	11	0	29.9196	2.71097e-06
2	1	0	1	0	1	765.083	0.612652	0.612233	0.00744639	6	0.0232948	11	0	32.5165	4.55892e-06
2	1	0	1	0	1	767.68	0.625638	0.625168	0.0147118	6	0.0233226	11	0	35.1135	9.19736e-06
2	1	0	1	0	1	770.277	0.638622	0.638178	0.0309825	6	0.0233798	11	0	37.7104	1.97724e-05
2	1	0	1	0	1	772.874	0.651606	0.651196	0.0631794	6	0.0234984	11	0	40.3073	4.11422e-05
2	1	0	0	0	1	775.471	0.664591	0.664127	0.120324	6	0.0237313	11	0	42.9042	7.99106e-05
2	1	0	1	0	1	778.067	0.677575	0.677166	0.208241	6	0.0241512	11	0	45.5011	0.000141014
2	1	0	1	0	1	780.664	0.690561	0.690154	0.33075	6	0.0248447	11	0	48.0981	0.000228268
2	1	0	1	0	1	783.002	0.697752	0.697326	0.413123	6	0.0257651	11	0	50.4356	0.000288081
2	1	0	1	0	1	785.599	0.684768	0.684366	0.26567	6	0.0266367	11	0	53.0325	0.000181816
2	1	0	1	0	1	788.196	0.671782	0.671333	0.160739	6	0.0271806	11	0	55.6295	0.000107909
2	1	0	1	0	1	790.793	0.658798	0.658368	0.0907316	6	0.027501	11	0	58.2264	5.97347e-05
2	1	0	1	0	1	793.39	0.645813	0.645414	0.0460659	6	0.0276731	11	0	60.8233	2.97315e-05
2	1	0	0	0	1	795.987	0.632829	0.632432	0.0210489	6	0.0277565	11	0	63.4202	1.3312e-05
2	1	0	1	0	1	798.584	0.619844	0.619411	0.00894521	6	0.0277929	11	0	66.0172	5.54076e-06
2	1	0	1	0	1	801.18	0.606859	0.606391	0.00384483	6	0.0278079	11	0	68.6141	2.33147e-06
2	1	0	0	0	1	803.777	0.593875	0.593408	0.00182152	6	0.0278144	11	0	71.211	1.08091e-06
2	0	0	1	0	1	806.374	0.58089	0.580456	0.00106575	6	0.0278176	11	0	73.8079	6.18618e-07
2	1	0	1	0	1	808.971	0.567906	0.567477	0.000657198	6	0.0278195	11	0	76.4048	3.72945e-07
2	0	0	0	0	1	811.568	0.554921	0.554486	0.000494593	6	0.0278207	11	0	79.0018	2.74245e-07
2	1	0	1	0	1	814.165	0.541936	0.541507	0.00038019	6	0.0278216	11	0	81.5987	2.05875e-07
2	1	0	1	0	1	816.762	0.528952	0.528506	0.0003085	6	0.0278222	11	0	84.1956	1.63044e-07
2	0	0	1	0	1	819.359	0.515968	0.515513	0.000229638	6	0.0278226	11	0	0.000000000000000E+000	1.18382e-07
2	1	0	1	0	1	821.956	0.502982	0.502523	0.000187679	6	0.0278228	11	0	0.0999	9.43133e-08
2	1	0	1	0	1	824.553	0.489998	0.48956	0.00014073	6	0.0278229	11	0	0.0999	6.88957e-08
2	1	0	1	0	1	827.15	0.477013	0.476595	0.000171176	6	0.0278229	11	0	0.0999	8.15817e-08
2	1	0	0	0	1	829.747	0.464029	0.463572	0.0001163	6	0.0278228	11	0	0.000000000000000E+000	5.39135e-08
2	1	0	1	0	1	832.343	0.451045	0.450599	-7.81567e-06	6	0.0278225	11	0	1.2984	-3.52173e-09
2	0	0	1	0	0	834.71	0.460832	0.460345	0.00266229	7	0.0278284	11	0	2.1915	1.22557e-06
2	1	0	1	0	0	837.307	0.473818	0.473378	0.00268831	7	0.0278357	11	0	4.7885	1.27258e-06
2	1	0	1	0	0	839.904	0.486802	0.486371	0.00269364	7	0.0278429	11	0	7.3854	1.31011e-06
2	1	0	1	0	0	842.501	0.499787	0.499349	0.00260961	7	0.0278502	11	0	9.9823	1.30311e-06
2	0	0	0	0	0	845.098	0.512771	0.512275	0.00270107	7	0.0278574	11	0	12.5792	1.38369e-06
2	0	0	1	0	0	847.694	0.525755	0.525344	0.00263087	7	0.0278646	11	0	15.1761	1.38211e-06
2	1	0	1	0	0	850.291	0.538741	0.538288	0.00264463	7	0.027872	11	0	17.7731	1.42357e-06
2	1	0	0	0	0	852.888	0.551725	0.551265	0.00274102	7	0.0278794	11	0	20.37	1.51103e-06
2	1	0	1	0	0	855.485	0.564709	0.564264	0.00283844	7	0.0278871	11	0	22.9669	1.60163e-06
2	1	0	1	0	0	858.082	0.577694	0.577279	0.00312491	7	0.0278952	11	0	25.5638	1.80394e-06
2	1	0	1	0	0	860.679	0.590678	0.590221	0.00374957	7	0.0279044	11	0	28.1607	2.21307e-06
2	1	0	1	0	0	863.276	0.603664	0.603227	0.00523049	7	0.027916	11	0	30.7577	3.15518e-06
2	1	0	1	0	0	865.873	0.616648	0.616179	0.00900658	7	0.0279341	11	0	33.3546	5.54967e-06
2	1	0	1	0	0	868.47	0.629632	0.629207	0.0182388	7	0.0279683	11	0	35.9515	1.1476e-05
2	1	0	0	0	0	871.067	0.642617	0.642224	0.0384171	7	0.0280392	11	0	38.5484	2.46724e-05
2	1	0	1	0	0	873.664	0.655601	0.655226	0.0772125	7	0.0281849	11	0	41.1453	5.05916e-05
2	1	0	1	0	0	876.261	0.668587	0.668164	0.142799	7	0.0284649	11	0	43.7423	9.54133e-05
2	1	0	0	0	0	878.858	0.681571	0.681158	0.240892	7	0.028957	11	0	46.3392	0.000164086
2	1	0	1	0	0	881.454	0.694555	0.694087	0.373046	7	0.0297473	11	0	48.9361	0.000258926
2	1	0	1	0	0	883.792	0.693756	0.69329	0.359445	7	0.0306852	11	0	51.2737	0.0002492
2	1	0	1	0	0	886.389	0.680772	0.680326	0.230817	7	0.0314428	11	0	53.8706	0.000157031
2	1	0	1	0	0	888.986	0.667787	0.667337	0.137915	7	0.0319157	11	0	56.4675	9.20355e-05
2	1	0	1	0	0	891.583	0.654802	0.654348	0.0733998	7	0.0321823	11	0	59.0645	4.8029e-05
2	1	0	1	0	0	894.18	0.641818	0.641389	0.0362253	7	0.0323197	11	0	61.6614	2.32345e-05
2	1	0	1	0	0	896.777	0.628833	0.628374	0.0160024	7	0.032384	11	0	64.2583	1.00555e-05
2	1	0	0	0	0	899.374	0.615849	0.615397	0.00667612	7	0.0324114	11	0	66.8552	4.10847e-06
2	1	0	1	0	0	901.97	0.602865	0.602404	0.00293237	7	0.0324228	11	0	69.4521	1.76647e-06
2	1	0	1	0	0	904.567	0.589879	0.589383	0.0015251	7	0.0324279	11	0	72.0491	8.9887e-07
2	1	0	0	0	0	907.164	0.576895	0.576434	0.000862069	7	0.0324305	11	0	74.646	4.96925e-07
2	1	0	1	0	0	909.761	0.56391	0.563481	0.000608135	7	0.0324321	11	0	77.2429	3.42672e-07
2	0	0	1	0	0	912.358	0.550926	0.55048	0.000503055	7	0.0324331	11	0	79.8398	2.76922e-07
2	1	0	1	0	0	914.955	0.537942	0.537473	0.000365323	7	0.0324339	11	0	82.4367	1.96351e-07
2	0	0	1	0	0	917.552	0.524956	0.52453	0.000316366	7	0.0324344	11	0	85.0337	1.65944e-07
2	1	0	1	0	0	920.149	0.511972	0.511509	0.000292459	7	0.0324348	11	0	87.6306	1.49595e-07
2	1	0	1	0	0	922.746	0.498988	0.498469	0.000200838	7	0.032435	11	0	0.0999	1.00111e-07
2	0	0	0	0	0	925.343	0.486003	0.485584	0.000111664	7	0.0324351	11	0	0.000000000000000E+000	5.42225e-08
2	1	0	1	0	0	927.94	0.473019	0.472539	0.000100457	7	0.032435	11	0	0.2996	4.74698e-08
2	1	0	1	0	0	930.537	0.460033	0.459578	3.82596e-05	7	0.0324348	11	0	0.6992	1.75833e-08
2	0	0	1	0	1	932.903	0.451844	0.451422	0.00256162	8	0.0324354	11	0	0.3647	1.15637e-06
2	1	0	1	0	1	935.5	0.464828	0.464337	0.00256163	8	0.0324425	11	0	2.9616	1.18946e-06
2	1	0	1	0	1	938.097	0.477812	0.477361	0.00267299	8	0.0324498	11	0	5.5585	1.27598e-06
2	1	0	0	0	1	940.694	0.490797	0.490347	0.00269768	8	0.0324571	11	0	8.1554	1.3228e-06
2	0	0	1	0	1	943.291	0.503781	0.503328	0.0027068	8	0.0324644	11	0	10.7523	1.36241e-06
2	1	0	1	0	1	945.888	0.516767	0.516254	0.00262524	8	0.0324716	11	0	13.3493	1.35529e-06
2	0	0	0	0	1	948.485	0.529751	0.529329	0.00271652	8	0.0324789	11	0	15.9462	1.43793e-06
2	1	0	1	0	1	951.081	0.542735	0.542277	0.0026974	8	0.0324862	11	0	18.5431	1.46274e-06
2	1	0	1	0	1	953.678	0.55572	0.555279	0.00276979	8	0.0324937	11	0	21.14	1.53801e-06
2	1	0	1	0	1	956.275	0.568704	0.568271	0.00288939	8	0.0325014	11	0	23.7369	1.64196e-06
2	1	0	1	0	1	958.872	0.58169	0.581259	0.00319668	8	0.0325097	11	0	26.3339	1.8581e-06
2	1	0	1	0	1	961.469	0.594674	0.594159	0.00399768	8	0.0325193	11	0	28.9308	2.37526e-06
2	1	0	1	0	1	964.066	0.607658	0.607215	0.00588331	8	0.0325319	11	0	31.5277	3.57243e-06
2	1	0	0	0	1	966.663	0.620643	0.62019	0.0108944	8	0.0325531	11	0	34.1246	6.7566e-06
2	1	0	1	0	1	969.26	0.633628	0.633174	0.0226626	8	0.0325949	11	0	36.7216	1.43494e-05
2	1	0	1	0	1	971.857	0.646612	0.646187	0.0475616	8	0.032683	11	0	39.3185	3.07337e-05
2	1	0	0	0	1	974.454	0.659597	0.659214	0.0937058	8	0.0328613	11	0	41.9154	6.17722e-05
2	1	0	1	0	1	977.051	0.672581	0.672136	0.168706	8	0.0331958	11	0	44.5123	0.000113393
2	1	0	1	0	1	979.648	0.685567	0.685124	0.278748	8	0.0337707	11	0	47.1093	0.000190977
2	1	0	0	0	1	982.245	0.698551	0.698136	0.421846	8	0.0346738	11	0	49.7062	0.000294506
2	1	0	1	0	1	984.582	0.689761	0.689341	0.319271	8	0.0355729	11	0	52.0437	0.000220087
2	1	0	1	0	1	987.179	0.676776	0.676328	0.199096	8	0.0362344	11	0	54.6407	0.000134654
2	1	0	1	0	1	989.776	0.663792	0.663357	0.114225	8	0.0366352	11	0	57.2376	7.57723e-05
2	1	0	1	0	1	992.373	0.650807	0.650383	0.0591328	8	0.0368545	11	0	59.8345	3.8459e-05
2	1	0	0	0	1	994.97	0.637823	0.637384	0.02774	8	0.0369626	11	0	62.4314	1.7681e-05
2	1	0	1	0	1	997.567	0.624839	0.624377	0.0120303	8	0.0370114	11	0	65.0283	7.51142e-06
2	1	0	1	0	1	1000.16	0.611853	0.611395	0.00512616	8	0.037032	11	0	67.6253	3.1341e-06
2	1	0	0	0	1	1002.76	0.598869	0.598449	0.00232145	8	0.0370406	11	0	70.2222	1.38927e-06
2	1	0	1	0	1	1005.36	0.585884	0.585433	0.00119473	8	0.0370446	11	0	72.8191	6.99435e-07
2	1	0	1	0	1	1007.95	0.5729	0.572467	0.000776491	8	0.0370468	11	0	75.416	4.44515e-07
2	0	0	1	0	1	1010.55	0.559916	0.559456	0.000568852	8	0.037048	11	0	78.0129	3.18247e-07
2	1	0	1	0	1	1013.15	0.54693	0.546498	0.000434826	8	0.0370489	11	0	80.6099	2.37631e-07
2	1	0	1	0	1	1015.75	0.533946	0.533493	0.000347647	8	0.0370496	11	0	83.2068	1.85467e-07
2	0	0	1	0	1	1018.34	0.520961	0.520481	0.000264259	8	0.03705	11	0	85.8037	1.37542e-07
2	0	0	0	0	1	1020.94	0.507977	0.507494	0.000216469	8	0.0370501	11	0	0.0998	1.09857e-07
2	1	0	1	0	1	1023.54	0.494992	0.494567	0.000168029	8	0.0370502	11	0	0.0999	8.31019e-08
2	0	0	1	0	1	1026.13	0.482007	0.48154	1.30939e-05	8	0.0370501	11	0	0.0999	6.30525e-09
2	0	0	0	0	1	1028.73	0.469023	0.46865	1.42399e-05	8	0.0370499	11	0	0.2996	6.67355e-09
2	0	0	1	0	1	1031.33	0.456039	0.455624	-8.81179e-05	8	0.0370495	11	0	1.2984	-4.01486e-08
2	1	0	1	0	0	1033.69	0.455838	0.455391	0.00248124	9	0.0370523	11	0	1.1537	1.12993e-06
2	1	0	0	0	0	1036.29	0.468823	0.468349	0.00257163	9	0.0370594	11	0	3.7506	1.20442e-06
2	1	0	1	0	0	1038.89	0.481807	0.481324	0.00257048	9	0.0370666	11	0	6.3475	1.23723e-06
2	1	0	1	0	0	1041.48	0.494793	0.494366	0.00257494	9	0.0370737	11	0	8.9445	1.27296e-06
2	1	0	0	0	0	1044.08	0.507777	0.507353	0.00255361	9	0.0370807	11	0	11.5414	1.29558e-06
2	1	0	1	0	0	1046.68	0.520761	0.520319	0.00255759	9	0.0370878	11	0	14.1383	1.33076e-06
2	1	0	1	0	0	1049.27	0.533746	0.533309	0.00265052	9	0.0370949	11	0	16.7352	1.41355e-06
2	1	0	0	0	0	1051.87	0.546731	0.546287	0.00268252	9	0.0371021	11	0	19.3322	1.46543e-06
2	1	0	1	0	0	1054.47	0.559716	0.559298	0.00273131	9	0.0371094	11	0	21.9291	1.52762e-06
2	1	0	1	0	0	1057.07	0.5727	0.572256	0.00290467	9	0.037117	11	0	24.526	1.66222e-06
2	0	0	1	0	0	1059.66	0.585684	0.585234	0.00332296	9	0.0371254	11	0	27.1229	1.94471e-06
2	1	0	1	0	0	1062.26	0.59867	0.598239	0.00427207	9	0.0371354	11	0	29.7199	2.55572e-06
2	1	0	1	0	0	1064.86	0.611654	0.611214	0.00689165	9	0.0371498	11	0	32.3168	4.21227e-06
2	1	0	1	0	0	1067.45	0.624638	0.62418	0.0133333	9	0.0371753	11	0	34.9137	8.32238e-06
2	1	0	0	0	0	1070.05	0.637623	0.637162	0.0282663	9	0.0372273	11	0	37.5106	1.80102e-05
2	1	0	1	0	0	1072.65	0.650607	0.65018	0.0585178	9	0.0373364	11	0	40.1075	3.80471e-05
2	1	0	1	0	0	1075.24	0.663593	0.663194	0.113026	9	0.0375539	11	0	42.7045	7.4958e-05
2	1	0	0	0	0	1077.84	0.676577	0.676179	0.198092	9	0.0379511	11	0	45.3014	0.000133946
2	1	0	1	0	0	1080.44	0.689561	0.689116	0.318735	9	0.0386154	11	0	47.8983	0.000219645
2	1	0	1	0	0	1082.78	0.69875	0.698321	0.420792	9	0.0395116	11	0	50.2359	0.000293848
2	1	0	1	0	0	1085.37	0.685766	0.685327	0.271356	9	0.0403984	11	0	52.8328	0.000185967
2	1	0	1	0	0	1087.97	0.672781	0.672343	0.168518	9	0.040965	11	0	55.4297	0.000113302
2	1	0	0	0	0	1090.57	0.659797	0.65936	0.0933539	9	0.0412972	11	0	58.0266	6.15538e-05
2	1	0	1	0	0	1093.16	0.646813	0.64642	0.0471537	9	0.0414732	11	0	60.6235	3.0481e-05
2	1	0	1	0	0	1095.76	0.633827	0.63336	0.0214715	9	0.0415582	11	0	63.2205	1.35992e-05
2	1	0	0	0	0	1098.36	0.620843	0.62041	0.00911004	9	0.0415953	11	0	65.8174	5.65196e-06
2	1	0	1	0	0	1100.95	0.607859	0.607384	0.00385281	9	0.0416107	11	0	68.4143	2.34014e-06
2	1	0	1	0	0	1103.55	0.594874	0.594398	0.00178459	9	0.0416172	11	0	71.0112	1.06076e-06
2	1	0	0	0	0	1106.15	0.581889	0.581448	0.00107421	9	0.0416204	11	0	73.6082	6.24597e-07
2	1	0	1	0	0	1108.74	0.568904	0.568447	0.000658053	9	0.0416222	11	0	76.2051	3.74068e-07
2	0	0	1	0	0	1111.34	0.55592	0.555495	0.000571193	9	0.0416234	11	0	78.802	3.17295e-07
2	0	0	1	0	0	1113.94	0.542935	0.542481	0.000379479	9	0.0416242	11	0	81.3989	2.05861e-07
2	1	0	1	0	0	1116.54	0.52995	0.529544	0.000308734	9	0.0416248	11	0	83.9959	1.63488e-07
2	1	0	1	0	0	1119.13	0.516966	0.516526	0.000306514	9	0.0416252	11	0	86.5928	1.58322e-07
2	1	0	1	0	0	1121.73	0.503981	0.503504	0.000257078	9	0.0416255	11	0	0.000000000000000E+000	1.2944e-07
2	0	0	0	0	0	1124.33	0.490997	0.490502	0.000178993	9	0.0416257	11	0	0.4994	8.77966e-08
2	1	0	1	0	0	1126.92	0.478013	0.477579	0.000112916	9	0.0416258	11	0	0.0998	5.39261e-08
2	1	0	1	0	0	1129.52	0.465027	0.464557	2.10351e-05	9	0.0416256	11	0	0.000000000000000E+000	9.77199e-09
2	0	0	0	0	0	1132.12	0.452043	0.451567	-5.51493e-05	9	0.0416252	11	0	2.3972	-2.49036e-08
2	1	0	1	0	1	1134.48	0.459834	0.459375	0.00261012	10	0.0416304	11	0	1.8978	1.19902e-06
2	1	0	1	0	1	1137.08	0.472818	0.472329	0.00267469	10	0.0416375	11	0	4.4947	1.26334e-06
2	1	0	0	0	1	1139.68	0.485803	0.485374	0.00266847	10	0.0416447	11	0	7.0916	1.29521e-06
2	0	0	1	0	1	1142.27	0.498787	0.498347	0.0026924	10	0.041652	11	0	9.6885	1.34175e-06
2	1	0	1	0	1	1144.87	0.511772	0.511335	0.00256208	10	0.0416593	11	0	12.2854	1.31008e-06
2	1	0	0	0	1	1147.47	0.524757	0.524302	0.00266994	10	0.0416664	11	0	14.8824	1.39986e-06
2	0	0	1	0	1	1150.06	0.537742	0.537298	0.00272115	10	0.0416736	11	0	17.4793	1.46207e-06
2	1	0	1	0	1	1152.66	0.550726	0.550266	0.00271181	10	0.041681	11	0	20.0762	1.49222e-06
2	1	0	1	0	1	1155.26	0.56371	0.563263	0.00283906	10	0.0416885	11	0	22.6731	1.59914e-06
2	1	0	1	0	1	1157.86	0.576696	0.576239	0.00297493	10	0.0416965	11	0	25.2701	1.71427e-06
2	1	0	1	0	1	1160.45	0.58968	0.589192	0.00355795	10	0.0417053	11	0	27.867	2.09631e-06
2	1	0	1	0	1	1163.05	0.602664	0.602232	0.0047963	10	0.0417163	11	0	30.4639	2.88848e-06
2	1	0	0	0	1	1165.65	0.615649	0.615261	0.00820828	10	0.041733	11	0	33.0608	5.05024e-06
2	1	0	1	0	1	1168.24	0.628633	0.62819	0.0165663	10	0.041764	11	0	35.6577	1.04067e-05
2	1	0	1	0	1	1170.84	0.641619	0.641148	0.0353255	10	0.0418288	11	0	38.2547	2.26489e-05
2	1	0	0	0	1	1173.44	0.654603	0.654205	0.0718913	10	0.0419637	11	0	40.8516	4.70316e-05
2	1	0	1	0	1	1176.03	0.667587	0.667165	0.134735	10	0.0422265	11	0	43.4485	8.98903e-05
2	1	0	1	0	1	1178.63	0.680572	0.680107	0.231356	10	0.0426953	11	0	46.0454	0.000157347
2	1	0	0	0	1	1181.23	0.693557	0.693132	0.361626	10	0.0434589	11	0	48.6424	0.000250655
2	1	0	1	0	1	1183.57	0.694755	0.694322	0.370114	10	0.0443967	11	0	50.9799	0.000256979
2	1	0	0	0	1	1186.16	0.681771	0.681344	0.234346	10	0.0451712	11	0	53.5768	0.00015967
2	1	0	1	0	1	1188.76	0.668786	0.668295	0.141767	10	0.0456493	11	0	56.1738	9.4742e-05
2	1	0	1	0	1	1191.36	0.655801	0.655338	0.0766064	10	0.0459267	11	0	58.7707	5.02031e-05
2	1	0	0	0	1	1193.95	0.642817	0.64237	0.0369073	10	0.0460683	11	0	61.3676	2.37081e-05
2	1	0	1	0	1	1196.55	0.629833	0.629407	0.0163245	10	0.0461337	11	0	63.9645	1.02748e-05
2	1	0	1	0	1	1199.15	0.616848	0.616437	0.00684753	10	0.0461618	11	0	66.5614	4.22107e-06
2	1	0	0	0	1	1201.74	0.603863	0.603442	0.00291409	10	0.0461734	11	0	69.1584	1.75849e-06
2	1	0	1	0	1	1204.34	0.590878	0.590388	0.0013674	10	0.0461784	11	0	71.7553	8.07296e-07
2	1	0	1	0	1	1206.94	0.577894	0.577415	0.000784365	10	0.0461808	11	0	74.3522	4.52904e-07
2	1	0	1	0	1	1209.53	0.56491	0.564458	0.000535446	10	0.0461822	11	0	76.9491	3.02236e-07
2	0	0	1	0	1	1212.13	0.551924	0.551441	0.000452348	10	0.0461831	11	0	79.5461	2.49443e-07
2	0	0	1	0	1	1214.73	0.53894	0.538506	0.000395844	10	0.0461837	11	0	82.143	2.13164e-07
2	1	0	1	0	1	1217.33	0.525955	0.525492	0.000263941	10	0.0461841	11	0	84.7399	1.38699e-07
2	1	0	0	0	1	1219.92	0.512971	0.512488	0.000226013	10	0.0461843	11	0	0.0999	1.15829e-07
2	1	0	1	0	1	1222.52	0.499987	0.499495	0.000174886	10	0.0461844	11	0	0.000000000000000E+000	8.73547e-08
2	1	0	1	0	1	1225.12	0.487001	0.486563	0.000135428	10	0.0461844	11	0	0.000000000000000E+000	6.58941e-08
2	1	0	0	0	1	1227.71	0.474017	0.473562	8.2599e-05	10	0.0461843	11	0	0.000000000000000E+000	3.91157e-08
2	1	0	1	0	1	1230.31	0.461032	0.460612	3.4798e-06	10	0.046184	11	0	1.4982	1.60284e-09
2	1	0	1	0	0	1232.68	0.450844	0.450363	0.00229817	11	0.046184	11	0	0.1549	1.03501e-06
2	1	0	0	0	0	1235.27	0.463829	0.463352	0.0025865	11	0.046191	11	0	2.7518	1.19846e-06
2	1	0	1	0	0	1237.87	0.476813	0.476334	0.00259555	11	0.0461982	11	0	5.3487	1.23635e-06
2	1	0	1	0	0	1240.47	0.489799	0.489358	0.00268599	11	0.0462054	11	0	7.9457	1.31441e-06
2	1	0	0	0	0	1243.06	0.502783	0.502325	0.00263087	11	0.0462126	11	0	10.5426	1.32155e-06
2	1	0	1	0	0	1245.66	0.515768	0.515305	0.00268939	11	0.0462197	11	0	13.1395	1.38586e-06
2	1	0	1	0	0	1248.26	0.528752	0.528278	0.00266553	11	0.0462268	11	0	15.7364	1.40814e-06
2	1	0	1	0	0	1250.85	0.541736	0.541288	0.00264843	11	0.0462341	11	0	18.3333	1.43357e-06
2	1	0	1	0	0	1253.45	0.554722	0.554261	0.00267028	11	0.0462414	11	0	20.9303	1.48003e-06
2	1	0	1	0	0	1256.05	0.567706	0.567252	0.00275302	11	0.0462489	11	0	23.5272	1.56166e-06
2	0	0	1	0	0	1258.65	0.58069	0.580241	0.00312411	11	0.0462569	11	0	26.1241	1.81274e-06
2	1	0	0	0	0	1261.24	0.593675	0.593206	0.00375338	11	0.046266	11	0	28.721	2.22653e-06
2	1	0	1	0	0	1263.84	0.60666	0.606163	0.00543065	11	0.046278	11	0	31.318	3.29186e-06
2	1	0	1	0	0	1266.44	0.619645	0.619194	0.00986534	11	0.0462974	11	0	33.9149	6.10856e-06
2	1	0	0	0	0	1269.03	0.632629	0.632186	0.020684	11	0.0463357	11	0	36.5118	1.30761e-05
2	1	0	1	0	0	1271.63	0.645613	0.645205	0.0438814	11	0.0464166	11	0	39.1087	2.83125e-05
2	1	0	1	0	0	1274.23	0.658598	0.658165	0.0875096	11	0.0465822	11	0	41.7056	5.75958e-05
2	1	0	0	0	0	1276.82	0.671583	0.671106	0.160075	11	0.0468972	11	0	44.3026	0.000107428
2	1	0	1	0	0	1279.42	0.684568	0.684114	0.267273	11	0.0474455	11	0	46.8995	0.000182845
2	1	0	1	0	0	1282.02	0.697552	0.697098	0.40942	11	0.0483189	11	0	49.4964	0.000285406
2	1	0	1	0	0	1284.36	0.69076	0.690329	0.330227	11	0.0492325	11	0	51.834	0.000227965
2	1	0	1	0	0	1286.95	0.677775	0.677355	0.203952	11	0.0499173	11	0	54.4309	0.000138148
2	1	0	0	0	0	1289.55	0.664791	0.664314	0.116114	11	0.0503235	11	0	57.0278	7.71362e-05
2	1	0	1	0	0	1292.15	0.651807	0.651332	0.0614806	11	0.0505477	11	0	59.6247	4.00442e-05
2	1	0	1	0	0	1294.74	0.638821	0.638383	0.0289841	11	0.0506601	11	0	62.2217	1.85029e-05
2	1	0	0	0	0	1297.34	0.625837	0.625419	0.0123265	11	0.0507106	11	0	64.8186	7.70924e-06
2	1	0	1	0	0	1299.94	0.612852	0.612382	0.00521013	11	0.0507316	11	0	67.4155	3.19059e-06
2	1	0	1	0	0	1302.53	0.599868	0.599379	0.00225736	11	0.0507403	11	0	70.0124	1.35301e-06
2	1	0	1	0	0	1305.13	0.586884	0.586418	0.00113085	11	0.0507442	11	0	72.6093	6.63151e-07
2	0	0	1	0	0	1307.73	0.573898	0.573439	0.000685615	11	0.0507461	11	0	75.2063	3.93159e-07
2	0	0	1	0	0	1310.32	0.560914	0.560489	0.000515932	11	0.0507474	11	0	77.8032	2.89174e-07
2	1	0	1	0	0	1312.92	0.547929	0.547504	0.000404241	11	0.0507482	11	0	80.4001	2.21324e-07
2	1	0	0	0	0	1315.52	0.534945	0.534493	0.000337198	11	0.0507488	11	0	82.997	1.8023e-07
2	1	0	1	0	0	1318.12	0.52196	0.521517	0.000239626	11	0.0507492	11	0	85.594	1.24969e-07
2	0	0	1	0	0	1320.71	0.508975	0.508511	0.000193636	11	0.0507495	11	0	0.000000000000000E+000	9.84659e-08
2	1	0	0	0	0	1323.31	0.495991	0.495541	0.000248824	11	0.0507497	11	0	0.0999	1.23303e-07
2	1	0	1	0	0	1325.91	0.483006	0.482538	0.000131695	11	0.0507498	11	0	0.0999	6.35478e-08
2	0	0	1	0	0	1328.5	0.470022	0.469571	5.88941e-05	11	0.0507497	11	0	0.000000000000000E+000	2.7655e-08
2	0	0	0	0	0	1331.1	0.457037	0.456617	2.98161e-06	11	0.0507495	11	0	0.000000000000000E+000	1.36145e-09
2	1	0	1	0	1	1333.47	0.454839	0.454431	0.00259618	12	0.0507517	11	0	0.9639	1.17978e-06
2	1	0	1	0	1	1336.06	0.467825	0.467354	0.0026098	12	0.0507589	11	0	3.5609	1.2197e-06
2	0	0	0	0	1	1338.66	0.480809	0.480329	0.00260364	12	0.050766	11	0	6.1578	1.2506e-06
2	0	0	1	0	1	1341.26	0.493793	0.493352	0.00258091	12	0.0507731	11	0	8.7547	1.2733e-06
2	1	0	1	0	1	1343.85	0.506778	0.506338	0.00257035	12	0.0507803	11	0	11.3516	1.30147e-06
2	1	0	0	0	1	1346.45	0.519763	0.519365	0.00263756	12	0.0507874	11	0	13.9486	1.36986e-06
2	1	0	1	0	1	1349.05	0.532748	0.532273	0.00258805	12	0.0507945	11	0	16.5455	1.37755e-06
2	1	0	1	0	1	1351.64	0.545732	0.545323	0.0026489	12	0.0508017	11	0	19.1424	1.44451e-06
2	1	0	1	0	1	1354.24	0.558716	0.558287	0.00268461	12	0.0508089	11	0	21.7393	1.49878e-06
2	1	0	1	0	1	1356.84	0.571702	0.571234	0.00288024	12	0.0508165	11	0	24.3363	1.64529e-06
2	1	0	1	0	1	1359.44	0.584686	0.584241	0.00325412	12	0.0508247	11	0	26.9332	1.90119e-06
2	1	0	1	0	1	1362.03	0.597671	0.597216	0.00416367	12	0.0508344	11	0	29.5301	2.48661e-06
2	1	0	0	0	1	1364.63	0.610655	0.610216	0.00640717	12	0.0508479	11	0	32.127	3.90976e-06
2	1	0	1	0	1	1367.23	0.623639	0.623211	0.0121417	12	0.0508714	11	0	34.7239	7.56684e-06
2	1	0	1	0	1	1369.82	0.636625	0.636213	0.0258945	12	0.050919	11	0	37.3209	1.64744e-05
2	1	0	0	0	1	1372.42	0.649609	0.649204	0.0542573	12	0.0510195	11	0	39.9178	3.52241e-05
2	1	0	1	0	1	1375.02	0.662594	0.662177	0.106032	12	0.0512221	11	0	42.5147	7.02117e-05
2	1	0	1	0	1	1377.61	0.675578	0.675138	0.187973	12	0.0515972	11	0	45.1116	0.000126908
2	1	0	1	0	1	1380.21	0.688562	0.688104	0.305198	12	0.0522303	11	0	47.7085	0.000210008
2	1	0	1	0	1	1382.55	0.699749	0.699305	0.432399	12	0.0530972	11	0	50.0461	0.000302378
2	1	0	0	0	1	1385.15	0.686765	0.686308	0.28098	12	0.054011	11	0	52.643	0.000192839
2	1	0	1	0	1	1387.74	0.673781	0.673385	0.174505	12	0.0545948	11	0	55.2399	0.000117509
2	1	0	1	0	1	1390.34	0.660795	0.660342	0.097185	12	0.0549398	11	0	57.8369	6.41754e-05
2	1	0	0	0	1	1392.94	0.647811	0.647388	0.0492412	12	0.0551244	11	0	60.4338	3.18781e-05
2	1	0	1	0	1	1395.53	0.634826	0.634417	0.0222947	12	0.0552131	11	0	63.0307	1.41441e-05
2	1	0	1	0	1	1398.13	0.621842	0.621445	0.0093444	12	0.0552515	11	0	65.6276	5.80704e-06
2	1	0	0	0	1	1400.73	0.608857	0.60843	0.00384073	12	0.0552672	11	0	68.2246	2.33681e-06
2	1	0	1	0	1	1403.32	0.595872	0.595435	0.00175496	12	0.0552737	11	0	70.8215	1.04497e-06
2	1	0	1	0	1	1405.92	0.582888	0.582468	0.00095552	12	0.0552767	11	0	73.4184	5.5656e-07
2	1	0	1	0	1	1408.52	0.569903	0.569458	0.000594375	12	0.0552784	11	0	76.0153	3.38471e-07
2	1	0	0	0	1	1411.11	0.556919	0.556491	0.000402244	12	0.0552794	11	0	78.6122	2.23845e-07
2	1	0	1	0	1	1413.71	0.543934	0.543518	0.000435285	12	0.0552801	11	0	81.2092	2.36585e-07
2	1	0	1	0	1	1416.31	0.530949	0.530528	0.000332584	12	0.0552806	11	0	83.8061	1.76445e-07
2	1	0	0	0	1	1418.91	0.517965	0.5175	0.000284438	12	0.055281	11	0	86.403	1.47197e-07
2	1	0	1	0	1	1421.5	0.504981	0.50457	0.000271169	12	0.0552813	11	0	0.2996	1.36824e-07
2	0	0	1	0	1	1424.1	0.491995	0.491528	0.000115423	12	0.0552815	11	0	0.000000000000000E+000	5.67336e-08
2	0	0	0	0	1	1426.7	0.479011	0.478593	4.36733e-05	12	0.0552814	11	0	0.2997	2.09017e-08
2	1	0	1	0	1	1429.29	0.466026	0.465557	2.65148e-05	12	0.0552811	11	0	0.000000000000000E+000	1.23442e-08
2	1	0	1	0	1	1431.89	0.453042	0.45257	-0.000117695	12	0.0552806	11	0	3.8954	-5.32653e-08
2	1	0	0	0	0	1434.26	0.458835	0.45839	0.00253462	13	0.0552851	11	0	1.763	1.16185e-06
2	1	0	1	0	0	1436.85	0.471819	0.471393	0.00253036	13	0.055292	11	0	4.3599	1.19279e-06
2	1	0	1	0	0	1439.45	0.484804	0.484341	0.00256737	13	0.055299	11	0	6.9568	1.24348e-06
2	1	0	0	0	0	1442.05	0.497789	0.497357	0.00252013	13	0.055306	11	0	9.5538	1.2534e-06
2	1	0	1	0	0	1444.64	0.510773	0.510327	0.00254375	13	0.0553129	11	0	12.1507	1.29814e-06
2	1	0	1	0	0	1447.24	0.523758	0.52331	0.00252211	13	0.0553198	11	0	14.7476	1.31985e-06
2	0	0	1	0	0	1449.84	0.536742	0.536252	0.00253284	13	0.0553268	11	0	17.3445	1.35824e-06
2	1	0	1	0	0	1452.43	0.549728	0.549294	0.00263181	13	0.0553339	11	0	19.9415	1.44564e-06
2	1	0	1	0	0	1455.03	0.562712	0.562284	0.00272307	13	0.0553411	11	0	22.5384	1.53114e-06
2	1	0	1	0	0	1457.63	0.575696	0.575243	0.002893	13	0.0553487	11	0	25.1353	1.66418e-06
2	1	0	0	0	0	1460.23	0.588681	0.588222	0.00329996	13	0.0553571	11	0	27.7322	1.94111e-06
2	1	0	1	0	0	1462.82	0.601665	0.601224	0.00453216	13	0.0553674	11	0	30.3291	2.72484e-06
2	1	0	1	0	0	1465.42	0.614651	0.614216	0.0075116	13	0.0553828	11	0	32.9261	4.61374e-06
2	1	0	0	0	0	1468.02	0.627635	0.627201	0.0150851	13	0.0554112	11	0	35.523	9.46139e-06
2	1	0	1	0	0	1470.61	0.640619	0.640165	0.0323506	13	0.0554705	11	0	38.1199	2.07097e-05
2	1	0	1	0	0	1473.21	0.653604	0.653179	0.0669258	13	0.0555952	11	0	40.7168	4.37145e-05
2	1	0	1	0	0	1475.81	0.666588	0.666092	0.127058	13	0.0558413	11	0	43.3137	8.46326e-05
2	1	0	1	0	0	1478.4	0.679574	0.679139	0.220306	13	0.0562855	11	0	45.9107	0.000149618
2	1	0	1	0	0	1481	0.692558	0.692142	0.349271	13	0.0570188	11	0	48.5076	0.000241745
2	1	0	1	0	0	1483.34	0.695754	0.695262	0.381308	13	0.0579507	11	0	50.8452	0.000265109
2	1	0	1	0	0	1485.94	0.682769	0.682376	0.245379	13	0.058755	11	0	53.4421	0.000167441
2	1	0	0	0	0	1488.53	0.669785	0.669329	0.143956	13	0.0592507	11	0	56.039	9.63539e-05
2	1	0	1	0	0	1491.13	0.6568	0.656366	0.079559	13	0.0595338	11	0	58.6359	5.22198e-05
2	1	0	1	0	0	1493.73	0.643816	0.643381	0.0385262	13	0.0596817	11	0	61.2328	2.4787e-05
2	1	0	0	0	0	1496.32	0.630831	0.630397	0.016899	13	0.0597497	11	0	63.8298	1.06531e-05
2	1	0	1	0	0	1498.92	0.617846	0.617407	0.00695059	13	0.0597785	11	0	66.4267	4.29135e-06
2	1	0	1	0	0	1501.52	0.604862	0.604394	0.00295611	13	0.0597902	11	0	69.0236	1.78665e-06
2	1	0	1	0	0	1504.11	0.591877	0.591414	0.00145936	13	0.0597953	11	0	71.6205	8.63088e-07
2	0	0	1	0	0	1506.71	0.578892	0.578451	0.000880372	13	0.0597979	11	0	74.2175	5.09252e-07
2	1	0	1	0	0	1509.31	0.565908	0.565451	0.00054073	13	0.0597993	11	0	76.8144	3.05756e-07
2	1	0	1	0	0	1511.9	0.552923	0.552457	0.000458453	13	0.0598003	11	0	79.4113	2.53276e-07
2	1	0	0	0	0	1514.5	0.539939	0.539457	0.000327043	13	0.0598009	11	0	82.0082	1.76426e-07
2	0	0	1	0	0	1517.1	0.526955	0.526496	0.000266717	13	0.0598014	11	0	84.6051	1.40425e-07
2	0	0	1	0	0	1519.7	0.513969	0.513498	0.000222588	13	0.0598016	11	0	0.000000000000000E+000	1.14299e-07
2	1	0	0	0	0	1522.29	0.500985	0.500501	0.000227706	13	0.0598018	11	0	0.0999	1.13967e-07
2	0	0	1	0	0	1524.89	0.488	0.487495	7.31662e-05	13	0.0598018	11	0	0.0999	3.56681e-08
2	1	0	1	0	0	1527.49	0.475016	0.474567	2.6602e-05	13	0.0598016	11	0	0.000000000000000E+000	1.26244e-08
2	0	0	1	0	0	1530.08	0.462032	0.461571	-3.40045e-05	13	0.0598012	11	0	0.8989	-1.56955e-08
2	1	0	0	0	1	1532.49	0.450071	0.449554	0.00299299	14	0.0598007	11	0	0.01	1.34551e-06
2	0	0	1	0	1	1535.05	0.462831	0.462349	0.00259044	14	0.0598074	11	0	2.5621	1.19769e-06
2	1	0	0	0	1	1537.64	0.475815	0.4754	0.0025138	14	0.0598145	11	0	5.159	1.19506e-06
2	0	0	1	0	1	1540.24	0.488799	0.488387	0.00265678	14	0.0598215	11	0	7.7559	1.29754e-06
2	1	0	1	0	1	1542.84	0.501784	0.501374	0.0025397	14	0.0598286	11	0	10.3528	1.27334e-06
2	1	0	1	0	1	1545.43	0.514768	0.514332	0.00265903	14	0.0598357	11	0	12.9497	1.36762e-06
2	1	0	1	0	1	1548.03	0.527754	0.527324	0.00254016	14	0.0598428	11	0	15.5467	1.33948e-06
2	0	0	1	0	1	1550.63	0.540738	0.540305	0.00261527	14	0.0598499	11	0	18.1436	1.41304e-06
2	1	0	1	0	1	1553.22	0.553722	0.553307	0.0026379	14	0.0598571	11	0	20.7405	1.45957e-06
2	1	0	0	0	1	1555.82	0.566707	0.566234	0.00281932	14	0.0598645	11	0	23.3374	1.59639e-06
2	1	0	1	0	1	1558.42	0.579691	0.579268	0.00299276	14	0.0598724	11	0	25.9343	1.73361e-06
2	1	0	1	0	1	1561.02	0.592676	0.592226	0.00362875	14	0.0598812	11	0	28.5313	2.14904e-06
2	1	0	0	0	1	1563.61	0.605661	0.605198	0.00515103	14	0.0598927	11	0	31.1282	3.11739e-06
2	1	0	1	0	1	1566.21	0.618645	0.618217	0.00909409	14	0.0599107	11	0	33.7251	5.62212e-06
2	1	0	1	0	1	1568.81	0.63163	0.631243	0.0189602	14	0.0599458	11	0	36.322	1.19685e-05
2	1	0	0	0	1	1571.4	0.644615	0.644161	0.0403712	14	0.06002	11	0	38.919	2.60055e-05
2	1	0	1	0	1	1574	0.657599	0.657229	0.0819979	14	0.0601741	11	0	41.5159	5.38914e-05
2	1	0	1	0	1	1576.6	0.670584	0.670182	0.151572	14	0.0604711	11	0	44.1128	0.000101581
2	1	0	1	0	1	1579.19	0.683568	0.683118	0.255625	14	0.0609923	11	0	46.7097	0.000174622
2	1	0	1	0	1	1581.79	0.696554	0.69613	0.394661	14	0.06183	11	0	49.3067	0.000274735
2	1	0	0	0	1	1584.13	0.691759	0.691312	0.334647	14	0.0627469	11	0	51.6442	0.000231346
2	1	0	1	0	1	1586.73	0.678774	0.678389	0.209628	14	0.0634442	11	0	54.2411	0.000142209
2	1	0	1	0	1	1589.32	0.665789	0.665388	0.121884	14	0.0638668	11	0	56.8381	8.11004e-05
2	1	0	0	0	1	1591.92	0.652805	0.652381	0.0629695	14	0.0641	11	0	59.435	4.10801e-05
2	1	0	1	0	1	1594.52	0.63982	0.63938	0.0295379	14	0.0642152	11	0	62.0319	1.88859e-05
2	1	0	1	0	1	1597.11	0.626836	0.626431	0.0126906	14	0.0642668	11	0	64.6288	7.94979e-06
2	1	0	1	0	1	1599.71	0.613852	0.613374	0.00524514	14	0.0642883	11	0	67.2257	3.21723e-06
2	1	0	1	0	1	1602.31	0.600866	0.600458	0.00230138	14	0.0642971	11	0	69.8227	1.38188e-06
2	0	0	1	0	1	1604.9	0.587882	0.58739	0.00121468	14	0.064301	11	0	72.4196	7.13492e-07
2	1	0	1	0	1	1607.5	0.574897	0.574396	0.000781457	14	0.0643031	11	0	75.0165	4.48865e-07
2	0	0	0	0	1	1610.1	0.561913	0.561473	0.000515932	14	0.0643044	11	0	77.6134	2.89682e-07
2	1	0	1	0	1	1612.69	0.548929	0.548484	0.000410806	14	0.0643053	11	0	80.2103	2.2532e-07
2	0	0	1	0	1	1615.29	0.535943	0.535499	0.000380839	14	0.0643059	11	0	82.8073	2.03939e-07
2	1	0	0	0	1	1617.89	0.522959	0.522513	0.000293489	14	0.0643063	11	0	85.4042	1.53352e-07
2	0	0	1	0	1	1620.49	0.509974	0.509497	0.000175372	14	0.0643066	11	0	0.000000000000000E+000	8.93518e-08
2	1	0	1	0	1	1623.08	0.49699	0.496563	7.50199e-05	14	0.0643067	11	0	0.000000000000000E+000	3.72521e-08
2	1	0	0	0	1	1625.68	0.484005	0.483579	5.71391e-05	14	0.0643067	11	0	0.000000000000000E+000	2.76313e-08
2	1	0	1	0	1	1628.28	0.47102	0.470573	1.16393e-05	14	0.0643066	11	0	0.3996	5.47713e-09
2	0	0	1	0	1	1630.87	0.458036	0.457569	-3.32951e-05	14	0.0643063	11	0	2.9965	-1.52348e-08
2	1	0	0	0	0	1633.24	0.453841	0.453363	0.00253072	15	0.0643079	11	0	0.7542	1.14734e-06
2	1	0	1	0	0	1635.84	0.466825	0.466374	0.00264431	15	0.0643149	11	0	3.3511	1.23324e-06
2	1	0	1	0	0	1638.43	0.47981	0.479346	0.00259172	15	0.0643221	11	0	5.948	1.24233e-06
2	1	0	1	0	0	1641.03	0.492794	0.492353	0.00255934	15	0.0643292	11	0	8.5449	1.2601e-06
2	1	0	1	0	0	1643.63	0.50578	0.505352	0.00262163	15	0.0643364	11	0	11.1419	1.32485e-06
2	1	0	1	0	0	1646.22	0.518764	0.518359	0.00259908	15	0.0643435	11	0	13.7388	1.34726e-06
2	1	0	1	0	0	1648.82	0.531748	0.531311	0.002567	15	0.0643506	11	0	16.3357	1.36387e-06
2	1	0	0	0	0	1651.42	0.544733	0.544272	0.00265353	15	0.0643578	11	0	18.9326	1.44424e-06
2	1	0	1	0	0	1654.01	0.557717	0.557314	0.00264248	15	0.0643651	11	0	21.5295	1.47269e-06
2	1	0	1	0	0	1656.61	0.570703	0.570283	0.00285435	15	0.0643727	11	0	24.1265	1.62779e-06
2	1	0	0	0	0	1659.21	0.583687	0.583216	0.00313926	15	0.0643808	11	0	26.7234	1.83087e-06
2	1	0	1	0	0	1661.81	0.596671	0.596219	0.00398014	15	0.0643903	11	0	29.3203	2.37304e-06
2	1	0	1	0	0	1664.4	0.609656	0.609209	0.00599516	15	0.0644032	11	0	31.9172	3.6523e-06
2	1	0	0	0	0	1667	0.622641	0.622217	0.011281	15	0.0644249	11	0	34.5142	7.01926e-06
2	1	0	1	0	0	1669.6	0.635626	0.635214	0.0237027	15	0.0644686	11	0	37.1111	1.50563e-05
2	1	0	1	0	0	1672.19	0.64861	0.648157	0.0503098	15	0.0645615	11	0	39.708	3.26087e-05
2	1	0	1	0	0	1674.79	0.661594	0.661183	0.0997428	15	0.064751	11	0	42.3049	6.59483e-05
2	1	0	1	0	0	1677.39	0.67458	0.674163	0.179398	15	0.0651073	11	0	44.9019	0.000120944
2	1	0	1	0	0	1679.98	0.687564	0.687164	0.293415	15	0.0657141	11	0	47.4988	0.000201624
2	1	0	0	0	0	1682.47	0.699974	0.699575	0.43824	15	0.0666159	11	0	49.9808	0.000306582
2	1	0	1	0	0	1684.92	0.687763	0.687292	0.290593	15	0.0674972	11	0	52.4333	0.000199722
2	1	0	0	0	0	1687.52	0.674779	0.674354	0.175463	15	0.0680924	11	0	55.0302	0.000118324
2	1	0	1	0	0	1690.11	0.661794	0.66139	0.0988389	15	0.0684415	11	0	57.6271	6.53711e-05
2	1	0	1	0	0	1692.71	0.64881	0.648359	0.0497748	15	0.0686278	11	0	60.224	3.22719e-05
2	1	0	1	0	0	1695.31	0.635826	0.635334	0.022986	15	0.068718	11	0	62.8209	1.46038e-05
2	1	0	1	0	0	1697.9	0.62284	0.622409	0.00964664	15	0.0687577	11	0	65.4179	6.00415e-06
2	1	0	1	0	0	1700.5	0.609856	0.60937	0.00395383	15	0.0687739	11	0	68.0148	2.40934e-06
2	1	0	1	0	0	1703.1	0.596871	0.596413	0.00180771	15	0.0687807	11	0	70.6117	1.07814e-06
2	1	0	0	0	0	1705.69	0.583887	0.583435	0.000957757	15	0.0687838	11	0	73.2086	5.58789e-07
2	1	0	1	0	0	1708.29	0.570902	0.570469	0.000639552	15	0.0687855	11	0	75.8056	3.64845e-07
2	0	0	1	0	0	1710.89	0.557917	0.557484	0.000476674	15	0.0687866	11	0	78.4025	2.65738e-07
2	0	0	0	0	0	1713.48	0.544933	0.544513	0.000331606	15	0.0687873	11	0	80.9994	1.80563e-07
2	1	0	1	0	0	1716.08	0.531948	0.531495	0.000360831	15	0.0687877	11	0	83.5963	1.9178e-07
2	1	0	1	0	0	1718.68	0.518964	0.518544	0.000210102	15	0.0687881	11	0	86.1932	1.08947e-07
2	1	0	0	0	0	1721.28	0.505979	0.505544	0.000127926	15	0.0687883	11	0	0.000000000000000E+000	6.46724e-08
2	1	0	1	0	0	1723.87	0.492994	0.492535	0.000124171	15	0.0687883	11	0	0.000000000000000E+000	6.11584e-08
2	0	0	1	0	0	1726.47	0.48001	0.479605	6.92803e-05	15	0.0687882	11	0	0.000000000000000E+000	3.32272e-08
2	1	0	1	0	0	1729.07	0.467025	0.466602	7.31405e-05	15	0.068788	11	0	1.3983	3.41275e-08
2	1	0	1	0	0	1731.66	0.45404	0.45362	-2.53089e-05	15	0.0687877	11	0	0.000000000000000E+000	-1.14806e-08
2	1	0	1	0	0	1732.47	0.450021	0.44942	-0.000961977	15	0.0687876	11	0	0.000000000000000E+000	-4.32332e-07