File: ACS_Catal_2026/Figures_Na_K/main_figures/data/EC/20251112_2-148_alpha_reproducibility/20251112_2-148_005_gamma_reproducibility_K2_01_CVA_C01.mpt
EC-Lab ASCII FILE
Nb header lines : 66

Cyclic Voltammetry Advanced

Run on channel : 1 (SN 69187)
User :
CE vs. WE compliance from -10 V to 10 V
Electrode connection : standard
Potential control : Ewe
Ewe ctrl range : min = -1.00 V, max = 1.00 V
Safety Limits :
	Do not start on E overload
Acquisition started on : 11/12/2025 20:19:02.947
Loaded Setting File :  C:\Users\User\Documents\EC-Lab\Data\Yatsuzuka\20251030_2-147_gamma_reproducibility\20251030_2-147_001_gamma1_K_1.mps
Saved on :
	File : 20251112_2-148_005_gamma_reproducibility_K2_01_CVA_C01.mpr
	Directory : C:\Users\User\Documents\EC-Lab\Data\Yatsuzuka\20251112_2-148_alpha_reproducibility\
	Host : 192.109.209.127
Device : SP-150e (SN .003883)
Address : 192.109.209.128
EC-Lab for windows v11.52 (software)
Internet server v11.52 (firmware)
Command interpretor v11.50 (firmware)
Electrode material :
Initial state :
Electrolyte :
Comments :
Electrode surface area : 0.001 cm2
Characteristic mass : 0.001 g
Equivalent Weight : 0.000 g/eq.
Density : 0.000 g/cm3
Volume (V) : 0.001 cm3
Cycle Definition : Charge/Discharge alternance
Ei (V)              0.350
vs.                 Ref
ti (h:m:s)          0:00:10.0000
dti (s)             0.0000
dE/dt               10.000
dE/dt unit          mV/s
E1 (V)              0.450
vs.                 Ref
t1 (h:m:s)          0:00:0.0000
dt1 (s)             0.1000
Step percent        50
N                   10
E range min (V)     -1.000
E range max (V)     1.000
I Range             Auto
I Range min         Unset
I Range max         Unset
I Range init        Unset
Bandwidth           5
E2 (V)              0.350
vs.                 Ref
t2 (h:m:s)          0:00:0.0000
dt2 (s)             0.1000
nc cycles           9
nr                  1
Reverse Scan        0
Ef (V)              0.000
vs.                 Eoc
tf (h:m:s)          0:00:0.0000
dtf (s)             0.1000

mode	ox/red	error	control changes	Ns changes	counter inc.	time/s	control/V	Ewe/V	<I>/mA	cycle number	(Q-Qo)/C	I Range	Ns	step time/s	P/W
2	0	0	0	0	0	0.000000000000000E+000	0.34995	0.349647	-0.000544676	1	0.0000000E+000	13	0	0.000000000000000E+000	-1.90445e-07
2	1	0	1	0	0	0.3769	0.353719	0.353512	0.000980596	1	6.28059e-07	13	0	0.3496	3.46652e-07
2	1	0	1	0	0	0.7763	0.357714	0.357483	0.00162715	1	1.31476e-06	13	0	0.749	5.81679e-07
2	1	0	1	0	0	1.1758	0.361709	0.36145	0.00251332	1	2.00366e-06	13	0	1.1485	9.08438e-07
2	1	0	1	0	0	1.5752	0.365702	0.365432	0.00239259	1	2.68939e-06	13	0	1.5479	8.74331e-07
2	1	0	1	0	0	1.9747	0.369697	0.369488	0.00147595	1	3.36492e-06	13	0	1.9474	5.45346e-07
2	1	0	1	0	0	2.3741	0.373692	0.373493	0.0011351	1	4.03104e-06	13	0	2.3468	4.23952e-07
2	1	0	1	0	0	2.7735	0.377686	0.377458	0.00186396	1	4.68631e-06	13	0	2.7462	7.03564e-07
2	1	0	1	0	0	3.173	0.38168	0.381419	0.00249346	1	5.33629e-06	13	0	3.1457	9.51055e-07
2	1	0	1	0	0	3.5725	0.385675	0.385424	0.0021687	1	5.97806e-06	13	0	3.5452	8.35868e-07
2	1	0	1	0	0	3.9719	0.389669	0.389423	0.00132332	1	6.60824e-06	13	0	3.9446	5.1533e-07
2	1	0	1	0	0	4.3713	0.393664	0.393359	0.00113184	1	7.22927e-06	13	0	4.344	4.45221e-07
2	1	0	1	0	0	4.7708	0.397659	0.397375	0.0019291	1	7.84308e-06	13	0	4.7435	7.66574e-07
2	1	0	1	0	0	5.1703	0.401653	0.401385	0.00234032	1	8.45056e-06	13	0	5.143	9.39368e-07
2	1	0	1	0	0	5.5697	0.405647	0.405374	0.00154423	1	9.04843e-06	13	0	5.5424	6.25989e-07
2	1	0	1	0	0	5.9691	0.409642	0.409382	0.000970822	1	9.63875e-06	13	0	5.9418	3.97437e-07
2	1	0	1	0	0	6.3686	0.413637	0.413397	0.00159165	1	1.02165e-05	13	0	6.3413	6.57983e-07
2	1	0	1	0	0	6.768	0.41763	0.417378	0.00215731	1	1.07903e-05	13	0	6.7407	9.00413e-07
2	0	0	1	0	0	7.1675	0.421625	0.42137	0.00129696	1	1.13559e-05	13	0	7.1402	5.46498e-07
2	1	0	1	0	0	7.5669	0.42562	0.425404	0.000888543	1	1.19111e-05	13	0	7.5396	3.7799e-07
2	1	0	1	0	0	7.9663	0.429614	0.429384	0.00166161	1	1.24613e-05	13	0	7.939	7.13468e-07
2	0	0	1	0	0	8.3658	0.433608	0.433366	0.00188567	1	1.30069e-05	13	0	8.3385	8.17184e-07
2	0	0	1	0	0	8.7653	0.437603	0.437351	0.00114684	1	1.35459e-05	13	0	8.738	5.01573e-07
2	0	0	1	0	0	9.1647	0.441597	0.441405	0.000748239	1	1.4077e-05	13	0	9.1374	3.30277e-07
2	1	0	1	0	0	9.5641	0.445592	0.445352	0.00138874	1	1.4603e-05	13	0	9.5368	6.1848e-07
2	0	0	1	0	0	9.9636	0.449587	0.449362	0.00181198	1	1.51267e-05	13	0	9.9363	8.14237e-07
2	0	0	1	0	0	10.2799	0.44724	0.447039	-0.00122078	1	1.49296e-05	13	0	0.2771	-5.45737e-07
2	0	0	1	0	0	10.6793	0.443245	0.442934	-0.00177452	1	1.45155e-05	13	0	0.6765	-7.85997e-07
2	0	0	1	0	0	11.0788	0.43925	0.439018	-0.00129423	1	1.4076e-05	13	0	1.076	-5.68191e-07
2	0	0	1	0	0	11.4782	0.435257	0.435039	-0.000682831	1	1.36231e-05	13	0	1.4754	-2.97058e-07
2	0	0	1	0	0	11.8777	0.431262	0.43104	-0.00119094	1	1.31581e-05	13	0	1.8749	-5.13344e-07
2	0	0	1	0	0	12.2771	0.427267	0.427018	-0.00187367	1	1.26777e-05	13	0	2.2743	-8.00092e-07
2	0	0	1	0	0	12.6765	0.423273	0.423022	-0.00144395	1	1.21814e-05	13	0	2.6737	-6.10824e-07
2	0	0	1	0	0	13.076	0.419278	0.419021	-0.000736089	1	1.16769e-05	13	0	3.0732	-3.08437e-07
2	0	0	1	0	0	13.4755	0.415284	0.415057	-0.0011118	1	1.11624e-05	13	0	3.4727	-4.61461e-07
2	0	0	1	0	0	13.8749	0.411289	0.411066	-0.0018625	1	1.06349e-05	13	0	3.8721	-7.65611e-07
2	1	0	1	0	0	14.2743	0.407295	0.407048	-0.001609	1	1.00934e-05	13	0	4.2715	-6.5494e-07
2	1	0	1	0	0	14.6738	0.4033	0.403022	-0.000811944	1	9.54137e-06	13	0	4.671	-3.27231e-07
2	1	0	1	0	0	15.0733	0.399306	0.399049	-0.000771568	1	8.98286e-06	13	0	5.0705	-3.07893e-07
2	1	0	1	0	0	15.4727	0.395312	0.395011	-0.00159854	1	8.41225e-06	13	0	5.4699	-6.31442e-07
2	1	0	1	0	0	15.8721	0.391317	0.391045	-0.0020091	1	7.82573e-06	13	0	5.8693	-7.8565e-07
2	1	0	1	0	0	16.2716	0.387322	0.387021	-0.00130728	1	7.22751e-06	13	0	6.2688	-5.05945e-07
2	1	0	1	0	0	16.671	0.383329	0.383009	-0.000683873	1	6.62047e-06	13	0	6.6682	-2.61929e-07
2	1	0	1	0	0	17.0705	0.379334	0.379048	-0.0011649	1	6.00352e-06	13	0	7.0677	-4.41553e-07
2	1	0	1	0	0	17.4699	0.375339	0.375062	-0.00206817	1	5.37164e-06	13	0	7.4671	-7.75691e-07
2	1	0	1	0	0	17.8693	0.371345	0.371062	-0.00208727	1	4.72103e-06	13	0	7.8665	-7.74507e-07
2	1	0	1	0	0	18.2688	0.36735	0.367087	-0.00124379	1	4.0583e-06	13	0	8.266	-4.5658e-07
2	0	0	1	0	0	18.6683	0.363356	0.363073	-0.000919948	1	3.38239e-06	13	0	8.6655	-3.34009e-07
2	0	0	1	0	0	19.0677	0.359361	0.359081	-0.00189303	1	2.68855e-06	13	0	9.0649	-6.7975e-07
2	0	0	1	0	0	19.4671	0.355367	0.355095	-0.00263036	1	1.97577e-06	13	0	9.4643	-9.34028e-07
2	0	0	1	0	0	19.8666	0.351372	0.351108	-0.00210055	1	1.24444e-06	13	0	9.8638	-7.37522e-07
2	1	0	1	0	1	20.1338	0.351322	0.351117	0.000843992	2	1.18946e-06	13	0	0.1274	2.9634e-07
2	1	0	1	0	1	20.5333	0.355317	0.355085	0.00157001	2	1.81463e-06	13	0	0.5269	5.57486e-07
2	1	0	1	0	1	20.9327	0.359311	0.359096	0.00251818	2	2.46857e-06	13	0	0.9263	9.04269e-07
2	1	0	1	0	1	21.3321	0.363306	0.363053	0.00226409	2	3.12849e-06	13	0	1.3257	8.21983e-07
2	1	0	1	0	1	21.7316	0.3673	0.36706	0.00127649	2	3.78517e-06	13	0	1.7252	4.68549e-07
2	1	0	1	0	1	22.1311	0.371295	0.371081	0.0012518	2	4.43323e-06	13	0	2.1247	4.64518e-07
2	1	0	1	0	1	22.5305	0.375289	0.375036	0.00218379	2	5.07779e-06	13	0	2.5241	8.19001e-07
2	1	0	1	0	1	22.9299	0.379284	0.379032	0.00241609	2	5.71713e-06	13	0	2.9235	9.15776e-07
2	1	0	1	0	1	23.3294	0.383279	0.383042	0.00156609	2	6.34881e-06	13	0	3.323	5.99879e-07
2	1	0	1	0	1	23.7288	0.387272	0.387012	0.000959423	2	6.97098e-06	13	0	3.7224	3.71308e-07
2	1	0	1	0	1	24.1283	0.391267	0.391002	0.00152095	2	7.58295e-06	13	0	4.1219	5.94692e-07
2	1	0	1	0	1	24.5277	0.395262	0.395055	0.00216161	2	8.19179e-06	13	0	4.5213	8.53954e-07
2	0	0	1	0	1	24.9271	0.399256	0.399035	0.00190455	2	8.79255e-06	13	0	4.9207	7.5998e-07
2	0	0	1	0	1	25.3266	0.40325	0.403005	0.00101138	2	9.38445e-06	13	0	5.3202	4.0759e-07
2	1	0	1	0	1	25.7261	0.407245	0.407052	0.000966497	2	9.97127e-06	13	0	5.7197	3.93415e-07
2	1	0	1	0	1	26.1255	0.411239	0.411084	0.00184539	2	1.05479e-05	13	0	6.1191	7.5861e-07
2	0	0	1	0	1	26.5249	0.415234	0.415055	0.00167781	2	1.11195e-05	13	0	6.5185	6.96385e-07
2	0	0	1	0	1	26.9244	0.419228	0.418981	0.000826222	2	1.16829e-05	13	0	6.918	3.46171e-07
2	1	0	1	0	1	27.3239	0.423223	0.422999	0.000871401	2	1.22367e-05	13	0	7.3175	3.68602e-07
2	1	0	1	0	1	27.7233	0.427217	0.426937	0.00162702	2	1.27873e-05	13	0	7.7169	6.94635e-07
2	0	0	1	0	1	28.1227	0.431212	0.430969	0.00168666	2	1.33325e-05	13	0	8.1163	7.26899e-07
2	0	0	1	0	1	28.5222	0.435207	0.434923	0.000905035	2	1.38713e-05	13	0	8.5158	3.9362e-07
2	0	0	1	0	1	28.9216	0.4392	0.438966	0.000763601	2	1.44017e-05	13	0	8.9152	3.35195e-07
2	0	0	1	0	1	29.3211	0.443195	0.442954	0.00154843	2	1.49272e-05	13	0	9.3147	6.85884e-07
2	0	0	1	0	1	29.7205	0.44719	0.447	0.00162738	2	1.54494e-05	13	0	9.7141	7.27438e-07
2	0	0	1	0	1	30.0268	0.449737	0.4495	-0.00145424	2	1.57827e-05	13	0	0.000000000000000E+000	-6.53678e-07
2	0	0	1	0	1	30.4263	0.445742	0.445477	-0.00102813	2	1.53934e-05	13	0	0.3995	-4.58008e-07
2	0	0	1	0	1	30.8257	0.441747	0.441529	-0.000728383	2	1.49681e-05	13	0	0.7989	-3.21602e-07
2	0	0	1	0	1	31.2251	0.437753	0.437479	-0.00153018	2	1.45233e-05	13	0	1.1983	-6.69422e-07
2	0	0	1	0	1	31.6246	0.433759	0.433524	-0.00188507	2	1.4061e-05	13	0	1.5978	-8.17225e-07
2	0	0	1	0	1	32.0241	0.429764	0.429533	-0.0011365	2	1.35878e-05	13	0	1.9973	-4.88163e-07
2	0	0	1	0	1	32.4235	0.425769	0.425477	-0.000882006	2	1.31058e-05	13	0	2.3967	-3.75273e-07
2	0	0	1	0	1	32.8229	0.421775	0.421533	-0.00179562	2	1.26097e-05	13	0	2.7961	-7.56914e-07
2	0	0	1	0	1	33.2224	0.41778	0.417445	-0.00182188	2	1.20983e-05	13	0	3.1956	-7.60533e-07
2	0	0	1	0	1	33.6219	0.413786	0.413553	-0.000950373	2	1.158e-05	13	0	3.5951	-3.9303e-07
2	0	0	1	0	1	34.0213	0.409791	0.409541	-0.00104442	2	1.1052e-05	13	0	3.9945	-4.27732e-07
2	0	0	1	0	1	34.4207	0.405797	0.40552	-0.00193121	2	1.05091e-05	13	0	4.3939	-7.83142e-07
2	1	0	1	0	1	34.8202	0.401802	0.401547	-0.00184975	2	9.95471e-06	13	0	4.7934	-7.42761e-07
2	1	0	1	0	1	35.2196	0.397809	0.397517	-0.000968747	2	9.39032e-06	13	0	5.1928	-3.85094e-07
2	1	0	1	0	1	35.6191	0.393814	0.393552	-0.00077691	2	8.81728e-06	13	0	5.5923	-3.05755e-07
2	1	0	1	0	1	36.0185	0.389819	0.389579	-0.00155416	2	8.23288e-06	13	0	5.9917	-6.05469e-07
2	1	0	1	0	1	36.4179	0.385825	0.38548	-0.00207431	2	7.6342e-06	13	0	6.3911	-7.99606e-07
2	1	0	1	0	1	36.8174	0.381831	0.381563	-0.00145379	2	7.01938e-06	13	0	6.7906	-5.54712e-07
2	1	0	1	0	1	37.2169	0.377836	0.37755	-0.000731025	2	6.39292e-06	13	0	7.1901	-2.75999e-07
2	0	0	1	0	1	37.6163	0.373841	0.37357	-0.00127213	2	5.75428e-06	13	0	7.5895	-4.75228e-07
2	0	0	1	0	1	38.0157	0.369847	0.369589	-0.00222767	2	5.09908e-06	13	0	7.9889	-8.23323e-07
2	1	0	1	0	1	38.4152	0.365852	0.365585	-0.00175012	2	4.42571e-06	13	0	8.3884	-6.39819e-07
2	0	0	1	0	1	38.8147	0.361858	0.361616	-0.00090912	2	3.74351e-06	13	0	8.7879	-3.28752e-07
2	0	0	1	0	1	39.2141	0.357864	0.357525	-0.00201864	2	3.04565e-06	13	0	9.1873	-7.21713e-07
2	0	0	1	0	1	39.6135	0.353869	0.353627	-0.00263337	2	2.32811e-06	13	0	9.5867	-9.31232e-07
2	0	0	1	0	1	39.9931	0.350074	0.349752	-0.00170645	2	1.62874e-06	13	0	9.9663	-5.96834e-07
2	1	0	1	0	0	40.2802	0.35282	0.352559	0.00145364	3	2.04316e-06	13	0	0.2822	5.12496e-07
2	1	0	1	0	0	40.6797	0.356815	0.356564	0.00257881	3	2.68475e-06	13	0	0.6817	9.19513e-07
2	1	0	1	0	0	41.0791	0.360809	0.360532	0.00206025	3	3.34057e-06	13	0	1.0811	7.42786e-07
2	1	0	1	0	0	41.4785	0.364804	0.364607	0.00108659	3	3.99433e-06	13	0	1.4805	3.96177e-07
2	1	0	1	0	0	41.878	0.368799	0.36854	0.00165498	3	4.64152e-06	13	0	1.88	6.09924e-07
2	1	0	1	0	0	42.2775	0.372793	0.37258	0.00245118	3	5.28885e-06	13	0	2.2795	9.13262e-07
2	0	0	1	0	0	42.6769	0.376787	0.376552	0.00185633	3	5.93104e-06	13	0	2.6789	6.99003e-07
2	0	0	1	0	0	43.0763	0.380782	0.380528	0.000938882	3	6.56297e-06	13	0	3.0783	3.57271e-07
2	1	0	1	0	0	43.4758	0.384777	0.384489	0.001188	3	7.18443e-06	13	0	3.4778	4.56774e-07
2	1	0	1	0	0	43.8752	0.38877	0.388529	0.0020114	3	7.80252e-06	13	0	3.8772	7.81486e-07
2	0	0	1	0	0	44.2747	0.392765	0.39251	0.00186392	3	8.41501e-06	13	0	4.2767	7.31608e-07
2	0	0	1	0	0	44.6741	0.39676	0.396488	0.000903369	3	9.01788e-06	13	0	4.6761	3.58175e-07
2	1	0	1	0	0	45.0735	0.400754	0.400515	0.000992794	3	9.6103e-06	13	0	5.0755	3.97629e-07
2	1	0	1	0	0	45.473	0.404748	0.404532	0.00185234	3	1.01972e-05	13	0	5.475	7.49329e-07
2	0	0	1	0	0	45.8725	0.408743	0.408535	0.00164379	3	1.07822e-05	13	0	5.8745	6.71544e-07
2	0	0	1	0	0	46.2719	0.412737	0.41254	0.000798172	3	1.13549e-05	13	0	6.2739	3.29278e-07
2	0	0	1	0	0	46.6713	0.416732	0.416553	0.00106878	3	1.19177e-05	13	0	6.6733	4.45205e-07
2	0	0	1	0	0	47.0708	0.420727	0.420526	0.00187165	3	1.2478e-05	13	0	7.0728	7.87075e-07
2	0	0	1	0	0	47.4703	0.424721	0.424446	0.00163816	3	1.30316e-05	13	0	7.4723	6.9531e-07
2	0	0	1	0	0	47.8697	0.428715	0.428492	0.000865896	3	1.35768e-05	13	0	7.8717	3.71029e-07
2	1	0	1	0	0	48.2691	0.43271	0.432427	0.00110916	3	1.41127e-05	13	0	8.2711	4.79632e-07
2	1	0	1	0	0	48.6686	0.436705	0.436475	0.00187372	3	1.46461e-05	13	0	8.6706	8.17833e-07
2	1	0	1	0	0	49.068	0.440698	0.44045	0.00187221	3	1.51742e-05	13	0	9.07	8.24617e-07
2	1	0	1	0	0	49.4675	0.444693	0.444485	0.00116768	3	1.56976e-05	13	0	9.4695	5.19017e-07
2	1	0	1	0	0	49.8669	0.448687	0.44853	0.000922015	3	1.62116e-05	13	0	9.8689	4.13551e-07
2	0	0	1	0	0	50.1732	0.448239	0.447996	-0.000629274	3	1.62189e-05	13	0	0.1498	-2.81912e-07
2	0	0	1	0	0	50.5727	0.444244	0.443949	-0.000940847	3	1.58137e-05	13	0	0.5493	-4.17688e-07
2	0	0	1	0	0	50.9721	0.440249	0.439973	-0.00173367	3	1.53798e-05	13	0	0.9487	-7.62766e-07
2	1	0	1	0	0	51.3715	0.436255	0.435974	-0.00123179	3	1.49264e-05	13	0	1.3481	-5.37029e-07
2	1	0	1	0	0	51.771	0.43226	0.432002	-0.000577807	3	1.44628e-05	13	0	1.7476	-2.49614e-07
2	1	0	1	0	0	52.1705	0.428266	0.428038	-0.00122098	3	1.39865e-05	13	0	2.1471	-5.22627e-07
2	1	0	1	0	0	52.5699	0.424271	0.423975	-0.00175386	3	1.34969e-05	13	0	2.5465	-7.43592e-07
2	1	0	1	0	0	52.9693	0.420277	0.420037	-0.000994122	3	1.2996e-05	13	0	2.9459	-4.17568e-07
2	1	0	1	0	0	53.3688	0.416282	0.416053	-0.000719187	3	1.24864e-05	13	0	3.3454	-2.9922e-07
2	0	0	1	0	0	53.7683	0.412288	0.412028	-0.00172079	3	1.1964e-05	13	0	3.7449	-7.09015e-07
2	1	0	1	0	0	54.1677	0.408294	0.408026	-0.0017134	3	1.14271e-05	13	0	4.1443	-6.99113e-07
2	0	0	1	0	0	54.5671	0.404299	0.404046	-0.000907946	3	1.08789e-05	13	0	4.5437	-3.66852e-07
2	0	0	1	0	0	54.9666	0.400304	0.400059	-0.00107508	3	1.03241e-05	13	0	4.9432	-4.30093e-07
2	0	0	1	0	0	55.366	0.396311	0.395977	-0.00200303	3	9.75587e-06	13	0	5.3426	-7.93154e-07
2	0	0	1	0	0	55.7655	0.392316	0.392043	-0.00205811	3	9.17359e-06	13	0	5.7421	-8.06866e-07
2	0	0	1	0	0	56.1649	0.388321	0.388008	-0.00113387	3	8.58257e-06	13	0	6.1415	-4.39951e-07
2	0	0	1	0	0	56.5643	0.384327	0.38401	-0.00133038	3	7.98082e-06	13	0	6.5409	-5.10879e-07
2	0	0	1	0	0	56.9638	0.380332	0.380014	-0.00230772	3	7.36578e-06	13	0	6.9404	-8.76965e-07
2	0	0	1	0	0	57.3633	0.376338	0.376053	-0.00227587	3	6.7346e-06	13	0	7.3399	-8.55847e-07
2	0	0	1	0	0	57.7627	0.372343	0.372054	-0.00119938	3	6.09389e-06	13	0	7.7393	-4.46233e-07
2	0	0	1	0	0	58.1621	0.368349	0.368025	-0.00181616	3	5.44036e-06	13	0	8.1387	-6.68392e-07
2	0	0	1	0	0	58.5616	0.364354	0.364091	-0.00254499	3	4.76776e-06	13	0	8.5382	-9.26609e-07
2	0	0	1	0	0	58.9611	0.36036	0.360028	-0.00136116	3	4.08085e-06	13	0	8.9377	-4.90056e-07
2	0	0	1	0	0	59.3605	0.356366	0.356042	-0.00131878	3	3.38111e-06	13	0	9.3371	-4.69541e-07
2	0	0	1	0	0	59.7599	0.352371	0.352087	-0.00242435	3	2.66316e-06	13	0	9.7365	-8.53581e-07
2	0	0	1	0	1	60.0271	0.350324	0.350047	0.00131892	4	2.26178e-06	13	0	0.0275	4.61684e-07
2	0	0	1	0	1	60.4266	0.354318	0.354079	0.000715841	4	2.86962e-06	13	0	0.427	2.53464e-07
2	0	0	1	0	1	60.8261	0.358313	0.358033	0.00121421	4	3.51547e-06	13	0	0.8265	4.34728e-07
2	0	0	1	0	1	61.2255	0.362307	0.362054	0.002211	4	4.17149e-06	13	0	1.2259	8.00502e-07
2	0	0	1	0	1	61.6249	0.366302	0.366082	0.00211725	4	4.82907e-06	13	0	1.6253	7.75087e-07
2	0	0	1	0	1	62.0244	0.370297	0.370076	0.00102936	4	5.48044e-06	13	0	2.0248	3.80941e-07
2	1	0	1	0	1	62.4238	0.37429	0.37406	0.00140642	4	6.12283e-06	13	0	2.4242	5.26083e-07
2	1	0	1	0	1	62.8233	0.378285	0.378069	0.00240164	4	6.76219e-06	13	0	2.8237	9.07985e-07
2	1	0	1	0	1	63.2227	0.38228	0.382006	0.00175461	4	7.39282e-06	13	0	3.2231	6.7027e-07
2	1	0	1	0	1	63.6221	0.386274	0.386022	0.00103911	4	8.01318e-06	13	0	3.6225	4.0112e-07
2	1	0	1	0	1	64.0216	0.390268	0.390085	0.00188747	4	8.62587e-06	13	0	4.022	7.36276e-07
2	1	0	1	0	1	64.4211	0.394263	0.394003	0.00227556	4	9.23297e-06	13	0	4.4215	8.96578e-07
2	1	0	1	0	1	64.8205	0.398257	0.398022	0.0012347	4	9.83077e-06	13	0	4.8209	4.91437e-07
2	1	0	1	0	1	65.2199	0.402252	0.402034	0.00122936	4	1.04186e-05	13	0	5.2203	4.94246e-07
2	1	0	1	0	1	65.6194	0.406246	0.406043	0.0022059	4	1.10023e-05	13	0	5.6198	8.95688e-07
2	0	0	1	0	1	66.0189	0.410241	0.410058	0.00182189	4	1.15807e-05	13	0	6.0193	7.47082e-07
2	0	0	1	0	1	66.4183	0.414235	0.414008	0.000916151	4	1.21481e-05	13	0	6.4187	3.79294e-07
2	1	0	1	0	1	66.8177	0.41823	0.418006	0.00111574	4	1.2705e-05	13	0	6.8181	4.66385e-07
2	1	0	1	0	1	67.2172	0.422225	0.421957	0.00179536	4	1.3259e-05	13	0	7.2176	7.57564e-07
2	0	0	1	0	1	67.6167	0.426219	0.426037	0.00181885	4	1.38085e-05	13	0	7.6171	7.74899e-07
2	0	0	1	0	1	68.0161	0.430213	0.429971	0.000999654	4	1.4351e-05	13	0	8.0165	4.29823e-07
2	1	0	1	0	1	68.4155	0.434208	0.43401	0.000755652	4	1.48857e-05	13	0	8.4159	3.27961e-07
2	1	0	1	0	1	68.815	0.438203	0.437975	0.00153295	4	1.54161e-05	13	0	8.8154	6.71393e-07
2	0	0	1	0	1	69.2144	0.442196	0.441994	0.00169476	4	1.59425e-05	13	0	9.2148	7.49073e-07
2	0	0	1	0	1	69.6139	0.446191	0.44598	0.000885347	4	1.64631e-05	13	0	9.6143	3.94847e-07
2	0	0	0	0	1	69.9908	0.449961	0.449831	0.00203515	4	1.69608e-05	13	0	9.9912	9.15473e-07
2	0	0	1	0	1	70.3196	0.446741	0.446504	-0.00059734	4	1.66405e-05	13	0	0.2996	-2.66714e-07
2	0	0	1	0	1	70.7191	0.442746	0.442481	-0.00103973	4	1.62228e-05	13	0	0.6991	-4.60059e-07
2	0	0	1	0	1	71.1185	0.438751	0.438486	-0.00180549	4	1.57845e-05	13	0	1.0985	-7.91681e-07
2	0	0	1	0	1	71.5179	0.434757	0.434487	-0.00165482	4	1.53284e-05	13	0	1.4979	-7.18998e-07
2	0	0	1	0	1	71.9174	0.430762	0.430522	-0.00094096	4	1.48618e-05	13	0	1.8974	-4.05104e-07
2	0	0	1	0	1	72.3169	0.426768	0.426494	-0.000958687	4	1.43847e-05	13	0	2.2969	-4.08874e-07
2	0	0	1	0	1	72.7163	0.422774	0.422485	-0.00169567	4	1.38938e-05	13	0	2.6963	-7.16397e-07
2	0	0	1	0	1	73.1157	0.418779	0.418489	-0.00196517	4	1.33895e-05	13	0	3.0957	-8.22401e-07
2	0	0	1	0	1	73.5152	0.414784	0.414546	-0.00126959	4	1.28749e-05	13	0	3.4952	-5.26305e-07
2	0	0	1	0	1	73.9146	0.410791	0.410565	-0.00072499	4	1.23515e-05	13	0	3.8946	-2.97655e-07
2	0	0	1	0	1	74.3141	0.406796	0.406573	-0.00143513	4	1.18177e-05	13	0	4.2941	-5.83485e-07
2	1	0	1	0	1	74.7135	0.402801	0.40257	-0.00192688	4	1.12667e-05	13	0	4.6935	-7.75706e-07
2	1	0	1	0	1	75.1129	0.398807	0.398545	-0.00100637	4	1.07074e-05	13	0	5.0929	-4.01083e-07
2	1	0	1	0	1	75.5124	0.394813	0.394498	-0.000867731	4	1.01393e-05	13	0	5.4924	-3.42318e-07
2	1	0	1	0	1	75.9119	0.390818	0.390509	-0.0018573	4	9.55613e-06	13	0	5.8919	-7.25291e-07
2	1	0	1	0	1	76.3113	0.386823	0.386566	-0.0019323	4	8.95725e-06	13	0	6.2913	-7.4696e-07
2	1	0	1	0	1	76.7107	0.382829	0.382559	-0.00109589	4	8.34786e-06	13	0	6.6907	-4.19241e-07
2	0	0	1	0	1	77.1102	0.378834	0.378539	-0.000893806	4	7.72748e-06	13	0	7.0902	-3.3834e-07
2	0	0	1	0	1	77.5097	0.37484	0.374586	-0.00185715	4	7.09479e-06	13	0	7.4897	-6.95662e-07
2	0	0	1	0	1	77.9091	0.370846	0.370585	-0.0023902	4	6.44421e-06	13	0	7.8891	-8.85772e-07
2	0	0	1	0	1	78.3085	0.366851	0.366569	-0.0017344	4	5.77996e-06	13	0	8.2885	-6.35776e-07
2	0	0	1	0	1	78.708	0.362856	0.362595	-0.00108512	4	5.10577e-06	13	0	8.688	-3.9346e-07
2	0	0	1	0	1	79.1074	0.358863	0.358585	-0.00161685	4	4.41615e-06	13	0	9.0874	-5.79777e-07
2	0	0	1	0	1	79.5069	0.354868	0.354568	-0.00260276	4	3.70948e-06	13	0	9.4869	-9.22856e-07
2	0	0	1	0	1	79.9063	0.350873	0.350557	-0.00266668	4	2.98285e-06	13	0	9.8863	-9.34821e-07
2	1	0	1	0	0	80.1735	0.351822	0.351569	0.0009477	5	3.08902e-06	13	0	0.1773	3.33182e-07
2	1	0	1	0	0	80.573	0.355817	0.355557	0.00187532	5	3.71728e-06	13	0	0.5768	6.66783e-07
2	1	0	1	0	0	80.9725	0.359811	0.359573	0.00253034	5	4.36832e-06	13	0	0.9763	9.09842e-07
2	0	0	1	0	0	81.3719	0.363805	0.363566	0.00137899	5	5.02344e-06	13	0	1.3757	5.01353e-07
2	1	0	1	0	0	81.7713	0.3678	0.367551	0.00116924	5	5.67132e-06	13	0	1.7751	4.29756e-07
2	1	0	1	0	0	82.1708	0.371795	0.371614	0.00216035	5	6.31732e-06	13	0	2.1746	8.02817e-07
2	0	0	1	0	0	82.5702	0.375788	0.375605	0.0021348	5	6.95775e-06	13	0	2.574	8.01844e-07
2	0	0	1	0	0	82.9697	0.379783	0.379485	0.00104164	5	7.58941e-06	13	0	2.9735	3.95287e-07
2	1	0	1	0	0	83.3691	0.383778	0.38346	0.00124019	5	8.21162e-06	13	0	3.3729	4.75564e-07
2	1	0	1	0	0	83.7685	0.387772	0.387503	0.0021635	5	8.83035e-06	13	0	3.7723	8.38363e-07
2	0	0	1	0	0	84.168	0.391766	0.39153	0.00165006	5	9.44197e-06	13	0	4.1718	6.46049e-07
2	0	0	1	0	0	84.5675	0.395761	0.395501	0.000787919	5	1.00428e-05	13	0	4.5713	3.11623e-07
2	1	0	1	0	0	84.9669	0.399755	0.399538	0.00157438	5	1.06349e-05	13	0	4.9707	6.29025e-07
2	0	0	1	0	0	85.3663	0.40375	0.40346	0.00194902	5	1.12228e-05	13	0	5.3701	7.86354e-07
2	0	0	1	0	0	85.7658	0.407745	0.407533	0.00101362	5	1.18054e-05	13	0	5.7696	4.13085e-07
2	1	0	1	0	0	86.1653	0.411739	0.411576	0.000898621	5	1.2375e-05	13	0	6.1691	3.69851e-07
2	0	0	1	0	0	86.5647	0.415733	0.415519	0.00179523	5	1.29408e-05	13	0	6.5685	7.45953e-07
2	0	0	1	0	0	86.9641	0.419728	0.419472	0.00176133	5	1.35015e-05	13	0	6.9679	7.38828e-07
2	0	0	1	0	0	87.3636	0.423723	0.42347	0.000926974	5	1.40546e-05	13	0	7.3674	3.92546e-07
2	1	0	1	0	0	87.763	0.427716	0.427492	0.00111599	5	1.45992e-05	13	0	7.7668	4.77076e-07
2	1	0	1	0	0	88.1625	0.431711	0.431503	0.00192177	5	1.51401e-05	13	0	8.1663	8.29248e-07
2	0	0	1	0	0	88.5619	0.435706	0.435446	0.00150736	5	1.56751e-05	13	0	8.5657	6.56374e-07
2	1	0	1	0	0	88.9613	0.4397	0.439485	0.000832085	5	1.62027e-05	13	0	8.9651	3.65689e-07
2	1	0	1	0	0	89.3608	0.443694	0.44346	0.00142662	5	1.6723e-05	13	0	9.3646	6.3265e-07
2	1	0	1	0	0	89.7603	0.447689	0.447492	0.001969	5	1.7241e-05	13	0	9.7641	8.81113e-07
2	0	0	1	0	0	90.0665	0.449237	0.448974	-0.00151484	5	1.74661e-05	13	0	0.0499	-6.80122e-07
2	0	0	1	0	0	90.466	0.445242	0.444994	-0.00154933	5	1.70688e-05	13	0	0.4494	-6.89442e-07
2	0	0	1	0	0	90.8655	0.441248	0.440977	-0.000818227	5	1.66399e-05	13	0	0.8489	-3.60819e-07
2	0	0	1	0	0	91.2649	0.437253	0.436997	-0.000928337	5	1.61951e-05	13	0	1.2483	-4.0568e-07
2	0	0	1	0	0	91.6643	0.433259	0.433027	-0.00171819	5	1.57349e-05	13	0	1.6477	-7.44023e-07
2	0	0	1	0	0	92.0638	0.429264	0.42904	-0.00166612	5	1.52587e-05	13	0	2.0472	-7.14832e-07
2	0	0	1	0	0	92.4632	0.425271	0.425006	-0.000902972	5	1.47738e-05	13	0	2.4466	-3.83769e-07
2	0	0	1	0	0	92.8627	0.421276	0.420973	-0.000917691	5	1.42781e-05	13	0	2.8461	-3.86323e-07
2	0	0	1	0	0	93.2621	0.417281	0.417026	-0.00166241	5	1.37714e-05	13	0	3.2455	-6.9327e-07
2	1	0	1	0	0	93.6616	0.413286	0.413069	-0.00193387	5	1.32522e-05	13	0	3.645	-7.98823e-07
2	1	0	1	0	0	94.061	0.409293	0.409068	-0.00110904	5	1.27247e-05	13	0	4.0444	-4.53671e-07
2	0	0	1	0	0	94.4605	0.405298	0.405018	-0.000821194	5	1.21861e-05	13	0	4.4439	-3.32599e-07
2	0	0	1	0	0	94.8599	0.401303	0.401035	-0.00172739	5	1.16377e-05	13	0	4.8433	-6.92745e-07
2	1	0	1	0	0	95.2593	0.397309	0.397025	-0.00183922	5	1.10744e-05	13	0	5.2427	-7.30216e-07
2	1	0	1	0	0	95.6588	0.393314	0.393002	-0.000892693	5	1.05014e-05	13	0	5.6422	-3.5083e-07
2	1	0	1	0	0	96.0583	0.38932	0.389081	-0.00115288	5	9.91782e-06	13	0	6.0417	-4.48566e-07
2	1	0	1	0	0	96.4577	0.385325	0.384993	-0.00205263	5	9.32059e-06	13	0	6.4411	-7.90248e-07
2	1	0	1	0	0	96.8571	0.381331	0.381006	-0.00167385	5	8.7069e-06	13	0	6.8405	-6.37748e-07
2	1	0	1	0	0	97.2566	0.377336	0.377049	-0.000817827	5	8.08455e-06	13	0	7.24	-3.08361e-07
2	1	0	1	0	0	97.6561	0.373342	0.373115	-0.00127675	5	7.44972e-06	13	0	7.6395	-4.76377e-07
2	1	0	1	0	0	98.0555	0.369348	0.369076	-0.00219653	5	6.79788e-06	13	0	8.0389	-8.10686e-07
2	1	0	1	0	0	98.4549	0.365353	0.365077	-0.00214106	5	6.12677e-06	13	0	8.4383	-7.81653e-07
2	1	0	1	0	0	98.8544	0.361358	0.361073	-0.00116769	5	5.44688e-06	13	0	8.8378	-4.21622e-07
2	0	0	1	0	0	99.2538	0.357365	0.35714	-0.00109675	5	4.7523e-06	13	0	9.2372	-3.91694e-07
2	0	0	1	0	0	99.6533	0.35337	0.35307	-0.00210336	5	4.04333e-06	13	0	9.6367	-7.42634e-07
2	0	0	1	0	0	99.9878	0.35	0.349666	-0.00385929	5	3.40978e-06	13	0	9.9712	-1.34946e-06
2	0	0	1	0	1	100.32	0.35332	0.353091	0.00109767	6	3.92691e-06	13	0	0.3271	3.87577e-07
2	1	0	1	0	1	100.719	0.357315	0.357053	0.00111867	6	4.56523e-06	13	0	0.7266	3.99425e-07
2	1	0	1	0	1	101.119	0.361308	0.361095	0.00213429	6	5.21653e-06	13	0	1.126	7.70682e-07
2	1	0	1	0	1	101.518	0.365303	0.365076	0.00244809	6	5.87066e-06	13	0	1.5255	8.93738e-07
2	1	0	1	0	1	101.918	0.369298	0.369054	0.00155804	6	6.52021e-06	13	0	1.9249	5.74999e-07
2	1	0	1	0	1	102.317	0.373292	0.373075	0.00102295	6	7.16026e-06	13	0	2.3243	3.81635e-07
2	1	0	1	0	1	102.717	0.377286	0.377062	0.00167492	6	7.79342e-06	13	0	2.7238	6.3155e-07
2	1	0	1	0	1	103.116	0.381281	0.381015	0.00241765	6	8.42205e-06	13	0	3.1233	9.21162e-07
2	1	0	1	0	1	103.515	0.385275	0.385028	0.00193169	6	9.044e-06	13	0	3.5227	7.43754e-07
2	1	0	1	0	1	103.915	0.38927	0.389028	0.00113074	6	9.65614e-06	13	0	3.9221	4.3989e-07
2	1	0	1	0	1	104.314	0.393264	0.393003	0.00134675	6	1.02583e-05	13	0	4.3216	5.29275e-07
2	1	0	1	0	1	104.714	0.397259	0.397034	0.00228912	6	1.08555e-05	13	0	4.7211	9.08857e-07
2	1	0	1	0	1	105.113	0.401253	0.401014	0.00171757	6	1.14465e-05	13	0	5.1205	6.88769e-07
2	1	0	1	0	1	105.513	0.405248	0.405018	0.00100213	6	1.20285e-05	13	0	5.5199	4.05881e-07
2	1	0	1	0	1	105.912	0.409243	0.408988	0.00167298	6	1.26037e-05	13	0	5.9194	6.8423e-07
2	1	0	1	0	1	106.312	0.413236	0.413027	0.00223313	6	1.31727e-05	13	0	6.3188	9.22343e-07
2	1	0	1	0	1	106.711	0.417231	0.417023	0.00161425	6	1.37335e-05	13	0	6.7183	6.73181e-07
2	1	0	1	0	1	107.11	0.421226	0.421033	0.000963428	6	1.42865e-05	13	0	7.1177	4.05635e-07
2	1	0	1	0	1	107.51	0.425221	0.424995	0.00144379	6	1.48301e-05	13	0	7.5172	6.13602e-07
2	1	0	1	0	1	107.909	0.429214	0.428967	0.00211185	6	1.5371e-05	13	0	7.9166	9.05912e-07
2	1	0	1	0	1	108.309	0.433209	0.432958	0.00161442	6	1.59066e-05	13	0	8.3161	6.98976e-07
2	1	0	1	0	1	108.708	0.437203	0.436996	0.000947014	6	1.64341e-05	13	0	8.7155	4.13841e-07
2	1	0	1	0	1	109.108	0.441198	0.440997	0.00132918	6	1.69541e-05	13	0	9.1149	5.86166e-07
2	1	0	1	0	1	109.507	0.445192	0.444993	0.00201517	6	1.74726e-05	13	0	9.5144	8.96734e-07
2	1	0	1	0	1	109.907	0.449187	0.448981	0.0015619	6	1.79864e-05	13	0	9.9139	7.01262e-07
2	1	0	1	0	1	110.213	0.447739	0.447542	-0.00150585	6	1.78833e-05	13	0	0.1997	-6.7393e-07
2	1	0	1	0	1	110.612	0.443744	0.443421	-0.000808275	6	1.7471e-05	13	0	0.5992	-3.58406e-07
2	0	0	1	0	1	111.012	0.43975	0.439457	-0.000743497	6	1.70361e-05	13	0	0.9987	-3.26735e-07
2	0	0	1	0	1	111.411	0.435755	0.435488	-0.00156064	6	1.6585e-05	13	0	1.3981	-6.7964e-07
2	1	0	1	0	1	111.811	0.431761	0.431511	-0.00162755	6	1.61178e-05	13	0	1.7975	-7.02307e-07
2	1	0	1	0	1	112.21	0.427766	0.427517	-0.000845203	6	1.56409e-05	13	0	2.197	-3.61339e-07
2	1	0	1	0	1	112.61	0.423773	0.423501	-0.000810446	6	1.51534e-05	13	0	2.5964	-3.43225e-07
2	1	0	1	0	1	113.009	0.419778	0.419494	-0.00167624	6	1.46547e-05	13	0	2.9959	-7.03171e-07
2	1	0	1	0	1	113.408	0.415783	0.415551	-0.0015285	6	1.41415e-05	13	0	3.3953	-6.3517e-07
2	1	0	1	0	1	113.808	0.411789	0.411581	-0.000702886	6	1.36215e-05	13	0	3.7947	-2.89295e-07
2	1	0	1	0	1	114.207	0.407795	0.407618	-0.00114526	6	1.30929e-05	13	0	4.1942	-4.66829e-07
2	1	0	1	0	1	114.607	0.4038	0.403557	-0.00193457	6	1.25476e-05	13	0	4.5937	-7.8071e-07
2	1	0	1	0	1	115.006	0.399805	0.399499	-0.0013703	6	1.19913e-05	13	0	4.9931	-5.47433e-07
2	1	0	1	0	1	115.406	0.395811	0.395529	-0.00069003	6	1.14277e-05	13	0	5.3925	-2.72927e-07
2	1	0	1	0	1	115.805	0.391816	0.391524	-0.00142775	6	1.08518e-05	13	0	5.792	-5.58997e-07
2	1	0	1	0	1	116.205	0.387822	0.387508	-0.0021051	6	1.02618e-05	13	0	6.1915	-8.15744e-07
2	1	0	1	0	1	116.604	0.383828	0.383525	-0.00125741	6	9.65925e-06	13	0	6.5909	-4.82249e-07
2	1	0	1	0	1	117.003	0.379833	0.379541	-0.000750571	6	9.05056e-06	13	0	6.9903	-2.84872e-07
2	1	0	1	0	1	117.403	0.375838	0.375618	-0.0015586	6	8.42794e-06	13	0	7.3898	-5.85437e-07
2	1	0	1	0	1	117.802	0.371845	0.37159	-0.00225014	6	7.78875e-06	13	0	7.7892	-8.36131e-07
2	1	0	1	0	1	118.202	0.36785	0.36758	-0.00131706	6	7.13507e-06	13	0	8.1887	-4.84126e-07
2	1	0	1	0	1	118.601	0.363855	0.363597	-0.00109508	6	6.46847e-06	13	0	8.5881	-3.98168e-07
2	1	0	1	0	1	119.001	0.359861	0.359617	-0.00235523	6	5.78395e-06	13	0	8.9875	-8.46981e-07
2	1	0	1	0	1	119.4	0.355867	0.355551	-0.00171027	6	5.07919e-06	13	0	9.387	-6.08091e-07
2	1	0	1	0	1	119.8	0.351872	0.351583	-0.000915937	6	4.36361e-06	13	0	9.7865	-3.22028e-07
2	0	0	1	0	0	120.067	0.350823	0.35062	0.00193675	7	4.12786e-06	13	0	0.05	6.79065e-07
2	0	0	1	0	0	120.466	0.354818	0.354609	0.00211923	7	4.74371e-06	13	0	0.4494	7.51498e-07
2	0	0	1	0	0	120.866	0.358813	0.358558	0.0010931	7	5.38824e-06	13	0	0.8489	3.91938e-07
2	0	0	1	0	0	121.265	0.362806	0.362568	0.000985348	7	6.03524e-06	13	0	1.2483	3.57256e-07
2	1	0	1	0	0	121.665	0.366801	0.366516	0.00194375	7	6.68327e-06	13	0	1.6478	7.12414e-07
2	0	0	1	0	0	122.064	0.370796	0.370601	0.00226315	7	7.32904e-06	13	0	2.0472	8.38726e-07
2	0	0	1	0	0	122.463	0.37479	0.374552	0.00120066	7	7.96857e-06	13	0	2.4466	4.49711e-07
2	1	0	1	0	0	122.863	0.378784	0.378504	0.00107411	7	8.59618e-06	13	0	2.8461	4.06557e-07
2	0	0	1	0	0	123.262	0.382779	0.382544	0.00207125	7	9.22094e-06	13	0	3.2456	7.92346e-07
2	0	0	1	0	0	123.662	0.386773	0.386495	0.00191011	7	9.83903e-06	13	0	3.645	7.38249e-07
2	0	0	1	0	0	124.061	0.390768	0.390541	0.000955614	7	1.04483e-05	13	0	4.0444	3.73206e-07
2	1	0	1	0	0	124.461	0.394763	0.394475	0.0011387	7	1.10458e-05	13	0	4.4439	4.49189e-07
2	1	0	1	0	0	124.86	0.398757	0.398542	0.00195107	7	1.16386e-05	13	0	4.8434	7.77584e-07
2	0	0	1	0	0	125.26	0.402751	0.402487	0.00190175	7	1.22252e-05	13	0	5.2428	7.65431e-07
2	0	0	1	0	0	125.659	0.406746	0.406516	0.00100242	7	1.28066e-05	13	0	5.6422	4.075e-07
2	0	0	1	0	0	126.059	0.410741	0.410526	0.000990808	7	1.33744e-05	13	0	6.0417	4.06753e-07
2	1	0	1	0	0	126.458	0.414734	0.414463	0.0018467	7	1.39383e-05	13	0	6.4411	7.65388e-07
2	0	0	1	0	0	126.857	0.418729	0.418474	0.00166706	7	1.44959e-05	13	0	6.8406	6.97624e-07
2	0	0	1	0	0	127.257	0.422724	0.422454	0.000820149	7	1.50453e-05	13	0	7.24	3.46475e-07
2	1	0	1	0	0	127.656	0.426718	0.426478	0.00127483	7	1.55866e-05	13	0	7.6394	5.43686e-07
2	0	0	1	0	0	128.056	0.430712	0.430457	0.00195947	7	1.61249e-05	13	0	8.0389	8.43467e-07
2	0	0	1	0	0	128.455	0.434707	0.434516	0.00142718	7	1.66579e-05	13	0	8.4384	6.20135e-07
2	0	0	1	0	0	128.855	0.438701	0.43849	0.00077086	7	1.71836e-05	13	0	8.8378	3.38014e-07
2	1	0	1	0	0	129.254	0.442696	0.442451	0.00121197	7	1.77025e-05	13	0	9.2372	5.36236e-07
2	0	0	1	0	0	129.654	0.446691	0.446444	0.0018672	7	1.82197e-05	13	0	9.6367	8.33599e-07
2	1	0	0	0	0	129.982	0.450011	0.449831	0.00323509	7	1.86286e-05	13	0	9.9655	1.45524e-06
2	0	0	1	0	0	130.359	0.446241	0.446005	-0.00137749	7	1.82778e-05	13	0	0.3495	-6.14368e-07
2	0	0	1	0	0	130.759	0.442246	0.442001	-0.000640233	7	1.78554e-05	13	0	0.749	-2.82984e-07
2	0	0	1	0	0	131.158	0.438253	0.437966	-0.00122557	7	1.7414e-05	13	0	1.1484	-5.36759e-07
2	0	0	1	0	0	131.558	0.434258	0.433976	-0.00184129	7	1.69551e-05	13	0	1.5479	-7.99074e-07
2	0	0	1	0	0	131.957	0.430263	0.430015	-0.00108144	7	1.64835e-05	13	0	1.9473	-4.65037e-07
2	0	0	1	0	0	132.356	0.426269	0.425991	-0.000847082	7	1.60026e-05	13	0	2.3467	-3.6085e-07
2	0	0	1	0	0	132.756	0.422275	0.422003	-0.00171461	7	1.55093e-05	13	0	2.7462	-7.23571e-07
2	0	0	1	0	0	133.155	0.41828	0.417961	-0.00188042	7	1.50029e-05	13	0	3.1457	-7.85943e-07
2	0	0	1	0	0	133.555	0.414285	0.414081	-0.00109505	7	1.44879e-05	13	0	3.5451	-4.53438e-07
2	0	0	1	0	0	133.954	0.410291	0.410067	-0.000896257	7	1.39645e-05	13	0	3.9445	-3.67525e-07
2	0	0	1	0	0	134.354	0.406296	0.406014	-0.00179018	7	1.34293e-05	13	0	4.344	-7.26838e-07
2	0	0	1	0	0	134.753	0.402302	0.402018	-0.00206004	7	1.28767e-05	13	0	4.7435	-8.28174e-07
2	0	0	1	0	0	135.153	0.398307	0.398048	-0.00114064	7	1.23169e-05	13	0	5.1429	-4.5403e-07
2	0	0	1	0	0	135.552	0.394313	0.394018	-0.00114942	7	1.17497e-05	13	0	5.5423	-4.52893e-07
2	0	0	1	0	0	135.952	0.390318	0.390054	-0.0021321	7	1.11689e-05	13	0	5.9418	-8.31635e-07
2	0	0	1	0	0	136.351	0.386324	0.386073	-0.00209368	7	1.05743e-05	13	0	6.3413	-8.08312e-07
2	0	0	1	0	0	136.75	0.38233	0.382066	-0.0012245	7	9.96979e-06	13	0	6.7407	-4.6784e-07
2	0	0	1	0	0	137.15	0.378335	0.378056	-0.00128165	7	9.35368e-06	13	0	7.1401	-4.84536e-07
2	0	0	1	0	0	137.549	0.37434	0.374048	-0.00240576	7	8.72375e-06	13	0	7.5396	-8.99868e-07
2	0	0	1	0	0	137.949	0.370347	0.370115	-0.00191442	7	8.07754e-06	13	0	7.939	-7.08556e-07
2	0	0	1	0	0	138.348	0.366352	0.366091	-0.00106162	7	7.42056e-06	13	0	8.3385	-3.88649e-07
2	0	0	1	0	0	138.748	0.362357	0.3621	-0.00198023	7	6.74975e-06	13	0	8.7379	-7.17043e-07
2	0	0	1	0	0	139.147	0.358363	0.358053	-0.0027147	7	6.0598e-06	13	0	9.1373	-9.72006e-07
2	0	0	1	0	0	139.547	0.354368	0.354007	-0.00173749	7	5.35233e-06	13	0	9.5368	-6.15084e-07
2	0	0	1	0	0	139.946	0.350374	0.350128	-0.00135254	7	4.63272e-06	13	0	9.9363	-4.73561e-07
2	1	0	1	0	1	140.213	0.352321	0.352028	0.00240394	8	4.8983e-06	13	0	0.1998	8.46255e-07
2	1	0	1	0	1	140.613	0.356316	0.356042	0.0019543	8	5.53291e-06	13	0	0.5992	6.9581e-07
2	1	0	1	0	1	141.012	0.36031	0.36006	0.00100738	8	6.1797e-06	13	0	0.9986	3.62719e-07
2	1	0	1	0	1	141.412	0.364304	0.364094	0.00157199	8	6.82721e-06	13	0	1.3981	5.72353e-07
2	1	0	1	0	1	141.811	0.368299	0.368	0.00243111	8	7.47604e-06	13	0	1.7976	8.94649e-07
2	0	0	1	0	1	142.21	0.372294	0.372085	0.00174143	8	8.1194e-06	13	0	2.197	6.4796e-07
2	1	0	1	0	1	142.61	0.376288	0.376012	0.000930193	8	8.75409e-06	13	0	2.5964	3.49764e-07
2	1	0	1	0	1	143.009	0.380282	0.38	0.00171298	8	9.3792e-06	13	0	2.9959	6.50933e-07
2	1	0	1	0	1	143.409	0.384277	0.384024	0.00233779	8	1.00012e-05	13	0	3.3954	8.97768e-07
2	0	0	1	0	1	143.808	0.388271	0.388014	0.00161443	8	1.06165e-05	13	0	3.7948	6.26422e-07
2	1	0	1	0	1	144.208	0.392266	0.392015	0.000885575	8	1.12211e-05	13	0	4.1942	3.47159e-07
2	1	0	1	0	1	144.607	0.396261	0.396037	0.00138438	8	1.18163e-05	13	0	4.5937	5.48266e-07
2	1	0	1	0	1	145.007	0.400254	0.399986	0.00212291	8	1.24078e-05	13	0	4.9931	8.49133e-07
2	0	0	1	0	1	145.406	0.404249	0.403998	0.00166233	8	1.29922e-05	13	0	5.3926	6.71577e-07
2	0	0	1	0	1	145.805	0.408244	0.407993	0.000834749	8	1.3571e-05	13	0	5.792	3.40571e-07
2	1	0	1	0	1	146.205	0.412238	0.412049	0.00125197	8	1.41362e-05	13	0	6.1914	5.15873e-07
2	1	0	1	0	1	146.604	0.416232	0.416018	0.00197885	8	1.46983e-05	13	0	6.5909	8.23237e-07
2	0	0	1	0	1	147.004	0.420227	0.419952	0.00155093	8	1.52547e-05	13	0	6.9904	6.51315e-07
2	0	0	1	0	1	147.403	0.424221	0.423987	0.000787086	8	1.58023e-05	13	0	7.3898	3.33714e-07
2	1	0	1	0	1	147.803	0.428216	0.428069	0.00124403	8	1.63416e-05	13	0	7.7892	5.32532e-07
2	0	0	1	0	1	148.202	0.43221	0.43199	0.00190074	8	1.68788e-05	13	0	8.1887	8.21102e-07
2	0	0	1	0	1	148.602	0.436205	0.435973	0.00120717	8	1.74097e-05	13	0	8.5882	5.26293e-07
2	1	0	1	0	1	149.001	0.440199	0.439993	0.000723933	8	1.79321e-05	13	0	8.9876	3.18526e-07
2	1	0	1	0	1	149.4	0.444194	0.443988	0.00151177	8	1.84497e-05	13	0	9.387	6.71207e-07
2	0	0	1	0	1	149.8	0.448189	0.447996	0.00163808	8	1.89646e-05	13	0	9.7865	7.33854e-07
2	1	0	1	0	1	150.106	0.448737	0.448512	-0.00140925	8	1.9087e-05	13	0	0.0999	-6.32063e-07
2	1	0	1	0	1	150.506	0.444743	0.4445	-0.00078833	8	1.86842e-05	13	0	0.4993	-3.50413e-07
2	0	0	1	0	1	150.905	0.440748	0.44047	-0.000647668	8	1.82545e-05	13	0	0.8988	-2.85278e-07
2	0	0	1	0	1	151.305	0.436755	0.436528	-0.00154559	8	1.78063e-05	13	0	1.2982	-6.74695e-07
2	1	0	1	0	1	151.704	0.43276	0.432481	-0.00135936	8	1.73424e-05	13	0	1.6977	-5.87899e-07
2	0	0	1	0	1	152.103	0.428765	0.42849	-0.000604706	8	1.68691e-05	13	0	2.0971	-2.5911e-07
2	0	0	1	0	1	152.503	0.424771	0.424492	-0.00115331	8	1.63856e-05	13	0	2.4965	-4.8957e-07
2	0	0	1	0	1	152.902	0.420776	0.420451	-0.00188315	8	1.58876e-05	13	0	2.896	-7.91774e-07
2	0	0	1	0	1	153.302	0.416782	0.416547	-0.00107292	8	1.53797e-05	13	0	3.2955	-4.46921e-07
2	0	0	1	0	1	153.701	0.412787	0.412542	-0.000886582	8	1.48631e-05	13	0	3.6949	-3.65752e-07
2	0	0	1	0	1	154.101	0.408793	0.408528	-0.00187002	8	1.43359e-05	13	0	4.0943	-7.63954e-07
2	0	0	1	0	1	154.5	0.404798	0.404519	-0.00175604	8	1.37913e-05	13	0	4.4938	-7.10351e-07
2	0	0	1	0	1	154.9	0.400804	0.400537	-0.000916771	8	1.3242e-05	13	0	4.8933	-3.67201e-07
2	0	0	1	0	1	155.299	0.39681	0.396566	-0.00126927	8	1.26829e-05	13	0	5.2927	-5.03351e-07
2	0	0	1	0	1	155.698	0.392815	0.392572	-0.00224559	8	1.2111e-05	13	0	5.6921	-8.81558e-07
2	0	0	1	0	1	156.098	0.38882	0.388548	-0.001502	8	1.15249e-05	13	0	6.0916	-5.83599e-07
2	0	0	1	0	1	156.497	0.384827	0.384548	-0.00105196	8	1.09299e-05	13	0	6.491	-4.0453e-07
2	0	0	1	0	1	156.897	0.380832	0.380534	-0.00218474	8	1.03232e-05	13	0	6.8905	-8.31366e-07
2	0	0	1	0	1	157.296	0.376837	0.376579	-0.00205406	8	9.70057e-06	13	0	7.2899	-7.73517e-07
2	0	0	1	0	1	157.696	0.372843	0.37255	-0.00108343	8	9.06772e-06	13	0	7.6893	-4.03633e-07
2	0	0	1	0	1	158.095	0.368849	0.368519	-0.00185712	8	8.42164e-06	13	0	8.0888	-6.84385e-07
2	0	0	1	0	1	158.495	0.364854	0.364533	-0.00261522	8	7.75843e-06	13	0	8.4883	-9.53333e-07
2	0	0	1	0	1	158.894	0.360859	0.360545	-0.00157017	8	7.0807e-06	13	0	8.8877	-5.66117e-07
2	0	0	1	0	1	159.293	0.356865	0.35657	-0.00120582	8	6.39384e-06	13	0	9.2871	-4.29959e-07
2	0	0	1	0	1	159.693	0.35287	0.352603	-0.00242241	8	5.6865e-06	13	0	9.6866	-8.5415e-07
2	1	0	0	0	0	159.983	0.35005	0.3498	0.00329806	9	5.1827e-06	13	0	0.000000000000000E+000	1.15366e-06
2	0	0	1	0	0	160.36	0.353819	0.353561	0.000853992	9	5.72912e-06	13	0	0.3771	3.01939e-07
2	1	0	1	0	0	160.759	0.357814	0.357515	0.00140201	9	6.3676e-06	13	0	0.7765	5.01241e-07
2	1	0	1	0	0	161.158	0.361808	0.361535	0.00235601	9	7.01798e-06	13	0	1.1759	8.51779e-07
2	0	0	1	0	0	161.558	0.365802	0.365555	0.00150172	9	7.66774e-06	13	0	1.5754	5.48963e-07
2	0	0	1	0	0	161.957	0.369797	0.369591	0.000805123	9	8.31351e-06	13	0	1.9749	2.97566e-07
2	1	0	1	0	0	162.357	0.373791	0.37356	0.00161975	9	8.95166e-06	13	0	2.3743	6.05075e-07
2	0	0	1	0	0	162.756	0.377786	0.377533	0.00220095	9	9.58616e-06	13	0	2.7737	8.30933e-07
2	0	0	1	0	0	163.156	0.381781	0.381555	0.00132481	9	1.02117e-05	13	0	3.1732	5.05489e-07
2	1	0	1	0	0	163.555	0.385775	0.385514	0.000809737	9	1.08264e-05	13	0	3.5727	3.12165e-07
2	1	0	1	0	0	163.955	0.389769	0.3895	0.00183916	9	1.14361e-05	13	0	3.9721	7.16354e-07
2	0	0	1	0	0	164.354	0.393764	0.393504	0.00167217	9	1.20398e-05	13	0	4.3715	6.58007e-07
2	0	0	1	0	0	164.754	0.397759	0.397509	0.000713932	9	1.26342e-05	13	0	4.771	2.83795e-07
2	1	0	1	0	0	165.153	0.401752	0.401478	0.00135521	9	1.32202e-05	13	0	5.1704	5.44086e-07
2	0	0	1	0	0	165.552	0.405747	0.405489	0.00199063	9	1.38022e-05	13	0	5.5699	8.07177e-07
2	0	0	1	0	0	165.952	0.409742	0.409492	0.00116293	9	1.43788e-05	13	0	5.9693	4.7621e-07
2	0	0	1	0	0	166.351	0.413736	0.413536	0.000909603	9	1.49431e-05	13	0	6.3687	3.76154e-07
2	0	0	1	0	0	166.751	0.41773	0.417468	0.00190221	9	1.55016e-05	13	0	6.7682	7.94114e-07
2	0	0	1	0	0	167.15	0.421725	0.421477	0.00143635	9	1.60562e-05	13	0	7.1677	6.05389e-07
2	0	0	1	0	0	167.55	0.425719	0.425469	0.000756619	9	1.66009e-05	13	0	7.5671	3.21918e-07
2	1	0	1	0	0	167.949	0.429714	0.429439	0.00143295	9	1.71394e-05	13	0	7.9665	6.15364e-07
2	1	0	1	0	0	168.349	0.433709	0.433479	0.00194598	9	1.76749e-05	13	0	8.366	8.43544e-07
2	0	0	1	0	0	168.748	0.437703	0.437463	0.00122597	9	1.82036e-05	13	0	8.7655	5.36318e-07
2	1	0	1	0	0	169.147	0.441697	0.441471	0.000873442	9	1.87242e-05	13	0	9.1649	3.85599e-07
2	1	0	1	0	0	169.547	0.445692	0.445485	0.0017193	9	1.92406e-05	13	0	9.5643	7.65921e-07
2	1	0	1	0	0	169.946	0.449687	0.449493	0.00176747	9	1.9755e-05	13	0	9.9638	7.94467e-07
2	0	0	1	0	0	170.253	0.44724	0.446973	-0.00169085	9	1.95347e-05	13	0	0.2497	-7.55762e-07
2	0	0	1	0	0	170.652	0.443245	0.44294	-0.00102014	9	1.91212e-05	13	0	0.6491	-4.51858e-07
2	0	0	1	0	0	171.052	0.43925	0.438973	-0.000715217	9	1.86871e-05	13	0	1.0486	-3.13961e-07
2	0	0	1	0	0	171.451	0.435257	0.43496	-0.00150762	9	1.82366e-05	13	0	1.448	-6.55754e-07
2	0	0	1	0	0	171.85	0.431262	0.430951	-0.0017088	9	1.7771e-05	13	0	1.8475	-7.36409e-07
2	0	0	1	0	0	172.25	0.427267	0.426972	-0.000867575	9	1.7295e-05	13	0	2.2469	-3.7043e-07
2	0	0	1	0	0	172.649	0.423273	0.42302	-0.000998939	9	1.68095e-05	13	0	2.6463	-4.22571e-07
2	0	0	1	0	0	173.049	0.419278	0.418983	-0.00184635	9	1.6311e-05	13	0	3.0458	-7.73589e-07
2	1	0	1	0	0	173.448	0.415284	0.415009	-0.00128315	9	1.57997e-05	13	0	3.4453	-5.32521e-07
2	1	0	1	0	0	173.848	0.411289	0.41107	-0.000629301	9	1.52816e-05	13	0	3.8447	-2.58687e-07
2	1	0	1	0	0	174.247	0.407295	0.407024	-0.00138866	9	1.47522e-05	13	0	4.2441	-5.65218e-07
2	1	0	1	0	0	174.647	0.4033	0.403008	-0.00189377	9	1.42062e-05	13	0	4.6436	-7.63205e-07
2	1	0	1	0	0	175.046	0.399306	0.399048	-0.00114438	9	1.36519e-05	13	0	5.0431	-4.56664e-07
2	1	0	1	0	0	175.445	0.395312	0.395018	-0.000664134	9	1.30878e-05	13	0	5.4425	-2.62345e-07
2	1	0	1	0	0	175.845	0.391317	0.391022	-0.00161498	9	1.25119e-05	13	0	5.8419	-6.31491e-07
2	1	0	1	0	0	176.244	0.387322	0.38699	-0.0020137	9	1.1921e-05	13	0	6.2414	-7.79281e-07
2	1	0	1	0	0	176.644	0.383329	0.383081	-0.00114734	9	1.13187e-05	13	0	6.6408	-4.39524e-07
2	0	0	1	0	0	177.043	0.379334	0.379049	-0.000819636	9	1.07063e-05	13	0	7.0403	-3.10682e-07
2	0	0	1	0	0	177.443	0.375339	0.375076	-0.001866	9	1.00803e-05	13	0	7.4397	-6.99891e-07
2	0	0	1	0	0	177.842	0.371345	0.371098	-0.00217351	9	9.43702e-06	13	0	7.8391	-8.06587e-07
2	0	0	1	0	0	178.242	0.36735	0.367041	-0.00109704	9	8.7829e-06	13	0	8.2386	-4.02657e-07
2	0	0	1	0	0	178.641	0.363356	0.363072	-0.00162359	9	8.11614e-06	13	0	8.6381	-5.89481e-07
2	0	0	1	0	0	179.04	0.359361	0.359074	-0.00259272	9	7.43266e-06	13	0	9.0375	-9.30978e-07
2	0	0	1	0	0	179.44	0.355367	0.355058	-0.00167253	9	6.73312e-06	13	0	9.4369	-5.93846e-07
2	0	0	1	0	0	179.839	0.351372	0.351112	-0.0011855	9	6.02178e-06	13	0	9.8364	-4.16244e-07
2	1	0	1	0	1	180.107	0.351322	0.351099	0.00225163	10	5.96047e-06	13	0	0.0999	7.90543e-07
2	1	0	1	0	1	180.506	0.355317	0.355058	0.00226348	10	6.58306e-06	13	0	0.4994	8.03668e-07
2	1	0	1	0	1	180.905	0.359311	0.359058	0.0011393	10	7.22647e-06	13	0	0.8988	4.09076e-07
2	1	0	1	0	1	181.305	0.363306	0.363042	0.00161394	10	7.87079e-06	13	0	1.2982	5.85926e-07
2	1	0	1	0	1	181.704	0.3673	0.367029	0.00253002	10	8.51885e-06	13	0	1.6977	9.28593e-07
2	0	0	1	0	1	182.104	0.371295	0.371072	0.00172944	10	9.16124e-06	13	0	2.0972	6.41745e-07
2	1	0	1	0	1	182.503	0.375289	0.375099	0.000937647	10	9.79508e-06	13	0	2.4966	3.51711e-07
2	1	0	1	0	1	182.903	0.379284	0.379087	0.00149872	10	1.0419e-05	13	0	2.896	5.68143e-07
2	1	0	1	0	1	183.302	0.383279	0.383044	0.00226888	10	1.10405e-05	13	0	3.2955	8.69082e-07
2	0	0	1	0	1	183.702	0.387272	0.387019	0.00158967	10	1.16545e-05	13	0	3.6949	6.15232e-07
2	0	0	1	0	1	184.101	0.391267	0.391024	0.000831907	10	1.22603e-05	13	0	4.0944	3.25296e-07
2	1	0	1	0	1	184.5	0.395262	0.395045	0.00124723	10	1.28572e-05	13	0	4.4938	4.92712e-07
2	1	0	1	0	1	184.9	0.399256	0.399013	0.002025	10	1.34505e-05	13	0	4.8932	8.08e-07
2	0	0	1	0	1	185.299	0.40325	0.402991	0.00162895	10	1.40368e-05	13	0	5.2927	6.5645e-07
2	0	0	1	0	1	185.699	0.407245	0.406985	0.000785669	10	1.46167e-05	13	0	5.6922	3.19755e-07
2	1	0	1	0	1	186.098	0.411239	0.411048	0.00107913	10	1.51837e-05	13	0	6.0916	4.43573e-07
2	1	0	1	0	1	186.498	0.415234	0.415029	0.00186842	10	1.57474e-05	13	0	6.491	7.75449e-07
2	0	0	1	0	1	186.897	0.419228	0.418981	0.00142457	10	1.63042e-05	13	0	6.8905	5.96869e-07
2	0	0	1	0	1	187.297	0.423223	0.42302	0.00068176	10	1.68527e-05	13	0	7.29	2.88398e-07
2	1	0	1	0	1	187.696	0.427217	0.42698	0.00115902	10	1.73937e-05	13	0	7.6894	4.94878e-07
2	0	0	1	0	1	188.095	0.431212	0.431024	0.00182919	10	1.79312e-05	13	0	8.0888	7.88424e-07
2	0	0	1	0	1	188.495	0.435207	0.434967	0.00138188	10	1.84629e-05	13	0	8.4883	6.01074e-07
2	0	0	1	0	1	188.894	0.4392	0.438972	0.000714485	10	1.89877e-05	13	0	8.8877	3.13639e-07
2	1	0	1	0	1	189.294	0.443195	0.443	0.00116276	10	1.95049e-05	13	0	9.2872	5.15104e-07
2	0	0	1	0	1	189.693	0.44719	0.446943	0.0018142	10	2.00195e-05	13	0	9.6866	8.10844e-07
2	0	0	1	0	1	190	0.449737	0.449504	-0.00127205	10	2.03522e-05	13	0	0.0274	-5.71791e-07
2	0	0	1	0	1	190.399	0.445742	0.445439	-0.0014776	10	1.99647e-05	13	0	0.4269	-6.58181e-07
2	0	0	1	0	1	190.798	0.441747	0.441482	-0.000787817	10	1.95393e-05	13	0	0.8263	-3.47807e-07
2	0	0	1	0	1	191.198	0.437753	0.437502	-0.000944268	10	1.9098e-05	13	0	1.2257	-4.1312e-07
2	0	0	1	0	1	191.597	0.433759	0.433466	-0.00171828	10	1.86409e-05	13	0	1.6252	-7.44816e-07
2	0	0	1	0	1	191.997	0.429764	0.429522	-0.00162834	10	1.81686e-05	13	0	2.0247	-6.99409e-07
2	0	0	1	0	1	192.396	0.425769	0.425443	-0.000798924	10	1.76889e-05	13	0	2.4241	-3.39897e-07
2	0	0	1	0	1	192.796	0.421775	0.421521	-0.00145972	10	1.71984e-05	13	0	2.8235	-6.15303e-07
2	0	0	1	0	1	193.195	0.41778	0.417518	-0.00202479	10	1.66933e-05	13	0	3.223	-8.45385e-07
2	0	0	1	0	1	193.595	0.413786	0.413542	-0.0012173	10	1.61786e-05	13	0	3.6225	-5.03404e-07
2	0	0	1	0	1	193.994	0.409791	0.409551	-0.000909619	10	1.56572e-05	13	0	4.0219	-3.72535e-07
2	0	0	1	0	1	194.393	0.405797	0.405507	-0.00178937	10	1.51221e-05	13	0	4.4213	-7.25604e-07
2	0	0	1	0	1	194.793	0.401802	0.401541	-0.00205223	10	1.45752e-05	13	0	4.8208	-8.24055e-07
2	0	0	1	0	1	195.192	0.397809	0.397578	-0.00114934	10	1.40191e-05	13	0	5.2202	-4.56952e-07
2	0	0	1	0	1	195.592	0.393814	0.39351	-0.00103932	10	1.34539e-05	13	0	5.6197	-4.08983e-07
2	0	0	1	0	1	195.991	0.389819	0.389575	-0.00199782	10	1.28756e-05	13	0	6.0191	-7.78301e-07
2	0	0	1	0	1	196.391	0.385825	0.385501	-0.00200597	10	1.22811e-05	13	0	6.4185	-7.73304e-07
2	0	0	1	0	1	196.79	0.381831	0.381574	-0.00103481	10	1.16776e-05	13	0	6.818	-3.94854e-07
2	0	0	1	0	1	197.19	0.377836	0.377557	-0.00123725	10	1.10636e-05	13	0	7.2175	-4.67131e-07
2	0	0	1	0	1	197.589	0.373841	0.37359	-0.00223555	10	1.04351e-05	13	0	7.6169	-8.35179e-07
2	1	0	1	0	1	197.988	0.369847	0.369534	-0.00203026	10	9.7891e-06	13	0	8.0163	-7.50248e-07
2	1	0	1	0	1	198.388	0.365852	0.365549	-0.00100049	10	9.13302e-06	13	0	8.4158	-3.65728e-07
2	0	0	1	0	1	198.787	0.361858	0.361546	-0.00152998	10	8.4635e-06	13	0	8.8153	-5.53157e-07
2	1	0	1	0	1	199.187	0.357864	0.35755	-0.00246653	10	7.7757e-06	13	0	9.2147	-8.81907e-07
2	1	0	1	0	1	199.586	0.353869	0.353575	-0.00125918	10	7.07084e-06	13	0	9.6141	-4.45215e-07
2	0	0	1	0	1	199.966	0.350074	0.349733	-0.00196891	10	6.37383e-06	13	0	9.9937	-6.88593e-07
2	0	0	0	0	1	199.971	0.35	0.349685	-0.00418121	10	6.35646e-06	13	0	9.9986	-1.46211e-06