File: ACS_Catal_2026/Figures_Na_K/main_figures/data/EC/20251112_2-148_alpha_reproducibility/20251112_2-148_003_alpha_Na_first_1_K2_02_PEIS_C01.mpt
EC-Lab ASCII FILE
Nb header lines : 63

Potentio Electrochemical Impedance Spectroscopy

Run on channel : 1 (SN 69187)
User :
CE vs. WE compliance from -10 V to 10 V
Electrode connection : standard
Potential control : Ewe
Ewe ctrl range : min = -1.00 V, max = 1.00 V
Safety Limits :
	Do not start on E overload
Acquisition started on : 11/12/2025 17:41:45.774
Loaded Setting File :  C:\Users\User\Documents\EC-Lab\Data\Yatsuzuka\20251030_2-147_gamma_reproducibility\20251030_2-147_001_gamma1_K_1.mps
Saved on :
	File : 20251112_2-148_003_alpha_Na_first_1_K2_02_PEIS_C01.mpr
	Directory : C:\Users\User\Documents\EC-Lab\Data\Yatsuzuka\20251112_2-148_alpha_reproducibility\
	Host : 192.109.209.127
Device : SP-150e (SN .003883)
Address : 192.109.209.128
EC-Lab for windows v11.52 (software)
Internet server v11.52 (firmware)
Command interpretor v11.50 (firmware)
Electrode material :
Initial state :
Electrolyte :
Comments :
Electrode surface area : 0.001 cm2
Characteristic mass : 0.001 g
Equivalent Weight : 0.000 g/eq.
Density : 0.000 g/cm3
Volume (V) : 0.001 cm3
Cycle Definition : Charge/Discharge alternance
Mode                Single sine
E (V)               0.4500
vs.                 Ref
tE (h:m:s)          0:00:0.0000
record              0
dI                  0.000
unit dI             mA
dt (s)              0.000
fi                  500.000
unit fi             kHz
ff                  1.000
unit ff             Hz
Nd                  6
Points              per decade
spacing             Logarithmic
Va (mV)             10.0
pw                  0.10
Na                  2
corr                0
E range min (V)     -1.000
E range max (V)     1.000
I Range             Auto
Bandwidth           5
nc cycles           0
goto Ns'            0
nr cycles           0
inc. cycle          0

freq/Hz	Re(Z)/Ohm	-Im(Z)/Ohm	|Z|/Ohm	Phase(Z)/deg	time/s	<Ewe>/V	<I>/mA	Cs/uF	Cp/uF	cycle number	I Range	|Ewe|/V	|I|/A	Ns	(Q-Qo)/mA.h	Re(Y)/Ohm-1	Im(Y)/Ohm-1	|Y|/Ohm-1	Phase(Y)/deg	Re(C)/nF	Im(C)/nF	|C|/nF	Phase(C)/deg	Re(M)	Im(M)	|M|	Phase(M)/deg	Re(Permittivity)	Im(Permittivity)	|Permittivity|	Phase(Permittivity)/deg	Re(Resistivity)/Ohm.cm	Im(Resistivity)/Ohm.cm	|Resistivity|/Ohm.cm	Phase(Resistivity)/deg	Re(Conductivity)/mS/cm	Im(Conductivity)/mS/cm	|Conductivity|/mS/cm	Phase(Conductivity)/deg	Tan(Delta)	Loss Angle(Delta)/deg	dq/mA.h
500019	15.3993	-2.10209	15.5421	7.77313	201.6	0.450136	0.0139343	-0.15142	-0.00276989	1	10	0.00521575	0.000335587	0	2.12039e-05	0.06375	-0.0087022	0.0643412	-7.77313	-2.76989	20.2915	20.4797	-97.7731	0.0000000E+000	0.0000000E+000	0.0000000E+000	97.7731	0.0000000E+000	0.0000000E+000	0.0000000E+000	-97.7731	0.0000000E+000	0.0000000E+000	0.0000000E+000	7.77313	0.0000000E+000	0.0000000E+000	0.0000000E+000	-7.77313	7.32573	82.2269	2.12039e-05
339899	10.4673	-1.43854	10.5657	7.82525	202.022	0.449999	0.00842598	-0.325497	-0.00603387	1	10	0.00818854	0.000775012	0	2.27602e-05	0.0937645	-0.0128862	0.0946459	-7.82525	-6.03387	43.9044	44.3171	-97.8252	0.0000000E+000	0.0000000E+000	0.0000000E+000	97.8252	0.0000000E+000	0.0000000E+000	0.0000000E+000	-97.8252	0.0000000E+000	0.0000000E+000	0.0000000E+000	7.82525	0.0000000E+000	0.0000000E+000	0.0000000E+000	-7.82525	7.27633	82.1748	1.55629e-06
231063	8.64823	-0.849559	8.68986	5.61045	202.444	0.449816	0.0126858	-0.810769	-0.00774923	1	10	0.0103228	0.00118792	0	2.30919e-05	0.114525	-0.0112504	0.115077	-5.61045	-7.74923	78.8846	79.2644	-95.6105	0.0000000E+000	0.0000000E+000	0.0000000E+000	95.6105	0.0000000E+000	0.0000000E+000	0.0000000E+000	-95.6105	0.0000000E+000	0.0000000E+000	0.0000000E+000	5.61045	0.0000000E+000	0.0000000E+000	0.0000000E+000	-5.61045	10.1797	84.3895	3.31745e-07
157076	7.94041	-0.436286	7.95238	3.14496	202.866	0.44978	0.0138896	-2.32241	-0.00699018	1	10	0.0109726	0.00137979	0	2.18115e-05	0.125559	-0.00689886	0.125748	-3.14496	-6.99017	127.221	127.413	-93.145	0.0000000E+000	0.0000000E+000	0.0000000E+000	93.145	0.0000000E+000	0.0000000E+000	0.0000000E+000	-93.145	0.0000000E+000	0.0000000E+000	0.0000000E+000	3.14496	0.0000000E+000	0.0000000E+000	0.0000000E+000	-3.14496	18.2	86.855	-1.28038e-06
106786	7.71825	-0.204372	7.72095	1.51678	203.424	0.449756	0.0128796	-7.29262	-0.00510957	1	10	0.0100967	0.0013077	0	2.60674e-05	0.129472	-0.00342831	0.129518	-1.51678	-5.10957	192.966	193.034	-91.5168	0.0000000E+000	0.0000000E+000	0.0000000E+000	91.5168	0.0000000E+000	0.0000000E+000	0.0000000E+000	-91.5168	0.0000000E+000	0.0000000E+000	0.0000000E+000	1.51678	0.0000000E+000	0.0000000E+000	0.0000000E+000	-1.51678	37.7657	88.4832	4.25584e-06
72595	7.6499	-0.0909425	7.65044	0.681104	203.846	0.449764	0.0100155	-24.1072	-0.0034065	1	10	0.0106356	0.00139019	0	2.93394e-05	0.130702	-0.0015538	0.130711	-0.681104	-3.40651	286.547	286.568	-90.6811	0.0000000E+000	0.0000000E+000	0.0000000E+000	90.6811	0.0000000E+000	0.0000000E+000	0.0000000E+000	-90.6811	0.0000000E+000	0.0000000E+000	0.0000000E+000	0.681104	0.0000000E+000	0.0000000E+000	0.0000000E+000	-0.681104	84.1179	89.3189	3.27202e-06
49352.4	7.62306	-0.0517276	7.62324	0.388785	204.268	0.449754	0.014007	-62.3433	-0.00287049	1	10	0.0106048	0.00139112	0	2.94648e-05	0.131175	-0.00089011	0.131178	-0.388785	-2.8705	423.022	423.032	-90.3888	0.0000000E+000	0.0000000E+000	0.0000000E+000	90.3888	0.0000000E+000	0.0000000E+000	0.0000000E+000	-90.3888	0.0000000E+000	0.0000000E+000	0.0000000E+000	0.388785	0.0000000E+000	0.0000000E+000	0.0000000E+000	-0.388785	147.369	89.6112	1.25372e-07
33551.1	7.60569	-0.0232042	7.60572	0.174803	204.69	0.449756	0.0115789	-204.431	-0.00190283	1	10	0.0105281	0.00138424	0	2.84468e-05	0.131479	-0.000401131	0.13148	-0.174803	-1.90284	623.694	623.696	-90.1748	0.0000000E+000	0.0000000E+000	0.0000000E+000	90.1748	0.0000000E+000	0.0000000E+000	0.0000000E+000	-90.1748	0.0000000E+000	0.0000000E+000	0.0000000E+000	0.174803	0.0000000E+000	0.0000000E+000	0.0000000E+000	-0.174803	327.772	89.8252	-1.01792e-06
22806.6	7.60742	-0.00434303	7.60743	0.0327098	205.112	0.449751	0.00970805	-1606.82	-0.000523694	1	10	0.0104455	0.00137307	0	3.08167e-05	0.13145	-7.50442e-05	0.131451	-0.0327098	-0.523653	917.324	917.324	-90.0327	0.0000000E+000	0.0000000E+000	0.0000000E+000	90.0327	0.0000000E+000	0.0000000E+000	0.0000000E+000	-90.0327	0.0000000E+000	0.0000000E+000	0.0000000E+000	0.0327098	0.0000000E+000	0.0000000E+000	0.0000000E+000	-0.0327098	1751.64	89.9673	2.3699e-06
15504.4	7.60895	0.00856807	7.60896	-0.064518	205.534	0.449758	0.0144263	1198.07	0.00151914	1	10	0.0103967	0.00136638	0	3.05387e-05	0.131424	0.00014799	0.131424	0.064518	1.51905	1349.09	1349.09	-89.9355	0.0000000E+000	0.0000000E+000	0.0000000E+000	89.9355	0.0000000E+000	0.0000000E+000	0.0000000E+000	-89.9355	0.0000000E+000	0.0000000E+000	0.0000000E+000	-0.064518	0.0000000E+000	0.0000000E+000	0.0000000E+000	0.064518	888.059	89.9355	-2.78033e-07
10540.4	7.6082	0.021341	7.60823	-0.160714	205.956	0.449762	0.0108727	707.536	0.00556688	1	10	0.0102218	0.00134352	0	3.167e-05	0.131436	0.000368679	0.131437	0.160714	5.56684	1984.63	1984.63	-89.8393	0.0000000E+000	0.0000000E+000	0.0000000E+000	89.8393	0.0000000E+000	0.0000000E+000	0.0000000E+000	-89.8393	0.0000000E+000	0.0000000E+000	0.0000000E+000	-0.160714	0.0000000E+000	0.0000000E+000	0.0000000E+000	0.160714	356.506	89.8393	1.13134e-06
7163.78	7.62108	0.0297895	7.62114	-0.223958	206.479	0.449734	0.00898689	745.786	0.0113947	1	10	0.010191	0.0013372	0	3.21879e-05	0.131213	0.00051289	0.131214	0.223958	11.3948	2915.11	2915.13	-89.776	0.0000000E+000	0.0000000E+000	0.0000000E+000	89.776	0.0000000E+000	0.0000000E+000	0.0000000E+000	-89.776	0.0000000E+000	0.0000000E+000	0.0000000E+000	-0.223958	0.0000000E+000	0.0000000E+000	0.0000000E+000	0.223958	255.831	89.776	5.17899e-07
4871.56	7.6139	0.0325657	7.61397	-0.24506	206.948	0.449758	0.0120933	1003.21	0.0183523	1	10	0.010973	0.00144116	0	3.30371e-05	0.131336	0.000561744	0.131338	0.24506	18.3525	4290.79	4290.83	-89.7549	0.0000000E+000	0.0000000E+000	0.0000000E+000	89.7549	0.0000000E+000	0.0000000E+000	0.0000000E+000	-89.7549	0.0000000E+000	0.0000000E+000	0.0000000E+000	-0.24506	0.0000000E+000	0.0000000E+000	0.0000000E+000	0.24506	233.801	89.7549	8.49113e-07
3311.06	7.62508	0.0486515	7.62523	-0.365568	207.635	0.449758	0.0113665	988	0.0402201	1	10	0.0101189	0.00132702	0	3.39527e-05	0.131141	0.000836739	0.131144	0.365568	40.2203	6303.64	6303.77	-89.6344	0.0000000E+000	0.0000000E+000	0.0000000E+000	89.6344	0.0000000E+000	0.0000000E+000	0.0000000E+000	-89.6344	0.0000000E+000	0.0000000E+000	0.0000000E+000	-0.365568	0.0000000E+000	0.0000000E+000	0.0000000E+000	0.365568	156.729	89.6344	9.15666e-07
2250.72	7.62918	0.0649524	7.62945	-0.487787	208.1	0.449763	0.0121473	1088.69	0.0789055	1	10	0.0103187	0.00135248	0	3.45751e-05	0.131066	0.00111586	0.131071	0.487787	78.9053	9268.07	9268.41	-89.5122	0.0000000E+000	0.0000000E+000	0.0000000E+000	89.5122	0.0000000E+000	0.0000000E+000	0.0000000E+000	-89.5122	0.0000000E+000	0.0000000E+000	0.0000000E+000	-0.487787	0.0000000E+000	0.0000000E+000	0.0000000E+000	0.487787	117.458	89.5122	6.22338e-07
1530.49	7.63654	0.0846666	7.63701	-0.635215	208.565	0.449763	0.0127753	1228.22	0.150958	1	10	0.0104163	0.00136392	0	3.62063e-05	0.130933	0.00145166	0.130941	0.635215	150.958	13615.7	13616.5	-89.3648	0.0000000E+000	0.0000000E+000	0.0000000E+000	89.3648	0.0000000E+000	0.0000000E+000	0.0000000E+000	-89.3648	0.0000000E+000	0.0000000E+000	0.0000000E+000	-0.635215	0.0000000E+000	0.0000000E+000	0.0000000E+000	0.635215	90.1954	89.3648	1.6312e-06
1040.33	7.64594	0.118268	7.64685	-0.886186	209.03	0.449769	0.0133194	1293.54	0.309421	1	10	0.0104705	0.00136925	0	3.88446e-05	0.130757	0.00202256	0.130773	0.886186	309.421	20003.8	20006.2	-89.1138	0.0000000E+000	0.0000000E+000	0.0000000E+000	89.1138	0.0000000E+000	0.0000000E+000	0.0000000E+000	-89.1138	0.0000000E+000	0.0000000E+000	0.0000000E+000	-0.886186	0.0000000E+000	0.0000000E+000	0.0000000E+000	0.886186	64.6492	89.1138	2.63835e-06
707.036	7.64367	0.17125	7.64559	-1.28345	209.495	0.449759	0.0129244	1314.46	0.659459	1	10	0.0104817	0.00137094	0	4.01017e-05	0.130762	0.00292961	0.130794	1.28345	659.457	29434.6	29442	-88.7166	0.0000000E+000	0.0000000E+000	0.0000000E+000	88.7166	0.0000000E+000	0.0000000E+000	0.0000000E+000	-88.7166	0.0000000E+000	0.0000000E+000	0.0000000E+000	-1.28345	0.0000000E+000	0.0000000E+000	0.0000000E+000	1.28345	44.6345	88.7166	1.25712e-06
480.769	7.65471	0.234616	7.6583	-1.75556	209.96	0.449762	0.0115957	1411	1.32427	1	10	0.0104953	0.00137045	0	4.10828e-05	0.130516	0.00400031	0.130577	1.75556	1324.27	43206.3	43226.6	-88.2444	0.0000000E+000	0.0000000E+000	0.0000000E+000	88.2444	0.0000000E+000	0.0000000E+000	0.0000000E+000	-88.2444	0.0000000E+000	0.0000000E+000	0.0000000E+000	-1.75556	0.0000000E+000	0.0000000E+000	0.0000000E+000	1.75556	32.6265	88.2444	9.81044e-07
326.778	7.66928	0.330115	7.67638	-2.46471	210.423	0.449754	0.0105745	1475.37	2.72848	1	10	0.0105004	0.00136789	0	4.27112e-05	0.130149	0.00560212	0.13027	2.46471	2728.47	63388.3	63447	-87.5353	0.0000000E+000	0.0000000E+000	0.0000000E+000	87.5353	0.0000000E+000	0.0000000E+000	0.0000000E+000	-87.5353	0.0000000E+000	0.0000000E+000	0.0000000E+000	-2.46471	0.0000000E+000	0.0000000E+000	0.0000000E+000	2.46471	23.2321	87.5353	1.62846e-06
222.061	7.6843	0.46568	7.6984	-3.46797	210.884	0.449754	0.00993352	1539.08	5.63165	1	10	0.010503	0.00136431	0	4.34034e-05	0.129659	0.00785755	0.129897	3.46797	5631.65	92929.1	93099.6	-86.532	0.0000000E+000	0.0000000E+000	0.0000000E+000	86.532	0.0000000E+000	0.0000000E+000	0.0000000E+000	-86.532	0.0000000E+000	0.0000000E+000	0.0000000E+000	-3.46797	0.0000000E+000	0.0000000E+000	0.0000000E+000	3.46797	16.5012	86.532	6.92164e-07
151.015	7.71409	0.663635	7.74259	-4.91699	211.348	0.449752	0.0102242	1588.08	11.667	1	10	0.0105119	0.00135767	0	4.48405e-05	0.128681	0.0110702	0.129156	4.91699	11667	135617	136118	-85.083	0.0000000E+000	0.0000000E+000	0.0000000E+000	85.083	0.0000000E+000	0.0000000E+000	0.0000000E+000	-85.083	0.0000000E+000	0.0000000E+000	0.0000000E+000	-4.91699	0.0000000E+000	0.0000000E+000	0.0000000E+000	4.91699	11.624	85.083	1.43714e-06
102.667	7.74092	0.942034	7.79803	-6.93851	211.823	0.449763	0.0107236	1645.59	24.0151	1	10	0.0105095	0.00134772	0	4.71915e-05	0.127298	0.0154916	0.128238	6.93851	24015.1	197338	198794	-83.0615	0.0000000E+000	0.0000000E+000	0.0000000E+000	83.0615	0.0000000E+000	0.0000000E+000	0.0000000E+000	-83.0615	0.0000000E+000	0.0000000E+000	0.0000000E+000	-6.93851	0.0000000E+000	0.0000000E+000	0.0000000E+000	6.93851	8.21724	83.0615	2.35097e-06
69.7545	7.78404	1.3494	7.90013	-9.83474	212.291	0.449759	0.0114206	1690.86	49.3309	1	10	0.0105106	0.00133044	0	4.94365e-05	0.12472	0.0216208	0.12658	9.83474	49330.9	284567	288811	-80.1653	0.0000000E+000	0.0000000E+000	0.0000000E+000	80.1653	0.0000000E+000	0.0000000E+000	0.0000000E+000	-80.1653	0.0000000E+000	0.0000000E+000	0.0000000E+000	-9.83474	0.0000000E+000	0.0000000E+000	0.0000000E+000	9.83474	5.76853	80.1653	2.24495e-06
47.4443	7.85039	1.92886	8.08388	-13.8043	212.735	0.449755	0.0115286	1739.14	99.0141	1	10	0.010516	0.00130086	0	5.16998e-05	0.12013	0.0295163	0.123703	13.8043	99014.1	402984	414969	-76.1957	0.0000000E+000	0.0000000E+000	0.0000000E+000	76.1957	0.0000000E+000	0.0000000E+000	0.0000000E+000	-76.1957	0.0000000E+000	0.0000000E+000	0.0000000E+000	-13.8043	0.0000000E+000	0.0000000E+000	0.0000000E+000	13.8043	4.06996	76.1957	2.26331e-06
32.2387	7.93034	2.74357	8.39151	-19.0835	213.172	0.44975	0.00845021	1799.4	192.344	1	10	0.0105167	0.00125326	0	5.17157e-05	0.112619	0.0389615	0.119168	19.0835	192344	555974	588306	-70.9165	0.0000000E+000	0.0000000E+000	0.0000000E+000	70.9165	0.0000000E+000	0.0000000E+000	0.0000000E+000	-70.9165	0.0000000E+000	0.0000000E+000	0.0000000E+000	-19.0835	0.0000000E+000	0.0000000E+000	0.0000000E+000	19.0835	2.89051	70.9165	1.59237e-08
21.9144	8.03803	3.95677	8.95913	-26.209	213.603	0.449744	0.010569	1835.47	358.013	1	10	0.0105288	0.0011752	0	5.5049e-05	0.100142	0.0492958	0.111618	26.209	358013	727290	810632	-63.791	0.0000000E+000	0.0000000E+000	0.0000000E+000	63.791	0.0000000E+000	0.0000000E+000	0.0000000E+000	-63.791	0.0000000E+000	0.0000000E+000	0.0000000E+000	-26.209	0.0000000E+000	0.0000000E+000	0.0000000E+000	26.209	2.03146	63.791	3.33328e-06
14.9093	8.15416	5.64952	9.92005	-34.7158	214.07	0.449765	0.0101869	1889.51	612.838	1	10	0.0105321	0.0010617	0	5.79225e-05	0.0828612	0.0574095	0.100806	34.7158	612838	884530	1.07609e+06	-55.2842	0.0000000E+000	0.0000000E+000	0.0000000E+000	55.2842	0.0000000E+000	0.0000000E+000	0.0000000E+000	-55.2842	0.0000000E+000	0.0000000E+000	0.0000000E+000	-34.7158	0.0000000E+000	0.0000000E+000	0.0000000E+000	34.7158	1.44334	55.2842	2.8735e-06
10.1329	8.3243	8.133	11.6379	-44.334	214.53	0.449766	0.00888626	1931.23	943.169	1	10	0.0105366	0.000905371	0	6.12858e-05	0.0614613	0.0600489	0.0859265	44.334	943169	965353	1.34962e+06	-45.666	0.0000000E+000	0.0000000E+000	0.0000000E+000	45.666	0.0000000E+000	0.0000000E+000	0.0000000E+000	-45.666	0.0000000E+000	0.0000000E+000	0.0000000E+000	-44.334	0.0000000E+000	0.0000000E+000	0.0000000E+000	44.334	1.02352	45.666	3.36333e-06
6.88933	8.54961	11.8162	14.5849	-54.1123	215.083	0.449749	-0.00153719	1955.09	1283.26	1	11	0.0105572	0.000723848	0	6.30121e-05	0.0401922	0.0555485	0.0685642	54.1123	1.28326e+06	928507	1.58395e+06	-35.8877	0.0000000E+000	0.0000000E+000	0.0000000E+000	35.8877	0.0000000E+000	0.0000000E+000	0.0000000E+000	-35.8877	0.0000000E+000	0.0000000E+000	0.0000000E+000	-54.1123	0.0000000E+000	0.0000000E+000	0.0000000E+000	54.1123	0.723551	35.8877	1.7263e-06
4.68375	8.88229	17.0594	19.2333	-62.4955	215.58	0.449761	0.000421525	1991.87	1567.05	1	11	0.010546	0.000548323	0	6.58369e-05	0.0240114	0.0461166	0.0519932	62.4955	1.56705e+06	815913	1.76674e+06	-27.5045	0.0000000E+000	0.0000000E+000	0.0000000E+000	27.5045	0.0000000E+000	0.0000000E+000	0.0000000E+000	-27.5045	0.0000000E+000	0.0000000E+000	0.0000000E+000	-62.4955	0.0000000E+000	0.0000000E+000	0.0000000E+000	62.4955	0.520667	27.5045	2.82479e-06
3.18099	9.13543	24.7714	26.4022	-69.7565	216.282	0.449763	0.000434008	2019.8	1777.98	1	11	0.0105521	0.000399668	0	5.88495e-05	0.0131053	0.0355361	0.0378756	69.7565	1.77798e+06	655702	1.89504e+06	-20.2435	0.0000000E+000	0.0000000E+000	0.0000000E+000	20.2435	0.0000000E+000	0.0000000E+000	0.0000000E+000	-20.2435	0.0000000E+000	0.0000000E+000	0.0000000E+000	-69.7565	0.0000000E+000	0.0000000E+000	0.0000000E+000	69.7565	0.36879	20.2435	-6.98744e-06
2.16533	9.73967	36.0355	37.3286	-74.8755	217.293	0.449772	0.00108158	2039.7	1900.84	1	11	0.0105516	0.000282669	0	5.88271e-05	0.00698975	0.0258612	0.0267891	74.8755	1.90084e+06	513758	1.96904e+06	-15.1245	0.0000000E+000	0.0000000E+000	0.0000000E+000	15.1245	0.0000000E+000	0.0000000E+000	0.0000000E+000	-15.1245	0.0000000E+000	0.0000000E+000	0.0000000E+000	-74.8755	0.0000000E+000	0.0000000E+000	0.0000000E+000	74.8755	0.27028	15.1245	-2.23659e-08
1.46962	10.4056	52.4819	53.5035	-78.7854	219.493	0.449772	0.000447636	2063.51	1985.46	1	12	0.0105529	0.000197237	0	6.51596e-05	0.00363499	0.0183335	0.0186904	78.7854	1.98546e+06	393657	2.0241e+06	-11.2146	0.0000000E+000	0.0000000E+000	0.0000000E+000	11.2146	0.0000000E+000	0.0000000E+000	0.0000000E+000	-11.2146	0.0000000E+000	0.0000000E+000	0.0000000E+000	-78.7854	0.0000000E+000	0.0000000E+000	0.0000000E+000	78.7854	0.198271	11.2146	6.33255e-06
1.00006	11.424	76.2051	77.0566	-81.4742	221.633	0.449772	0.000302716	2088.38	2042.47	1	12	0.010551	0.000136926	0	6.75876e-05	0.00192398	0.0128341	0.0129775	81.4742	2.04247e+06	306191	2.0653e+06	-8.52583	0.0000000E+000	0.0000000E+000	0.0000000E+000	8.52583	0.0000000E+000	0.0000000E+000	0.0000000E+000	-8.52583	0.0000000E+000	0.0000000E+000	0.0000000E+000	-81.4742	0.0000000E+000	0.0000000E+000	0.0000000E+000	81.4742	0.149912	8.52582	2.42796e-06