File: ACS_Catal_2026/Figures_Na_K/main_figures/data/EC/20251112_2-148_alpha_reproducibility/20251112_2-148_006_gamma_reproducibility_2_Na1_01_CVA_C02.mpt
EC-Lab ASCII FILE
Nb header lines : 66

Cyclic Voltammetry Advanced

Run on channel : 2 (SN 69290)
User :
CE vs. WE compliance from -10 V to 10 V
Electrode connection : standard
Potential control : Ewe
Ewe ctrl range : min = -1.00 V, max = 1.00 V
Safety Limits :
	Do not start on E overload
Acquisition started on : 11/12/2025 19:49:32.045
Loaded Setting File :  C:\Users\User\Documents\EC-Lab\Data\Yatsuzuka\20251112_2-148_alpha_reproducibility\20251112_2-148_002_alpha_reproducibility_2_K1.mps
Saved on :
	File : 20251112_2-148_006_gamma_reproducibility_2_Na1_01_CVA_C02.mpr
	Directory : C:\Users\User\Documents\EC-Lab\Data\Yatsuzuka\20251112_2-148_alpha_reproducibility\
	Host : 192.109.209.127
Device : SP-150e (SN .003883)
Address : 192.109.209.128
EC-Lab for windows v11.52 (software)
Internet server v11.52 (firmware)
Command interpretor v11.50 (firmware)
Electrode material :
Initial state :
Electrolyte :
Comments :
Electrode surface area : 0.001 cm2
Characteristic mass : 0.001 g
Equivalent Weight : 0.000 g/eq.
Density : 0.000 g/cm3
Volume (V) : 0.001 cm3
Cycle Definition : Charge/Discharge alternance
Ei (V)              0.350
vs.                 Ref
ti (h:m:s)          0:00:10.0000
dti (s)             0.0000
dE/dt               10.000
dE/dt unit          mV/s
E1 (V)              0.450
vs.                 Ref
t1 (h:m:s)          0:00:0.0000
dt1 (s)             0.1000
Step percent        50
N                   10
E range min (V)     -1.000
E range max (V)     1.000
I Range             Auto
I Range min         Unset
I Range max         Unset
I Range init        Unset
Bandwidth           5
E2 (V)              0.350
vs.                 Ref
t2 (h:m:s)          0:00:0.0000
dt2 (s)             0.1000
nc cycles           9
nr                  1
Reverse Scan        0
Ef (V)              0.000
vs.                 Eoc
tf (h:m:s)          0:00:0.0000
dtf (s)             0.1000

mode	ox/red	error	control changes	Ns changes	counter inc.	time/s	control/V	Ewe/V	<I>/mA	cycle number	(Q-Qo)/C	I Range	Ns	step time/s	P/W
2	1	0	0	0	0	0.000000000000000E+000	0.349989	0.349419	0.00453687	1	0.0000000E+000	13	0	0.000000000000000E+000	1.58527e-06
2	1	0	1	0	0	0.3771	0.35376	0.353314	0.00430821	1	1.27826e-06	13	0	0.3496	1.52215e-06
2	1	0	1	0	0	0.7767	0.357755	0.357351	0.00198926	1	2.70403e-06	13	0	0.7492	7.10865e-07
2	0	0	1	0	0	1.1762	0.36175	0.361319	0.00411656	1	4.1424e-06	13	0	1.1487	1.48739e-06
2	1	0	1	0	0	1.5757	0.365745	0.365311	0.00407408	1	5.58483e-06	13	0	1.5482	1.48831e-06
2	0	0	1	0	0	1.9753	0.369741	0.369328	0.00202047	1	7.01295e-06	13	0	1.9478	7.46216e-07
2	0	0	1	0	0	2.3748	0.373737	0.373344	0.00414102	1	8.43256e-06	13	0	2.3473	1.54602e-06
2	1	0	1	0	0	2.7743	0.377731	0.377302	0.00390621	1	9.84635e-06	13	0	2.7468	1.47382e-06
2	1	0	1	0	0	3.1739	0.381726	0.381336	0.00196676	1	1.12411e-05	13	0	3.1464	7.49997e-07
2	0	0	1	0	0	3.5733	0.385722	0.385286	0.00387449	1	1.26198e-05	13	0	3.5458	1.49279e-06
2	1	0	1	0	0	3.9729	0.389717	0.389297	0.00392625	1	1.39912e-05	13	0	3.9454	1.52848e-06
2	1	0	1	0	0	4.3724	0.393712	0.393291	0.001976	1	1.53438e-05	13	0	4.3449	7.77142e-07
2	0	0	1	0	0	4.7719	0.397707	0.39729	0.00328856	1	1.66879e-05	13	0	4.7444	1.30651e-06
2	1	0	1	0	0	5.1715	0.401703	0.401285	0.00424888	1	1.80251e-05	13	0	5.144	1.70501e-06
2	1	0	1	0	0	5.571	0.405698	0.405287	0.00225438	1	1.93523e-05	13	0	5.5435	9.13672e-07
2	0	0	1	0	0	5.9705	0.409693	0.409242	0.00270189	1	2.06628e-05	13	0	5.943	1.10573e-06
2	1	0	1	0	0	6.3701	0.413688	0.413213	0.00430372	1	2.19759e-05	13	0	6.3426	1.77835e-06
2	1	0	1	0	0	6.7695	0.417684	0.417233	0.00282192	1	2.32816e-05	13	0	6.742	1.1774e-06
2	0	0	1	0	0	7.1691	0.421679	0.42124	0.00206214	1	2.45779e-05	13	0	7.1416	8.68654e-07
2	0	0	1	0	0	7.5686	0.425673	0.425212	0.00364584	1	2.58664e-05	13	0	7.5411	1.55025e-06
2	1	0	1	0	0	7.9681	0.42967	0.429232	0.00396046	1	2.71541e-05	13	0	7.9406	1.69996e-06
2	1	0	1	0	0	8.3677	0.433665	0.4332	0.00219708	1	2.84294e-05	13	0	8.3402	9.51776e-07
2	0	0	1	0	0	8.7672	0.43766	0.437169	0.00242767	1	2.96986e-05	13	0	8.7397	1.0613e-06
2	1	0	1	0	0	9.1667	0.441655	0.441227	0.00397038	1	3.09664e-05	13	0	9.1392	1.75184e-06
2	1	0	1	0	0	9.5663	0.445651	0.445211	0.00354339	1	3.22296e-05	13	0	9.5388	1.57756e-06
2	1	0	1	0	0	9.9658	0.449647	0.449213	0.00205091	1	3.34857e-05	13	0	9.9383	9.21296e-07
2	0	0	1	0	0	10.2761	0.447249	0.446779	-0.00191156	1	3.30978e-05	13	0	0.2497	-8.54044e-07
2	1	0	1	0	0	10.6757	0.443253	0.442782	-0.00110511	1	3.22401e-05	13	0	0.6493	-4.89321e-07
2	1	0	1	0	0	11.0752	0.439258	0.438781	-0.00290907	1	3.13151e-05	13	0	1.0488	-1.27644e-06
2	0	0	1	0	0	11.4747	0.435263	0.434755	-0.00290087	1	3.03424e-05	13	0	1.4483	-1.26117e-06
2	0	0	1	0	0	11.8743	0.431268	0.430817	-0.001363	1	2.93363e-05	13	0	1.8479	-5.87204e-07
2	0	0	1	0	0	12.2737	0.427272	0.426809	-0.00314441	1	2.82974e-05	13	0	2.2473	-1.34206e-06
2	0	0	1	0	0	12.6733	0.423277	0.422808	-0.00328952	1	2.72282e-05	13	0	2.6469	-1.39083e-06
2	0	0	1	0	0	13.0728	0.419282	0.418818	-0.00161072	1	2.61324e-05	13	0	3.0464	-6.74599e-07
2	0	0	1	0	0	13.4723	0.415287	0.414859	-0.00342266	1	2.50135e-05	13	0	3.4459	-1.41992e-06
2	0	0	1	0	0	13.8719	0.411291	0.410799	-0.00355643	1	2.38641e-05	13	0	3.8455	-1.46098e-06
2	0	0	1	0	0	14.2714	0.407296	0.406824	-0.00181996	1	2.27028e-05	13	0	4.245	-7.40405e-07
2	0	0	1	0	0	14.6709	0.403301	0.402816	-0.00379057	1	2.15097e-05	13	0	4.6445	-1.5269e-06
2	0	0	1	0	0	15.0705	0.399306	0.39883	-0.00372731	1	2.02888e-05	13	0	5.0441	-1.48656e-06
2	0	0	1	0	0	15.47	0.395309	0.39485	-0.0020266	1	1.90489e-05	13	0	5.4436	-8.00205e-07
2	0	0	1	0	0	15.8695	0.391315	0.390868	-0.00420217	1	1.77857e-05	13	0	5.8431	-1.64249e-06
2	0	0	1	0	0	16.269	0.387321	0.386806	-0.00368947	1	1.64937e-05	13	0	6.2426	-1.42711e-06
2	0	0	1	0	0	16.6685	0.383325	0.382863	-0.00230626	1	1.51827e-05	13	0	6.6421	-8.8298e-07
2	0	0	1	0	0	17.0681	0.379329	0.378908	-0.00467713	1	1.38451e-05	13	0	7.0417	-1.7722e-06
2	0	0	1	0	0	17.4676	0.375334	0.374865	-0.00374245	1	1.24795e-05	13	0	7.4412	-1.40291e-06
2	0	0	1	0	0	17.8671	0.371339	0.37086	-0.00254238	1	1.10916e-05	13	0	7.8407	-9.42869e-07
2	0	0	1	0	0	18.2667	0.367343	0.366853	-0.00505035	1	9.66981e-06	13	0	8.2403	-1.85274e-06
2	0	0	1	0	0	18.6662	0.363347	0.362885	-0.00365114	1	8.22048e-06	13	0	8.6398	-1.32494e-06
2	0	0	1	0	0	19.0657	0.359353	0.358918	-0.00291245	1	6.74415e-06	13	0	9.0393	-1.04533e-06
2	0	0	1	0	0	19.4653	0.355358	0.354894	-0.00547363	1	5.23505e-06	13	0	9.4389	-1.94256e-06
2	0	0	1	0	0	19.8647	0.351362	0.350867	-0.00363683	1	3.68962e-06	13	0	9.8383	-1.27604e-06
2	0	0	1	0	1	20.1311	0.351312	0.350913	0.00252566	2	3.49511e-06	13	0	0.1	8.86287e-07
2	1	0	1	0	1	20.5305	0.355308	0.354887	0.00468227	2	4.7553e-06	13	0	0.4994	1.66168e-06
2	1	0	1	0	1	20.9301	0.359303	0.358841	0.00221555	2	6.08161e-06	13	0	0.899	7.95029e-07
2	0	0	1	0	1	21.3296	0.363298	0.362896	0.00333596	2	7.43035e-06	13	0	1.2985	1.21061e-06
2	1	0	1	0	1	21.7291	0.367293	0.366889	0.00457436	2	8.78954e-06	13	0	1.698	1.67828e-06
2	1	0	1	0	1	22.1287	0.371289	0.370855	0.00205807	2	1.01489e-05	13	0	2.0976	7.63246e-07
2	0	0	1	0	1	22.5282	0.375284	0.374848	0.00366366	2	1.14986e-05	13	0	2.4971	1.37332e-06
2	1	0	1	0	1	22.9277	0.379279	0.378861	0.00414513	2	1.28431e-05	13	0	2.8966	1.57043e-06
2	1	0	1	0	1	23.3273	0.383275	0.382887	0.00196427	2	1.41791e-05	13	0	3.2962	7.52095e-07
2	0	0	1	0	1	23.7268	0.387271	0.386862	0.00393381	2	1.5508e-05	13	0	3.6957	1.52184e-06
2	1	0	1	0	1	24.1263	0.391265	0.390827	0.00373209	2	1.68343e-05	13	0	4.0952	1.4586e-06
2	0	0	1	0	1	24.5258	0.395259	0.394843	0.00194488	2	1.81461e-05	13	0	4.4947	7.67921e-07
2	0	0	1	0	1	24.9253	0.399256	0.398815	0.00404083	2	1.94514e-05	13	0	4.8942	1.61154e-06
2	1	0	1	0	1	25.3249	0.403251	0.402811	0.00330259	2	2.07496e-05	13	0	5.2938	1.33032e-06
2	0	0	1	0	1	25.7244	0.407246	0.406782	0.0020445	2	2.20323e-05	13	0	5.6933	8.31666e-07
2	0	0	1	0	1	26.1239	0.411241	0.410755	0.00407859	2	2.32991e-05	13	0	6.0928	1.6753e-06
2	1	0	1	0	1	26.5235	0.415237	0.414765	0.00300617	2	2.45676e-05	13	0	6.4924	1.24685e-06
2	0	0	1	0	1	26.923	0.419232	0.41878	0.00192685	2	2.58243e-05	13	0	6.8919	8.06925e-07
2	0	0	1	0	1	27.3225	0.423227	0.422757	0.00369197	2	2.70781e-05	13	0	7.2914	1.56081e-06
2	1	0	1	0	1	27.7221	0.427222	0.426758	0.00331055	2	2.83244e-05	13	0	7.691	1.4128e-06
2	0	0	1	0	1	28.1215	0.431218	0.430774	0.00189297	2	2.95603e-05	13	0	8.0904	8.15442e-07
2	0	0	1	0	1	28.5211	0.435213	0.434742	0.0039308	2	3.07931e-05	13	0	8.49	1.70888e-06
2	1	0	1	0	1	28.9206	0.439208	0.438702	0.00274528	2	3.20217e-05	13	0	8.8895	1.20436e-06
2	0	0	1	0	1	29.3201	0.443204	0.442721	0.00221414	2	3.32422e-05	13	0	9.289	9.80243e-07
2	1	0	1	0	1	29.7197	0.447199	0.446755	0.00397923	2	3.44612e-05	13	0	9.6886	1.77774e-06
2	1	0	1	0	1	30.025	0.449747	0.449268	-0.00163919	2	3.5277e-05	13	0	0.000000000000000E+000	-7.36437e-07
2	0	0	1	0	1	30.4245	0.445751	0.445248	-0.00307722	2	3.44755e-05	13	0	0.3995	-1.37013e-06
2	0	0	1	0	1	30.8241	0.441755	0.441343	-0.00129648	2	3.35678e-05	13	0	0.7991	-5.72192e-07
2	0	0	1	0	1	31.2236	0.43776	0.437265	-0.00276052	2	3.26069e-05	13	0	1.1986	-1.20708e-06
2	0	0	1	0	1	31.6231	0.433765	0.433314	-0.00325199	2	3.16065e-05	13	0	1.5981	-1.40913e-06
2	0	0	1	0	1	32.0227	0.429769	0.429318	-0.00150956	2	3.05788e-05	13	0	1.9977	-6.48081e-07
2	0	0	1	0	1	32.4222	0.425773	0.425347	-0.00340321	2	2.9521e-05	13	0	2.3972	-1.44755e-06
2	0	0	1	0	1	32.8217	0.421779	0.421323	-0.0035496	2	2.84357e-05	13	0	2.7967	-1.49553e-06
2	0	0	1	0	1	33.2213	0.417784	0.417296	-0.00183348	2	2.73264e-05	13	0	3.1963	-7.65102e-07
2	0	0	1	0	1	33.6207	0.413788	0.413328	-0.00291887	2	2.61968e-05	13	0	3.5957	-1.20645e-06
2	0	0	1	0	1	34.0203	0.409793	0.409294	-0.00427051	2	2.50436e-05	13	0	3.9953	-1.74789e-06
2	0	0	1	0	1	34.4198	0.405798	0.405337	-0.00263631	2	2.38738e-05	13	0	4.3948	-1.06859e-06
2	0	0	1	0	1	34.8193	0.401803	0.40135	-0.00237982	2	2.26796e-05	13	0	4.7943	-9.55142e-07
2	0	0	1	0	1	35.2189	0.397807	0.397333	-0.00435217	2	2.14584e-05	13	0	5.1939	-1.72926e-06
2	0	0	1	0	1	35.6184	0.393812	0.393379	-0.0036153	2	2.0212e-05	13	0	5.5934	-1.42218e-06
2	0	0	1	0	1	36.0179	0.389817	0.389332	-0.0022015	2	1.89457e-05	13	0	5.9929	-8.57113e-07
2	0	0	1	0	1	36.4175	0.385822	0.385342	-0.00409687	2	1.76519e-05	13	0	6.3925	-1.5787e-06
2	0	0	1	0	1	36.817	0.381825	0.381304	-0.00439836	2	1.63318e-05	13	0	6.792	-1.67711e-06
2	0	0	1	0	1	37.2165	0.377831	0.37735	-0.00247933	2	1.49895e-05	13	0	7.1915	-9.35573e-07
2	0	0	1	0	1	37.6161	0.373836	0.373373	-0.00345784	2	1.36158e-05	13	0	7.5911	-1.29106e-06
2	0	0	1	0	1	38.0155	0.369841	0.369416	-0.00518003	2	1.22109e-05	13	0	7.9905	-1.91358e-06
2	0	0	1	0	1	38.4151	0.365845	0.365376	-0.00327784	2	1.07766e-05	13	0	8.3901	-1.19764e-06
2	0	0	1	0	1	38.8146	0.36185	0.361412	-0.00297841	2	9.31518e-06	13	0	8.7896	-1.07643e-06
2	0	0	1	0	1	39.2141	0.357855	0.357377	-0.00532844	2	7.81866e-06	13	0	9.1891	-1.90426e-06
2	0	0	1	0	1	39.6137	0.353859	0.353377	-0.00443835	2	6.28959e-06	13	0	9.5887	-1.56841e-06
2	0	0	1	0	1	39.9933	0.350064	0.349638	-0.00482879	2	4.77657e-06	13	0	9.9683	-1.68833e-06
2	1	0	1	0	0	40.2795	0.352811	0.352405	0.00424616	3	5.56936e-06	13	0	0.2773	1.49637e-06
2	1	0	1	0	0	40.679	0.356806	0.356331	0.00379652	3	6.85175e-06	13	0	0.6768	1.35282e-06
2	1	0	1	0	0	41.0785	0.360801	0.360399	0.00191225	3	8.1801e-06	13	0	1.0763	6.89174e-07
2	0	0	1	0	0	41.4781	0.364796	0.364377	0.00357231	3	9.5271e-06	13	0	1.4759	1.30167e-06
2	1	0	1	0	0	41.8775	0.368792	0.368377	0.00460921	3	1.08793e-05	13	0	1.8753	1.69793e-06
2	1	0	1	0	0	42.2771	0.372787	0.372359	0.00255706	3	1.22273e-05	13	0	2.2749	9.52143e-07
2	0	0	1	0	0	42.6766	0.376782	0.37636	0.00246669	3	1.35687e-05	13	0	2.6744	9.28362e-07
2	1	0	1	0	0	43.0761	0.380778	0.380373	0.00450656	3	1.49068e-05	13	0	3.0739	1.71418e-06
2	1	0	1	0	0	43.4757	0.384773	0.384337	0.00334309	3	1.62397e-05	13	0	3.4735	1.28487e-06
2	0	0	1	0	0	43.8752	0.388768	0.388346	0.00194603	3	1.75615e-05	13	0	3.873	7.55735e-07
2	0	0	1	0	0	44.2747	0.392763	0.39231	0.00410265	3	1.88768e-05	13	0	4.2725	1.60951e-06
2	1	0	1	0	0	44.6743	0.396759	0.396273	0.00327693	3	2.01846e-05	13	0	4.6721	1.29856e-06
2	0	0	1	0	0	45.0738	0.400755	0.400329	0.0019811	3	2.14756e-05	13	0	5.0716	7.93091e-07
2	0	0	1	0	0	45.4733	0.404749	0.404313	0.00402135	3	2.2759e-05	13	0	5.4711	1.62588e-06
2	1	0	1	0	0	45.8729	0.408744	0.408298	0.00313472	3	2.40284e-05	13	0	5.8707	1.2799e-06
2	0	0	1	0	0	46.2723	0.41274	0.412274	0.00198461	3	2.52919e-05	13	0	6.2701	8.18205e-07
2	1	0	1	0	0	46.6719	0.416735	0.416256	0.00416325	3	2.65505e-05	13	0	6.6697	1.73298e-06
2	1	0	1	0	0	47.0714	0.42073	0.420288	0.00232864	3	2.77986e-05	13	0	7.0692	9.78697e-07
2	0	0	1	0	0	47.4709	0.424725	0.424274	0.00276246	3	2.90348e-05	13	0	7.4687	1.17204e-06
2	1	0	1	0	0	47.8705	0.428721	0.428315	0.00379579	3	3.02695e-05	13	0	7.8683	1.62579e-06
2	0	0	1	0	0	48.27	0.432716	0.432254	0.00175032	3	3.14953e-05	13	0	8.2678	7.56582e-07
2	0	0	1	0	0	48.6695	0.436711	0.436228	0.00369762	3	3.27126e-05	13	0	8.6673	1.613e-06
2	1	0	1	0	0	49.0691	0.440706	0.440214	0.00280737	3	3.39292e-05	13	0	9.0669	1.23585e-06
2	0	0	1	0	0	49.4685	0.444702	0.444248	0.00223807	3	3.5137e-05	13	0	9.4663	9.94259e-07
2	1	0	1	0	0	49.8681	0.448697	0.4483	0.00392434	3	3.63421e-05	13	0	9.8659	1.75928e-06
2	0	0	1	0	0	50.1735	0.448247	0.447739	-0.00292694	3	3.64187e-05	13	0	0.1499	-1.3105e-06
2	0	0	1	0	0	50.5729	0.444252	0.443773	-0.00217793	3	3.55585e-05	13	0	0.5493	-9.66507e-07
2	0	0	1	0	0	50.9725	0.440257	0.4398	-0.00196364	3	3.463e-05	13	0	0.9489	-8.63609e-07
2	0	0	1	0	0	51.372	0.436263	0.435816	-0.0036379	3	3.36545e-05	13	0	1.3484	-1.58545e-06
2	0	0	1	0	0	51.7715	0.432266	0.431796	-0.00162522	3	3.26476e-05	13	0	1.7479	-7.01765e-07
2	0	0	1	0	0	52.1711	0.428271	0.427829	-0.00332645	3	3.16107e-05	13	0	2.1475	-1.42315e-06
2	0	0	1	0	0	52.5706	0.424276	0.423805	-0.00305079	3	3.05439e-05	13	0	2.547	-1.29294e-06
2	0	0	1	0	0	52.9701	0.420281	0.419837	-0.00211867	3	2.9458e-05	13	0	2.9465	-8.89495e-07
2	0	0	1	0	0	53.3697	0.416285	0.415817	-0.00416989	3	2.83482e-05	13	0	3.3461	-1.73391e-06
2	0	0	1	0	0	53.7692	0.412289	0.411827	-0.00209034	3	2.72131e-05	13	0	3.7456	-8.60861e-07
2	0	0	1	0	0	54.1687	0.408295	0.407822	-0.00332004	3	2.60591e-05	13	0	4.1451	-1.35398e-06
2	0	0	1	0	0	54.5683	0.4043	0.403824	-0.00385073	3	2.48861e-05	13	0	4.5447	-1.55502e-06
2	0	0	1	0	0	54.9677	0.400304	0.399859	-0.00201022	3	2.36852e-05	13	0	4.9441	-8.03805e-07
2	0	0	1	0	0	55.3673	0.396309	0.395848	-0.00427478	3	2.24595e-05	13	0	5.3437	-1.69216e-06
2	0	0	1	0	0	55.7668	0.392315	0.39184	-0.00321911	3	2.12075e-05	13	0	5.7432	-1.26138e-06
2	0	0	1	0	0	56.1663	0.388319	0.387879	-0.0027698	3	1.99365e-05	13	0	6.1427	-1.07435e-06
2	0	0	1	0	0	56.5659	0.384323	0.383878	-0.00482883	3	1.86379e-05	13	0	6.5423	-1.85368e-06
2	0	0	1	0	0	56.9654	0.380328	0.379908	-0.00256091	3	1.73129e-05	13	0	6.9418	-9.7291e-07
2	0	0	1	0	0	57.3649	0.376333	0.375873	-0.00385171	3	1.59639e-05	13	0	7.3413	-1.44775e-06
2	0	0	1	0	0	57.7645	0.372338	0.371851	-0.00443012	3	1.4583e-05	13	0	7.7409	-1.64735e-06
2	0	0	1	0	0	58.164	0.368341	0.367838	-0.00247087	3	1.3177e-05	13	0	8.1404	-9.08881e-07
2	0	0	1	0	0	58.5635	0.364347	0.363951	-0.00520225	3	1.17418e-05	13	0	8.5399	-1.89337e-06
2	0	0	1	0	0	58.9631	0.360352	0.359858	-0.00337837	3	1.02736e-05	13	0	8.9395	-1.21574e-06
2	0	0	1	0	0	59.3625	0.356356	0.355927	-0.00360676	3	8.78006e-06	13	0	9.3389	-1.28375e-06
2	0	0	1	0	0	59.7621	0.352361	0.351921	-0.00533458	3	7.24958e-06	13	0	9.7385	-1.87735e-06
2	1	0	1	0	1	60.0283	0.350314	0.349908	0.00113407	4	6.39705e-06	13	0	0.000000000000000E+000	3.96819e-07
2	1	0	1	0	1	60.4279	0.354309	0.353858	0.00453822	4	7.60033e-06	13	0	0.3996	1.60588e-06
2	1	0	1	0	1	60.8274	0.358304	0.357879	0.00321026	4	8.91049e-06	13	0	0.7991	1.14889e-06
2	1	0	1	0	1	61.2269	0.362299	0.361858	0.00263198	4	1.02482e-05	13	0	1.1986	9.52402e-07
2	1	0	1	0	1	61.6265	0.366295	0.365832	0.00480328	4	1.15988e-05	13	0	1.5982	1.7572e-06
2	1	0	1	0	1	62.026	0.37029	0.369875	0.00357142	4	1.29519e-05	13	0	1.9977	1.32098e-06
2	1	0	1	0	1	62.4255	0.374285	0.373851	0.00250662	4	1.42962e-05	13	0	2.3972	9.37104e-07
2	1	0	1	0	1	62.8251	0.37828	0.377858	0.00486652	4	1.56379e-05	13	0	2.7968	1.83886e-06
2	1	0	1	0	1	63.2245	0.382276	0.381828	0.0026171	4	1.69657e-05	13	0	3.1962	9.99282e-07
2	1	0	1	0	1	63.6241	0.386271	0.385794	0.00330025	4	1.82858e-05	13	0	3.5958	1.27322e-06
2	1	0	1	0	1	64.0236	0.390266	0.389855	0.00444677	4	1.96008e-05	13	0	3.9953	1.73359e-06
2	1	0	1	0	1	64.4231	0.394262	0.393841	0.00227566	4	2.09017e-05	13	0	4.3948	8.96248e-07
2	1	0	1	0	1	64.8227	0.398257	0.397824	0.0034626	4	2.21929e-05	13	0	4.7944	1.37751e-06
2	1	0	1	0	1	65.2222	0.402252	0.401797	0.00409903	4	2.34758e-05	13	0	5.1939	1.64698e-06
2	1	0	1	0	1	65.6217	0.406247	0.405828	0.0020827	4	2.47479e-05	13	0	5.5934	8.45217e-07
2	1	0	1	0	1	66.0213	0.410243	0.409808	0.00400817	4	2.60043e-05	13	0	5.993	1.64258e-06
2	1	0	1	0	1	66.4208	0.414239	0.41383	0.00344157	4	2.72592e-05	13	0	6.3925	1.42423e-06
2	1	0	1	0	1	66.8203	0.418233	0.41775	0.00231407	4	2.85027e-05	13	0	6.792	9.66705e-07
2	1	0	1	0	1	67.2199	0.422228	0.421776	0.00437216	4	2.97414e-05	13	0	7.1916	1.84407e-06
2	1	0	1	0	1	67.6193	0.426224	0.425782	0.00243897	4	3.097e-05	13	0	7.591	1.03847e-06
2	1	0	1	0	1	68.0189	0.430219	0.429797	0.00306884	4	3.21889e-05	13	0	7.9906	1.31898e-06
2	1	0	1	0	1	68.4184	0.434214	0.433754	0.00387953	4	3.34016e-05	13	0	8.3901	1.68276e-06
2	1	0	1	0	1	68.8179	0.438209	0.437731	0.00198906	4	3.46073e-05	13	0	8.7896	8.70672e-07
2	1	0	1	0	1	69.2175	0.442205	0.441799	0.00413094	4	3.58101e-05	13	0	9.1892	1.82504e-06
2	1	0	1	0	1	69.617	0.4462	0.445739	0.00243514	4	3.70055e-05	13	0	9.5887	1.08544e-06
2	1	0	1	0	1	69.994	0.449971	0.449401	0.000372608	4	3.81168e-05	13	0	9.9657	1.6745e-07
2	1	0	1	0	1	70.3219	0.446749	0.446295	-0.00145323	4	3.75206e-05	13	0	0.2997	-6.48568e-07
2	0	0	1	0	1	70.7214	0.442754	0.442293	-0.00321906	4	3.66269e-05	13	0	0.6992	-1.42377e-06
2	1	0	1	0	1	71.1209	0.438759	0.438297	-0.00119028	4	3.56767e-05	13	0	1.0987	-5.21696e-07
2	1	0	1	0	1	71.5205	0.434764	0.43428	-0.0033467	4	3.46857e-05	13	0	1.4983	-1.4534e-06
2	0	0	1	0	1	71.92	0.430767	0.430282	-0.00200882	4	3.36636e-05	13	0	1.8978	-8.64356e-07
2	1	0	1	0	1	72.3195	0.426773	0.426336	-0.00251901	4	3.26145e-05	13	0	2.2973	-1.07394e-06
2	0	0	1	0	1	72.719	0.422779	0.42231	-0.00316321	4	3.154e-05	13	0	2.6968	-1.33586e-06
2	1	0	1	0	1	73.1185	0.418782	0.418316	-0.00167039	4	3.04405e-05	13	0	3.0963	-6.9875e-07
2	1	0	1	0	1	73.5181	0.414787	0.414329	-0.00392485	4	2.93204e-05	13	0	3.4959	-1.62618e-06
2	0	0	1	0	1	73.9176	0.410792	0.410312	-0.00175651	4	2.81773e-05	13	0	3.8954	-7.20716e-07
2	1	0	1	0	1	74.3171	0.406797	0.40633	-0.00314807	4	2.70204e-05	13	0	4.2949	-1.27915e-06
2	0	0	1	0	1	74.7167	0.402801	0.402346	-0.00319498	4	2.58336e-05	13	0	4.6945	-1.28549e-06
2	1	0	1	0	1	75.1162	0.398806	0.398356	-0.00208748	4	2.46243e-05	13	0	5.094	-8.3156e-07
2	0	0	1	0	1	75.5157	0.394811	0.394352	-0.00423345	4	2.3392e-05	13	0	5.4935	-1.66947e-06
2	0	0	1	0	1	75.9153	0.390816	0.390393	-0.0018498	4	2.2137e-05	13	0	5.8931	-7.22148e-07
2	1	0	1	0	1	76.3147	0.38682	0.386349	-0.00393477	4	2.08554e-05	13	0	6.2925	-1.52019e-06
2	0	0	1	0	1	76.7143	0.382825	0.382347	-0.0029358	4	1.95498e-05	13	0	6.6921	-1.12249e-06
2	1	0	1	0	1	77.1138	0.378831	0.378432	-0.00248098	4	1.82226e-05	13	0	7.0916	-9.38882e-07
2	0	0	1	0	1	77.5133	0.374835	0.374393	-0.00468226	4	1.68651e-05	13	0	7.4911	-1.75301e-06
2	0	0	1	0	1	77.9129	0.370839	0.370377	-0.0027048	4	1.54813e-05	13	0	7.8907	-1.0018e-06
2	1	0	1	0	1	78.3124	0.366844	0.366355	-0.00296541	4	1.40685e-05	13	0	8.2902	-1.08639e-06
2	0	0	1	0	1	78.7119	0.362849	0.362402	-0.00493265	4	1.26244e-05	13	0	8.6897	-1.7876e-06
2	0	0	1	0	1	79.1115	0.358854	0.358434	-0.00264038	4	1.11485e-05	13	0	9.0893	-9.46401e-07
2	1	0	1	0	1	79.511	0.354857	0.354451	-0.00378271	4	9.643e-06	13	0	9.4888	-1.34079e-06
2	0	0	1	0	1	79.9105	0.350863	0.350431	-0.00457399	4	8.09945e-06	13	0	9.8883	-1.60287e-06
2	1	0	1	0	0	80.1768	0.351813	0.351388	0.00184383	5	8.25494e-06	13	0	0.1499	6.47899e-07
2	1	0	1	0	0	80.5763	0.355807	0.355352	0.00466297	5	9.51816e-06	13	0	0.5494	1.657e-06
2	1	0	1	0	0	80.9759	0.359802	0.359373	0.00343693	5	1.08378e-05	13	0	0.949	1.23514e-06
2	1	0	1	0	0	81.3753	0.363798	0.363367	0.00243323	5	1.21769e-05	13	0	1.3484	8.84157e-07
2	1	0	1	0	0	81.7749	0.367793	0.367366	0.00491721	5	1.35238e-05	13	0	1.748	1.80641e-06
2	1	0	1	0	0	82.1744	0.371788	0.371362	0.00298428	5	1.48696e-05	13	0	2.1475	1.10825e-06
2	1	0	1	0	0	82.5739	0.375783	0.375365	0.00322106	5	1.62056e-05	13	0	2.547	1.20907e-06
2	1	0	1	0	0	82.9735	0.379779	0.379387	0.00433259	5	1.75363e-05	13	0	2.9466	1.64373e-06
2	1	0	1	0	0	83.373	0.383774	0.383336	0.00230661	5	1.88556e-05	13	0	3.3461	8.84207e-07
2	1	0	1	0	0	83.7725	0.387769	0.387341	0.00478636	5	2.0164e-05	13	0	3.7456	1.85395e-06
2	1	0	1	0	0	84.1721	0.391764	0.391314	0.00270967	5	2.14657e-05	13	0	4.1452	1.06033e-06
2	1	0	1	0	0	84.5715	0.39576	0.395324	0.00297344	5	2.27532e-05	13	0	4.5446	1.17547e-06
2	1	0	1	0	0	84.9711	0.399755	0.399343	0.00458009	5	2.40337e-05	13	0	4.9442	1.82903e-06
2	1	0	1	0	0	85.3706	0.40375	0.403347	0.00219041	5	2.53041e-05	13	0	5.3437	8.83495e-07
2	1	0	1	0	0	85.7701	0.407746	0.407294	0.00417738	5	2.6559e-05	13	0	5.7432	1.70142e-06
2	1	0	1	0	0	86.1697	0.411741	0.411317	0.00309902	5	2.78052e-05	13	0	6.1428	1.27468e-06
2	1	0	1	0	0	86.5692	0.415736	0.415279	0.0026871	5	2.90452e-05	13	0	6.5423	1.1159e-06
2	1	0	1	0	0	86.9687	0.419731	0.419278	0.00445501	5	3.02783e-05	13	0	6.9418	1.86789e-06
2	1	0	1	0	0	87.3683	0.423727	0.423304	0.00219404	5	3.15039e-05	13	0	7.3414	9.28746e-07
2	1	0	1	0	0	87.7678	0.427723	0.427288	0.00394804	5	3.27211e-05	13	0	7.7409	1.68695e-06
2	1	0	1	0	0	88.1673	0.431717	0.431244	0.0031414	5	3.39314e-05	13	0	8.1404	1.35471e-06
2	1	0	1	0	0	88.5669	0.435712	0.435253	0.00287674	5	3.51348e-05	13	0	8.54	1.25211e-06
2	1	0	1	0	0	88.9663	0.439708	0.439296	0.00399877	5	3.63324e-05	13	0	8.9394	1.75665e-06
2	1	0	1	0	0	89.3659	0.443703	0.443271	0.00213486	5	3.75246e-05	13	0	9.339	9.46319e-07
2	1	0	1	0	0	89.7654	0.447698	0.447264	0.00427598	5	3.8714e-05	13	0	9.7385	1.91249e-06
2	1	0	1	0	0	90.0707	0.449246	0.448769	-0.00243522	5	3.92779e-05	13	0	0.0773	-1.09285e-06
2	0	0	1	0	0	90.4703	0.445251	0.444762	-0.00202459	5	3.84499e-05	13	0	0.4769	-9.0046e-07
2	1	0	1	0	0	90.8698	0.441256	0.440785	-0.00195458	5	3.75326e-05	13	0	0.8764	-8.61551e-07
2	0	0	1	0	0	91.2693	0.437261	0.436771	-0.00327334	5	3.65653e-05	13	0	1.2759	-1.4297e-06
2	1	0	1	0	0	91.6689	0.433265	0.432752	-0.0012598	5	3.55667e-05	13	0	1.6755	-5.45182e-07
2	1	0	1	0	0	92.0684	0.42927	0.428761	-0.00353166	5	3.45388e-05	13	0	2.075	-1.51424e-06
2	0	0	1	0	0	92.4679	0.425275	0.424784	-0.00200077	5	3.34803e-05	13	0	2.4745	-8.49897e-07
2	1	0	1	0	0	92.8675	0.42128	0.420801	-0.00261772	5	3.23994e-05	13	0	2.8741	-1.10154e-06
2	0	0	1	0	0	93.267	0.417283	0.41682	-0.00321454	5	3.12938e-05	13	0	3.2736	-1.33988e-06
2	1	0	1	0	0	93.6665	0.413289	0.412843	-0.00170284	5	3.01657e-05	13	0	3.6731	-7.03006e-07
2	1	0	1	0	0	94.0661	0.409294	0.408843	-0.00402765	5	2.90167e-05	13	0	4.0727	-1.64668e-06
2	0	0	1	0	0	94.4655	0.405298	0.404861	-0.00180927	5	2.78529e-05	13	0	4.4721	-7.32502e-07
2	1	0	1	0	0	94.8651	0.401303	0.400812	-0.0035468	5	2.6661e-05	13	0	4.8717	-1.4216e-06
2	0	0	1	0	0	95.2646	0.397308	0.396853	-0.00316535	5	2.54458e-05	13	0	5.2712	-1.25618e-06
2	1	0	1	0	0	95.6641	0.393313	0.392806	-0.00230016	5	2.42058e-05	13	0	5.6707	-9.03518e-07
2	0	0	1	0	0	96.0637	0.389317	0.388878	-0.00438124	5	2.29431e-05	13	0	6.0703	-1.70377e-06
2	0	0	1	0	0	96.4632	0.385322	0.384848	-0.00199772	5	2.16546e-05	13	0	6.4698	-7.68817e-07
2	0	0	1	0	0	96.8627	0.381327	0.380875	-0.00402098	5	2.03456e-05	13	0	6.8693	-1.53149e-06
2	0	0	1	0	0	97.2623	0.377332	0.376854	-0.00342693	5	1.90084e-05	13	0	7.2689	-1.29145e-06
2	0	0	1	0	0	97.6617	0.373336	0.372915	-0.0027493	5	1.76435e-05	13	0	7.6683	-1.02525e-06
2	0	0	1	0	0	98.0613	0.369341	0.368887	-0.00482976	5	1.62519e-05	13	0	8.0679	-1.78163e-06
2	0	0	1	0	0	98.4608	0.365347	0.364923	-0.00226289	5	1.48311e-05	13	0	8.4674	-8.2578e-07
2	0	0	1	0	0	98.8603	0.361351	0.360884	-0.00467262	5	1.33779e-05	13	0	8.8669	-1.68628e-06
2	0	0	1	0	0	99.2599	0.357355	0.356875	-0.00417648	5	1.18916e-05	13	0	9.2665	-1.49048e-06
2	0	0	1	0	0	99.6594	0.35336	0.352928	-0.00261404	5	1.03802e-05	13	0	9.666	-9.22567e-07
2	0	0	0	0	0	99.993	0.349989	0.349762	-0.00691157	5	9.05759e-06	13	0	9.9996	-2.41741e-06
2	1	0	1	0	1	100.325	0.35331	0.352852	0.00263427	6	1.00359e-05	13	0	0.2997	9.29506e-07
2	1	0	1	0	1	100.725	0.357305	0.356864	0.00314351	6	1.13234e-05	13	0	0.6992	1.12181e-06
2	1	0	1	0	1	101.124	0.361301	0.360877	0.00474637	6	1.26534e-05	13	0	1.0988	1.71286e-06
2	1	0	1	0	1	101.524	0.365297	0.364933	0.00223643	6	1.39954e-05	13	0	1.4983	8.16145e-07
2	1	0	1	0	1	101.923	0.369291	0.368892	0.00457163	6	1.53359e-05	13	0	1.8978	1.68644e-06
2	1	0	1	0	1	102.323	0.373286	0.372842	0.00366504	6	1.66756e-05	13	0	2.2974	1.36648e-06
2	1	0	1	0	1	102.722	0.377282	0.376895	0.00273904	6	1.80079e-05	13	0	2.6968	1.03233e-06
2	1	0	1	0	1	103.122	0.381277	0.380878	0.00487132	6	1.93315e-05	13	0	3.0964	1.85538e-06
2	1	0	1	0	1	103.521	0.385272	0.384843	0.00238504	6	2.06434e-05	13	0	3.4959	9.17865e-07
2	1	0	1	0	1	103.921	0.389267	0.38883	0.00359846	6	2.19464e-05	13	0	3.8954	1.39919e-06
2	1	0	1	0	1	104.32	0.393263	0.392851	0.00435486	6	2.32408e-05	13	0	4.295	1.71081e-06
2	1	0	1	0	1	104.72	0.397258	0.396848	0.00214301	6	2.45242e-05	13	0	4.6945	8.50449e-07
2	1	0	1	0	1	105.119	0.401253	0.400822	0.00427738	6	2.57948e-05	13	0	5.094	1.71447e-06
2	1	0	1	0	1	105.519	0.405248	0.404855	0.00327675	6	2.70571e-05	13	0	5.4936	1.32661e-06
2	1	0	1	0	1	105.918	0.409244	0.408801	0.00226582	6	2.82998e-05	13	0	5.893	9.26268e-07
2	1	0	1	0	1	106.318	0.413239	0.412791	0.00403266	6	2.95421e-05	13	0	6.2926	1.66465e-06
2	1	0	1	0	1	106.718	0.417233	0.416798	0.00384022	6	3.07784e-05	13	0	6.6921	1.6006e-06
2	1	0	1	0	1	107.117	0.42123	0.420811	0.00215234	6	3.20046e-05	13	0	7.0916	9.05729e-07
2	1	0	1	0	1	107.517	0.425225	0.424776	0.00303769	6	3.32205e-05	13	0	7.4912	1.29034e-06
2	1	0	1	0	1	107.916	0.42922	0.428756	0.00429671	6	3.44344e-05	13	0	7.8907	1.84224e-06
2	1	0	1	0	1	108.316	0.433215	0.43278	0.00293203	6	3.56383e-05	13	0	8.2902	1.26892e-06
2	1	0	1	0	1	108.715	0.437211	0.43675	0.00203229	6	3.68322e-05	13	0	8.6898	8.87603e-07
2	1	0	1	0	1	109.115	0.441207	0.440723	0.00303934	6	3.80243e-05	13	0	9.0893	1.33951e-06
2	1	0	1	0	1	109.514	0.445201	0.444719	0.00411661	6	3.92133e-05	13	0	9.4888	1.83073e-06
2	1	0	1	0	1	109.914	0.449196	0.448753	0.00326145	6	4.03985e-05	13	0	9.8884	1.46358e-06
2	1	0	1	0	1	110.219	0.447748	0.44732	-0.00293603	6	4.02262e-05	13	0	0.1998	-1.31334e-06
2	0	0	1	0	1	110.619	0.443753	0.443294	-0.00251041	6	3.93521e-05	13	0	0.5993	-1.11285e-06
2	1	0	1	0	1	111.018	0.439758	0.439274	-0.00119082	6	3.84179e-05	13	0	0.9989	-5.23095e-07
2	1	0	1	0	1	111.418	0.435762	0.435275	-0.00233625	6	3.7444e-05	13	0	1.3983	-1.01691e-06
2	0	0	1	0	1	111.817	0.431767	0.431298	-0.00336754	6	3.64345e-05	13	0	1.7979	-1.45241e-06
2	1	0	1	0	1	112.217	0.427772	0.427331	-0.00152867	6	3.54004e-05	13	0	2.1974	-6.5325e-07
2	1	0	1	0	1	112.616	0.423777	0.423279	-0.00247634	6	3.43412e-05	13	0	2.5969	-1.04818e-06
2	0	0	1	0	1	113.016	0.419781	0.419281	-0.00361468	6	3.32566e-05	13	0	2.9965	-1.51557e-06
2	0	0	1	0	1	113.415	0.415786	0.415309	-0.00169487	6	3.21517e-05	13	0	3.396	-7.03896e-07
2	1	0	1	0	1	113.815	0.411791	0.411301	-0.00247464	6	3.10241e-05	13	0	3.7955	-1.01782e-06
2	0	0	1	0	1	114.214	0.407795	0.407265	-0.00392959	6	2.98751e-05	13	0	4.1951	-1.60038e-06
2	0	0	1	0	1	114.614	0.4038	0.403317	-0.00232536	6	2.87075e-05	13	0	4.5946	-9.37859e-07
2	1	0	1	0	1	115.013	0.399805	0.39937	-0.00229783	6	2.75133e-05	13	0	4.9941	-9.17683e-07
2	0	0	1	0	1	115.413	0.39581	0.395336	-0.00420655	6	2.62948e-05	13	0	5.3937	-1.663e-06
2	0	0	1	0	1	115.812	0.391814	0.391358	-0.00290715	6	2.50515e-05	13	0	5.7931	-1.13774e-06
2	0	0	1	0	1	116.212	0.387819	0.387371	-0.00213693	6	2.37885e-05	13	0	6.1927	-8.27785e-07
2	0	0	1	0	1	116.612	0.383824	0.38341	-0.00434846	6	2.24974e-05	13	0	6.5922	-1.66725e-06
2	0	0	1	0	1	117.011	0.379829	0.379333	-0.0035206	6	2.11809e-05	13	0	6.9917	-1.33548e-06
2	0	0	1	0	1	117.411	0.375833	0.375382	-0.00218187	6	1.98399e-05	13	0	7.3913	-8.19033e-07
2	0	0	1	0	1	117.81	0.371838	0.371357	-0.00439395	6	1.84692e-05	13	0	7.7908	-1.63172e-06
2	0	0	1	0	1	118.21	0.367843	0.367385	-0.0042449	6	1.70647e-05	13	0	8.1903	-1.55951e-06
2	0	0	1	0	1	118.609	0.363848	0.363401	-0.00233037	6	1.56362e-05	13	0	8.5899	-8.4686e-07
2	0	0	1	0	1	119.009	0.359852	0.359374	-0.00448356	6	1.41741e-05	13	0	8.9893	-1.61127e-06
2	0	0	1	0	1	119.408	0.355857	0.355395	-0.00471193	6	1.26813e-05	13	0	9.3889	-1.6746e-06
2	0	0	1	0	1	119.808	0.351863	0.351404	-0.00253855	6	1.11547e-05	13	0	9.7884	-8.92055e-07
2	1	0	1	0	0	120.074	0.350813	0.350387	0.00408867	7	1.06332e-05	13	0	0.0775	1.43261e-06
2	1	0	1	0	0	120.474	0.354807	0.354382	0.00371513	7	1.18568e-05	13	0	0.477	1.31658e-06
2	1	0	1	0	0	120.873	0.358804	0.358364	0.0021636	7	1.31578e-05	13	0	0.8765	7.75355e-07
2	1	0	1	0	0	121.273	0.362799	0.362365	0.00451605	7	1.44863e-05	13	0	1.2761	1.63646e-06
2	1	0	1	0	0	121.672	0.366794	0.366353	0.00404088	7	1.58246e-05	13	0	1.6756	1.48039e-06
2	1	0	1	0	0	122.072	0.370789	0.37036	0.00214098	7	1.71609e-05	13	0	2.0751	7.92934e-07
2	1	0	1	0	0	122.471	0.374785	0.374337	0.0041424	7	1.84911e-05	13	0	2.4747	1.55065e-06
2	1	0	1	0	0	122.871	0.378781	0.378364	0.00399165	7	1.98157e-05	13	0	2.8742	1.5103e-06
2	1	0	1	0	0	123.27	0.382775	0.382341	0.00208491	7	2.11269e-05	13	0	3.2737	7.97147e-07
2	1	0	1	0	0	123.67	0.38677	0.386324	0.0040111	7	2.24295e-05	13	0	3.6733	1.54958e-06
2	1	0	1	0	0	124.069	0.390766	0.390321	0.00389877	7	2.37256e-05	13	0	4.0727	1.52177e-06
2	1	0	1	0	0	124.469	0.394761	0.394332	0.0019919	7	2.50076e-05	13	0	4.4723	7.85471e-07
2	0	0	1	0	0	124.868	0.398756	0.398354	0.00374558	7	2.62776e-05	13	0	4.8718	1.49206e-06
2	1	0	1	0	0	125.268	0.402751	0.402345	0.00380484	7	2.75431e-05	13	0	5.2713	1.53086e-06
2	1	0	1	0	0	125.667	0.406747	0.406341	0.00186291	7	2.87928e-05	13	0	5.6709	7.56977e-07
2	0	0	1	0	0	126.067	0.410742	0.410297	0.00342583	7	3.00252e-05	13	0	6.0704	1.4056e-06
2	1	0	1	0	0	126.466	0.414737	0.414265	0.00372185	7	3.12576e-05	13	0	6.4699	1.54183e-06
2	1	0	1	0	0	126.866	0.418732	0.418255	0.00182013	7	3.248e-05	13	0	6.8695	7.61277e-07
2	0	0	1	0	0	127.266	0.422729	0.422296	0.00337364	7	3.36958e-05	13	0	7.269	1.42467e-06
2	1	0	1	0	0	127.665	0.426723	0.426267	0.00357278	7	3.49044e-05	13	0	7.6685	1.52296e-06
2	1	0	1	0	0	128.065	0.430717	0.430246	0.00177722	7	3.6104e-05	13	0	8.068	7.64642e-07
2	0	0	1	0	0	128.464	0.434714	0.434244	0.00321573	7	3.72967e-05	13	0	8.4675	1.39641e-06
2	1	0	1	0	0	128.864	0.438709	0.438248	0.00354389	7	3.84841e-05	13	0	8.8671	1.5531e-06
2	1	0	1	0	0	129.263	0.442704	0.442248	0.00171704	7	3.96661e-05	13	0	9.2666	7.59355e-07
2	0	0	1	0	0	129.663	0.446699	0.446283	0.00331288	7	4.08429e-05	13	0	9.6661	1.47848e-06
2	1	0	0	0	0	129.991	0.450021	0.44963	0.00482307	7	4.18218e-05	13	0	9.994	2.16859e-06
2	0	0	1	0	0	130.368	0.44625	0.445768	-0.00327572	7	4.10743e-05	13	0	0.3496	-1.46021e-06
2	0	0	1	0	0	130.767	0.442255	0.441756	-0.00225218	7	4.01708e-05	13	0	0.7491	-9.94916e-07
2	0	0	1	0	0	131.167	0.438259	0.437776	-0.00166684	7	3.9217e-05	13	0	1.1487	-7.297e-07
2	0	0	1	0	0	131.566	0.434264	0.433799	-0.00366014	7	3.82253e-05	13	0	1.5482	-1.58776e-06
2	0	0	1	0	0	131.966	0.430269	0.429776	-0.00275096	7	3.72039e-05	13	0	1.9477	-1.1823e-06
2	0	0	1	0	0	132.365	0.426274	0.425779	-0.00182147	7	3.61586e-05	13	0	2.3473	-7.75542e-07
2	0	0	1	0	0	132.765	0.422278	0.421773	-0.00382396	7	3.50869e-05	13	0	2.7467	-1.61284e-06
2	0	0	1	0	0	133.164	0.418283	0.41781	-0.00286667	7	3.39893e-05	13	0	3.1463	-1.19772e-06
2	0	0	1	0	0	133.564	0.414288	0.413782	-0.00215893	7	3.28729e-05	13	0	3.5458	-8.93326e-07
2	0	0	1	0	0	133.963	0.410293	0.409774	-0.0042523	7	3.17329e-05	13	0	3.9453	-1.74248e-06
2	0	0	1	0	0	134.363	0.406297	0.405835	-0.00244232	7	3.05786e-05	13	0	4.3449	-9.91178e-07
2	0	0	1	0	0	134.762	0.402302	0.401859	-0.00298839	7	2.9398e-05	13	0	4.7444	-1.20091e-06
2	0	0	1	0	0	135.162	0.398307	0.39786	-0.00421888	7	2.81915e-05	13	0	5.1439	-1.67853e-06
2	0	0	1	0	0	135.561	0.394311	0.393794	-0.00205197	7	2.69648e-05	13	0	5.5435	-8.08052e-07
2	0	0	1	0	0	135.961	0.390316	0.389891	-0.00392513	7	2.57153e-05	13	0	5.943	-1.53037e-06
2	0	0	1	0	0	136.36	0.386321	0.385841	-0.00398718	7	2.44375e-05	13	0	6.3425	-1.53842e-06
2	0	0	1	0	0	136.76	0.382326	0.381888	-0.00219658	7	2.31386e-05	13	0	6.7421	-8.38847e-07
2	0	0	1	0	0	137.159	0.37833	0.377881	-0.00454028	7	2.18146e-05	13	0	7.1415	-1.71568e-06
2	0	0	1	0	0	137.559	0.374335	0.37387	-0.00372843	7	2.04578e-05	13	0	7.5411	-1.39395e-06
2	0	0	1	0	0	137.959	0.37034	0.369887	-0.00254995	7	1.90791e-05	13	0	7.9406	-9.43194e-07
2	0	0	1	0	0	138.358	0.366345	0.365871	-0.00506479	7	1.76679e-05	13	0	8.3401	-1.85306e-06
2	0	0	1	0	0	138.758	0.362349	0.36185	-0.00354258	7	1.62274e-05	13	0	8.7397	-1.28188e-06
2	0	0	1	0	0	139.157	0.358354	0.357907	-0.00285054	7	1.4759e-05	13	0	9.1392	-1.02023e-06
2	0	0	1	0	0	139.557	0.354359	0.353933	-0.0052533	7	1.32555e-05	13	0	9.5387	-1.85931e-06
2	0	0	1	0	0	139.956	0.350364	0.349916	-0.00407445	7	1.17154e-05	13	0	9.9383	-1.42571e-06
2	0	0	1	0	1	140.222	0.352311	0.351917	0.00211816	8	1.22045e-05	13	0	0.1998	7.45418e-07
2	1	0	1	0	1	140.622	0.356307	0.355864	0.00451729	8	1.34718e-05	13	0	0.5994	1.60754e-06
2	1	0	1	0	1	141.021	0.360302	0.359852	0.0031003	8	1.47877e-05	13	0	0.9988	1.11565e-06
2	0	0	1	0	1	141.421	0.364297	0.363871	0.00222333	8	1.61211e-05	13	0	1.3984	8.09006e-07
2	0	0	1	0	1	141.821	0.368291	0.367903	0.00454068	8	1.74565e-05	13	0	1.7979	1.67053e-06
2	1	0	1	0	1	142.22	0.372288	0.3719	0.00326827	8	1.87933e-05	13	0	2.1974	1.21547e-06
2	0	0	1	0	1	142.62	0.376283	0.375851	0.00204958	8	2.01193e-05	13	0	2.597	7.70337e-07
2	0	0	1	0	1	143.019	0.380278	0.379846	0.00421263	8	2.14376e-05	13	0	2.9965	1.60015e-06
2	1	0	1	0	1	143.419	0.384273	0.383874	0.00321375	8	2.27473e-05	13	0	3.396	1.23368e-06
2	0	0	1	0	1	143.818	0.388269	0.387858	0.00206558	8	2.40441e-05	13	0	3.7956	8.01152e-07
2	1	0	1	0	1	144.218	0.392265	0.391842	0.00437953	8	2.5332e-05	13	0	4.1951	1.71608e-06
2	1	0	1	0	1	144.617	0.396259	0.395813	0.00262696	8	2.66125e-05	13	0	4.5946	1.03978e-06
2	0	0	1	0	1	145.017	0.400254	0.399802	0.00263378	8	2.78785e-05	13	0	4.9942	1.05299e-06
2	1	0	1	0	1	145.416	0.40425	0.403793	0.00403559	8	2.91362e-05	13	0	5.3936	1.62954e-06
2	1	0	1	0	1	145.816	0.408245	0.407751	0.00177305	8	3.03758e-05	13	0	5.7932	7.22962e-07
2	0	0	1	0	1	146.215	0.41224	0.411803	0.00382819	8	3.16123e-05	13	0	6.1927	1.57646e-06
2	1	0	1	0	1	146.615	0.416236	0.415832	0.00280836	8	3.28429e-05	13	0	6.5922	1.16781e-06
2	0	0	1	0	1	147.014	0.420231	0.41981	0.00241783	8	3.40615e-05	13	0	6.9918	1.01503e-06
2	1	0	1	0	1	147.414	0.424226	0.423742	0.00391734	8	3.52729e-05	13	0	7.3913	1.65994e-06
2	0	0	1	0	1	147.813	0.428221	0.427797	0.00175623	8	3.64774e-05	13	0	7.7908	7.5131e-07
2	0	0	1	0	1	148.213	0.432217	0.431753	0.00378119	8	3.76737e-05	13	0	8.1904	1.63254e-06
2	1	0	1	0	1	148.613	0.436213	0.435776	0.00229582	8	3.88625e-05	13	0	8.5899	1.00046e-06
2	0	0	1	0	1	149.012	0.440207	0.439786	0.0027466	8	4.00457e-05	13	0	8.9894	1.20792e-06
2	1	0	1	0	1	149.412	0.444202	0.443756	0.0035665	8	4.12254e-05	13	0	9.389	1.58266e-06
2	0	0	1	0	1	149.811	0.448198	0.447706	0.0018178	8	4.2401e-05	13	0	9.7884	8.13842e-07
2	0	0	1	0	1	150.116	0.448747	0.448253	-0.000950099	8	4.27081e-05	13	0	0.1273	-4.25885e-07
2	0	0	1	0	1	150.516	0.444752	0.444272	-0.0028826	8	4.18603e-05	13	0	0.5269	-1.28066e-06
2	0	0	1	0	1	150.915	0.440756	0.44027	-0.00244456	8	4.09366e-05	13	0	0.9263	-1.07627e-06
2	0	0	1	0	1	151.315	0.436761	0.436287	-0.00190978	8	3.9968e-05	13	0	1.3259	-8.3321e-07
2	0	0	1	0	1	151.715	0.432766	0.432283	-0.00373718	8	3.89667e-05	13	0	1.7254	-1.61552e-06
2	0	0	1	0	1	152.114	0.428771	0.428263	-0.00159838	8	3.79373e-05	13	0	2.1249	-6.84526e-07
2	0	0	1	0	1	152.514	0.424775	0.424284	-0.00353664	8	3.68799e-05	13	0	2.5245	-1.50054e-06
2	0	0	1	0	1	152.913	0.42078	0.420279	-0.00268971	8	3.57988e-05	13	0	2.924	-1.13043e-06
2	0	0	1	0	1	153.313	0.416785	0.416343	-0.00244615	8	3.46969e-05	13	0	3.3235	-1.01844e-06
2	0	0	1	0	1	153.712	0.41279	0.412316	-0.0039816	8	3.35708e-05	13	0	3.7231	-1.64168e-06
2	0	0	1	0	1	154.112	0.408794	0.408315	-0.00192238	8	3.24264e-05	13	0	4.1225	-7.84937e-07
2	0	0	1	0	1	154.511	0.404799	0.404339	-0.00361545	8	3.12663e-05	13	0	4.5221	-1.46187e-06
2	0	0	1	0	1	154.911	0.400805	0.400305	-0.00345257	8	3.00781e-05	13	0	4.9216	-1.38208e-06
2	0	0	1	0	1	155.31	0.396808	0.396328	-0.00219565	8	2.88704e-05	13	0	5.3211	-8.70196e-07
2	0	0	1	0	1	155.71	0.392813	0.392362	-0.00452488	8	2.76352e-05	13	0	5.7207	-1.77539e-06
2	0	0	1	0	1	156.109	0.388818	0.388348	-0.00266499	8	2.63792e-05	13	0	6.1202	-1.03494e-06
2	0	0	1	0	1	156.509	0.384823	0.384372	-0.00296326	8	2.5101e-05	13	0	6.5197	-1.13899e-06
2	0	0	1	0	1	156.908	0.380827	0.380366	-0.00470064	8	2.37949e-05	13	0	6.9193	-1.78796e-06
2	0	0	1	0	1	157.308	0.376832	0.376307	-0.0023427	8	2.24637e-05	13	0	7.3188	-8.81575e-07
2	0	0	1	0	1	157.707	0.372837	0.372337	-0.00380346	8	2.11049e-05	13	0	7.7183	-1.41617e-06
2	0	0	1	0	1	158.107	0.368842	0.368366	-0.00446384	8	1.97148e-05	13	0	8.1179	-1.64432e-06
2	0	0	1	0	1	158.506	0.364846	0.364346	-0.00245154	8	1.82972e-05	13	0	8.5173	-8.93208e-07
2	0	0	1	0	1	158.906	0.360851	0.360366	-0.00511519	8	1.68438e-05	13	0	8.9169	-1.84334e-06
2	0	0	1	0	1	159.306	0.356856	0.356374	-0.00370105	8	1.53585e-05	13	0	9.3164	-1.31896e-06
2	0	0	1	0	1	159.705	0.352861	0.352337	-0.00286947	8	1.38483e-05	13	0	9.7159	-1.01102e-06
2	1	0	1	0	0	159.994	0.350039	0.34961	0.00190214	9	1.27837e-05	13	0	0.000000000000000E+000	6.65007e-07
2	1	0	1	0	0	160.371	0.353809	0.353387	0.00334151	9	1.38422e-05	13	0	0.3771	1.18085e-06
2	1	0	1	0	0	160.77	0.357805	0.357402	0.00205396	9	1.51255e-05	13	0	0.7767	7.34087e-07
2	1	0	1	0	0	161.17	0.3618	0.361391	0.0042842	9	1.64457e-05	13	0	1.1762	1.54827e-06
2	1	0	1	0	0	161.569	0.365795	0.365359	0.00425643	9	1.77798e-05	13	0	1.5757	1.55512e-06
2	1	0	1	0	0	161.969	0.369791	0.369391	0.00216134	9	1.91106e-05	13	0	1.9753	7.9838e-07
2	1	0	1	0	0	162.368	0.373786	0.373354	0.00396959	9	2.04362e-05	13	0	2.3747	1.48206e-06
2	1	0	1	0	0	162.768	0.377781	0.377389	0.00372779	9	2.17601e-05	13	0	2.7743	1.40683e-06
2	1	0	1	0	0	163.168	0.381775	0.381333	0.00254071	9	2.30698e-05	13	0	3.1738	9.68855e-07
2	1	0	1	0	0	163.567	0.385772	0.385344	0.00467604	9	2.43697e-05	13	0	3.5733	1.80188e-06
2	1	0	1	0	0	163.967	0.389767	0.38936	0.00215458	9	2.56626e-05	13	0	3.9729	8.38906e-07
2	1	0	1	0	0	164.366	0.393762	0.393321	0.00377322	9	2.69426e-05	13	0	4.3724	1.48409e-06
2	1	0	1	0	0	164.766	0.397757	0.39734	0.00360697	9	2.82153e-05	13	0	4.7719	1.4332e-06
2	1	0	1	0	0	165.165	0.401753	0.401328	0.00256035	9	2.94755e-05	13	0	5.1715	1.02754e-06
2	1	0	1	0	0	165.565	0.405749	0.405329	0.00442818	9	3.07255e-05	13	0	5.571	1.79487e-06
2	1	0	1	0	0	165.964	0.409743	0.409311	0.0021154	9	3.1959e-05	13	0	5.9705	8.65857e-07
2	1	0	1	0	0	166.364	0.413738	0.413314	0.00404256	9	3.31905e-05	13	0	6.3701	1.67085e-06
2	1	0	1	0	0	166.763	0.417734	0.41731	0.00301659	9	3.44122e-05	13	0	6.7695	1.25885e-06
2	1	0	1	0	0	167.163	0.421729	0.421302	0.00298829	9	3.56272e-05	13	0	7.1691	1.25897e-06
2	1	0	1	0	0	167.562	0.425724	0.425288	0.00389891	9	3.68341e-05	13	0	7.5686	1.65816e-06
2	1	0	1	0	0	167.962	0.429719	0.429295	0.00208828	9	3.80347e-05	13	0	7.9681	8.96487e-07
2	1	0	1	0	0	168.361	0.433715	0.433261	0.00431075	9	3.92234e-05	13	0	8.3677	1.86768e-06
2	1	0	1	0	0	168.761	0.43771	0.437304	0.00203493	9	4.04088e-05	13	0	8.7672	8.89883e-07
2	1	0	1	0	0	169.16	0.441705	0.441228	0.00403934	9	4.15896e-05	13	0	9.1667	1.78227e-06
2	1	0	1	0	0	169.56	0.445701	0.445265	0.00235701	9	4.27629e-05	13	0	9.5663	1.04949e-06
2	1	0	1	0	0	169.96	0.449697	0.449266	0.00362656	9	4.39327e-05	13	0	9.9658	1.62929e-06
2	1	0	1	0	0	170.265	0.447249	0.446798	-0.00188405	9	4.35031e-05	13	0	0.2497	-8.4179e-07
2	0	0	1	0	0	170.664	0.443253	0.442782	-0.00299739	9	4.26193e-05	13	0	0.6493	-1.32719e-06
2	0	0	1	0	0	171.064	0.439258	0.438793	-0.00136881	9	4.16799e-05	13	0	1.0488	-6.00626e-07
2	0	0	1	0	0	171.463	0.435263	0.434744	-0.00361661	9	4.07018e-05	13	0	1.4483	-1.5723e-06
2	0	0	1	0	0	171.863	0.431268	0.430811	-0.00149859	9	3.96914e-05	13	0	1.8479	-6.45611e-07
2	1	0	1	0	0	172.262	0.427272	0.426801	-0.00330747	9	3.86548e-05	13	0	2.2473	-1.41163e-06
2	0	0	1	0	0	172.662	0.423277	0.422819	-0.00233845	9	3.75945e-05	13	0	2.6469	-9.88742e-07
2	1	0	1	0	0	173.062	0.419282	0.418836	-0.0025039	9	3.65102e-05	13	0	3.0464	-1.04872e-06
2	0	0	1	0	0	173.461	0.415287	0.414777	-0.00332432	9	3.54035e-05	13	0	3.4459	-1.37885e-06
2	1	0	1	0	0	173.861	0.411291	0.410836	-0.00177797	9	3.42741e-05	13	0	3.8455	-7.30453e-07
2	0	0	1	0	0	174.26	0.407296	0.406868	-0.00405065	9	3.31328e-05	13	0	4.245	-1.64808e-06
2	0	0	1	0	0	174.66	0.403301	0.402807	-0.00179289	9	3.19622e-05	13	0	4.6445	-7.2219e-07
2	1	0	1	0	0	175.059	0.399306	0.398824	-0.00357836	9	3.07661e-05	13	0	5.0441	-1.42714e-06
2	0	0	1	0	0	175.459	0.395309	0.394822	-0.00292099	9	2.955e-05	13	0	5.4436	-1.15327e-06
2	1	0	1	0	0	175.858	0.391315	0.390845	-0.00241788	9	2.83112e-05	13	0	5.8431	-9.45018e-07
2	0	0	1	0	0	176.258	0.387321	0.386823	-0.00420213	9	2.7047e-05	13	0	6.2426	-1.62548e-06
2	0	0	1	0	0	176.657	0.383325	0.382872	-0.00179803	9	2.57601e-05	13	0	6.6421	-6.88417e-07
2	1	0	1	0	0	177.057	0.379329	0.378829	-0.0041444	9	2.44486e-05	13	0	7.0417	-1.57002e-06
2	0	0	1	0	0	177.456	0.375334	0.374877	-0.00311301	9	2.31103e-05	13	0	7.4412	-1.167e-06
2	1	0	1	0	0	177.856	0.371339	0.37088	-0.00254382	9	2.1745e-05	13	0	7.8407	-9.43454e-07
2	0	0	1	0	0	178.255	0.367343	0.366831	-0.00471772	9	2.0348e-05	13	0	8.2403	-1.7306e-06
2	0	0	1	0	0	178.655	0.363347	0.362868	-0.00224297	9	1.89232e-05	13	0	8.6398	-8.13901e-07
2	1	0	1	0	0	179.054	0.359353	0.358868	-0.00381513	9	1.74673e-05	13	0	9.0393	-1.36913e-06
2	0	0	1	0	0	179.454	0.355358	0.354855	-0.00437739	9	1.59785e-05	13	0	9.4389	-1.55334e-06
2	1	0	1	0	0	179.853	0.351362	0.350926	-0.00223524	9	1.44564e-05	13	0	9.8383	-7.84406e-07
2	1	0	1	0	1	180.12	0.351312	0.350913	0.00418401	10	1.42615e-05	13	0	0.1	1.46822e-06
2	1	0	1	0	1	180.519	0.355308	0.354857	0.0024565	10	1.55015e-05	13	0	0.4994	8.71707e-07
2	0	0	1	0	1	180.919	0.359303	0.358881	0.00284377	10	1.68031e-05	13	0	0.899	1.02057e-06
2	1	0	1	0	1	181.318	0.363298	0.362872	0.00433802	10	1.81295e-05	13	0	1.2985	1.57414e-06
2	1	0	1	0	1	181.718	0.367293	0.366877	0.00180292	10	1.946e-05	13	0	1.698	6.6145e-07
2	1	0	1	0	1	182.117	0.371289	0.370822	0.00426575	10	2.07905e-05	13	0	2.0976	1.58184e-06
2	1	0	1	0	1	182.517	0.375284	0.374839	0.00286054	10	2.21152e-05	13	0	2.4971	1.07224e-06
2	0	0	1	0	1	182.916	0.379279	0.37882	0.00286061	10	2.34293e-05	13	0	2.8966	1.08365e-06
2	1	0	1	0	1	183.316	0.383275	0.382823	0.00416094	10	2.47354e-05	13	0	3.2962	1.5929e-06
2	1	0	1	0	1	183.716	0.387271	0.386814	0.00185361	10	2.60302e-05	13	0	3.6957	7.17002e-07
2	1	0	1	0	1	184.115	0.391265	0.390817	0.00425813	10	2.73159e-05	13	0	4.0952	1.66415e-06
2	1	0	1	0	1	184.515	0.395259	0.394847	0.00257619	10	2.85904e-05	13	0	4.4947	1.0172e-06
2	0	0	1	0	1	184.914	0.399256	0.398798	0.00305744	10	2.98528e-05	13	0	4.8942	1.2193e-06
2	1	0	1	0	1	185.314	0.403251	0.40283	0.00380675	10	3.11081e-05	13	0	5.2938	1.53347e-06
2	1	0	1	0	1	185.713	0.407246	0.406826	0.00195742	10	3.23501e-05	13	0	5.6933	7.96329e-07
2	1	0	1	0	1	186.113	0.411241	0.410803	0.00421308	10	3.35751e-05	13	0	6.0928	1.73075e-06
2	1	0	1	0	1	186.512	0.415237	0.414803	0.00258415	10	3.48024e-05	13	0	6.4924	1.07191e-06
2	1	0	1	0	1	186.912	0.419232	0.418803	0.00276478	10	3.60164e-05	13	0	6.8919	1.1579e-06
2	1	0	1	0	1	187.311	0.423227	0.422815	0.00399335	10	3.72268e-05	13	0	7.2914	1.68845e-06
2	1	0	1	0	1	187.711	0.427222	0.426764	0.00188971	10	3.84272e-05	13	0	7.691	8.06459e-07
2	1	0	1	0	1	188.11	0.431218	0.430781	0.0039186	10	3.96204e-05	13	0	8.0904	1.68806e-06
2	1	0	1	0	1	188.51	0.435213	0.434746	0.00277309	10	4.08074e-05	13	0	8.49	1.20559e-06
2	1	0	1	0	1	188.909	0.439208	0.438717	0.00262007	10	4.1987e-05	13	0	8.8895	1.14947e-06
2	1	0	1	0	1	189.309	0.443204	0.442751	0.00397177	10	4.31616e-05	13	0	9.289	1.75851e-06
2	1	0	1	0	1	189.708	0.447199	0.446721	0.00193014	10	4.43314e-05	13	0	9.6886	8.62235e-07
2	0	0	1	0	1	190.014	0.449747	0.449232	-0.00122165	10	4.51031e-05	13	0	0.000000000000000E+000	-5.48804e-07
2	0	0	1	0	1	190.413	0.445751	0.445292	-0.00216826	10	4.42981e-05	13	0	0.3995	-9.65509e-07
2	0	0	1	0	1	190.813	0.441755	0.441275	-0.00340218	10	4.33881e-05	13	0	0.7991	-1.5013e-06
2	0	0	1	0	1	191.212	0.43776	0.437301	-0.00153124	10	4.24296e-05	13	0	1.1986	-6.69613e-07
2	0	0	1	0	1	191.612	0.433765	0.43326	-0.00330292	10	4.14385e-05	13	0	1.5981	-1.43102e-06
2	0	0	1	0	1	192.011	0.429769	0.429296	-0.00300276	10	4.04177e-05	13	0	1.9977	-1.28907e-06
2	0	0	1	0	1	192.411	0.425773	0.425303	-0.00176366	10	3.93722e-05	13	0	2.3972	-7.50091e-07
2	0	0	1	0	1	192.81	0.421779	0.421334	-0.00376869	10	3.83034e-05	13	0	2.7967	-1.58788e-06
2	0	0	1	0	1	193.21	0.417784	0.417303	-0.00304655	10	3.72076e-05	13	0	3.1963	-1.27134e-06
2	0	0	1	0	1	193.609	0.413788	0.413296	-0.00177853	10	3.60957e-05	13	0	3.5957	-7.3506e-07
2	0	0	1	0	1	194.009	0.409793	0.409335	-0.00390452	10	3.49604e-05	13	0	3.9953	-1.59826e-06
2	0	0	1	0	1	194.409	0.405798	0.405339	-0.0027782	10	3.38101e-05	13	0	4.3948	-1.12611e-06
2	1	0	1	0	1	194.808	0.401803	0.401365	-0.0023248	10	3.26349e-05	13	0	4.7943	-9.33096e-07
2	0	0	1	0	1	195.208	0.397807	0.39736	-0.0041751	10	3.14346e-05	13	0	5.1939	-1.65902e-06
2	0	0	1	0	1	195.607	0.393812	0.393367	-0.00194859	10	3.02131e-05	13	0	5.5934	-7.66508e-07
2	1	0	1	0	1	196.007	0.389817	0.389392	-0.00341225	10	2.89692e-05	13	0	5.9929	-1.3287e-06
2	0	0	1	0	1	196.406	0.385822	0.385397	-0.00377506	10	2.76968e-05	13	0	6.3925	-1.4549e-06
2	1	0	1	0	1	196.806	0.381825	0.381355	-0.00200209	10	2.64048e-05	13	0	6.792	-7.63506e-07
2	0	0	1	0	1	197.205	0.377831	0.377384	-0.0046157	10	2.50856e-05	13	0	7.1915	-1.74189e-06
2	0	0	1	0	1	197.605	0.373836	0.373337	-0.00205593	10	2.37364e-05	13	0	7.5911	-7.67556e-07
2	1	0	1	0	1	198.004	0.369841	0.369414	-0.00389889	10	2.23614e-05	13	0	7.9905	-1.4403e-06
2	0	0	1	0	1	198.404	0.365845	0.365403	-0.00395467	10	2.09535e-05	13	0	8.3901	-1.44505e-06
2	1	0	1	0	1	198.803	0.36185	0.361347	-0.00219552	10	1.95184e-05	13	0	8.7896	-7.93345e-07
2	1	0	1	0	1	199.203	0.357855	0.357373	-0.00503164	10	1.80506e-05	13	0	9.1891	-1.79817e-06
2	0	0	1	0	1	199.602	0.353859	0.353402	-0.00256798	10	1.65532e-05	13	0	9.5887	-9.07527e-07
2	1	0	1	0	1	199.982	0.350064	0.349581	-0.000378016	10	1.51185e-05	13	0	9.9683	-1.32147e-07
2	0	0	0	0	1	199.986	0.349989	0.349667	-0.00300049	10	1.51147e-05	13	0	9.9722	-1.04917e-06