File: ACS_Catal_2026/Figures_Na_K/main_figures/data/EC/20251112_2-148_alpha_reproducibility/20251112_2-148_005_gamma_reproducibility_Na1_02_PEIS_C01.mpt
EC-Lab ASCII FILE
Nb header lines : 63

Potentio Electrochemical Impedance Spectroscopy

Run on channel : 1 (SN 69187)
User :
CE vs. WE compliance from -10 V to 10 V
Electrode connection : standard
Potential control : Ewe
Ewe ctrl range : min = -1.00 V, max = 1.00 V
Safety Limits :
	Do not start on E overload
Acquisition started on : 11/12/2025 19:47:23.448
Loaded Setting File :  C:\Users\User\Documents\EC-Lab\Data\Yatsuzuka\20251030_2-147_gamma_reproducibility\20251030_2-147_001_gamma1_K_1.mps
Saved on :
	File : 20251112_2-148_005_gamma_reproducibility_Na1_02_PEIS_C01.mpr
	Directory : C:\Users\User\Documents\EC-Lab\Data\Yatsuzuka\20251112_2-148_alpha_reproducibility\
	Host : 192.109.209.127
Device : SP-150e (SN .003883)
Address : 192.109.209.128
EC-Lab for windows v11.52 (software)
Internet server v11.52 (firmware)
Command interpretor v11.50 (firmware)
Electrode material :
Initial state :
Electrolyte :
Comments :
Electrode surface area : 0.001 cm2
Characteristic mass : 0.001 g
Equivalent Weight : 0.000 g/eq.
Density : 0.000 g/cm3
Volume (V) : 0.001 cm3
Cycle Definition : Charge/Discharge alternance
Mode                Single sine
E (V)               0.4500
vs.                 Ref
tE (h:m:s)          0:00:0.0000
record              0
dI                  0.000
unit dI             mA
dt (s)              0.000
fi                  500.000
unit fi             kHz
ff                  1.000
unit ff             Hz
Nd                  6
Points              per decade
spacing             Logarithmic
Va (mV)             10.0
pw                  0.10
Na                  2
corr                0
E range min (V)     -1.000
E range max (V)     1.000
I Range             Auto
Bandwidth           5
nc cycles           0
goto Ns'            0
nr cycles           0
inc. cycle          0

freq/Hz	Re(Z)/Ohm	-Im(Z)/Ohm	|Z|/Ohm	Phase(Z)/deg	time/s	<Ewe>/V	<I>/mA	Cs/uF	Cp/uF	cycle number	I Range	|Ewe|/V	|I|/A	Ns	(Q-Qo)/mA.h	Re(Y)/Ohm-1	Im(Y)/Ohm-1	|Y|/Ohm-1	Phase(Y)/deg	Re(C)/nF	Im(C)/nF	|C|/nF	Phase(C)/deg	Re(M)	Im(M)	|M|	Phase(M)/deg	Re(Permittivity)	Im(Permittivity)	|Permittivity|	Phase(Permittivity)/deg	Re(Resistivity)/Ohm.cm	Im(Resistivity)/Ohm.cm	|Resistivity|/Ohm.cm	Phase(Resistivity)/deg	Re(Conductivity)/mS/cm	Im(Conductivity)/mS/cm	|Conductivity|/mS/cm	Phase(Conductivity)/deg	Tan(Delta)	Loss Angle(Delta)/deg	dq/mA.h
500019	22.5532	-1.04129	22.5772	2.64349	202.259	0.450108	0.0090614	-0.305677	-0.000650225	1	10	0.00690556	0.000305864	0	1.71385e-05	0.0442453	-0.00204282	0.0442924	-2.64349	-0.650225	14.0832	14.0982	-92.6435	0.0000000E+000	0.0000000E+000	0.0000000E+000	92.6435	0.0000000E+000	0.0000000E+000	0.0000000E+000	-92.6435	0.0000000E+000	0.0000000E+000	0.0000000E+000	2.64349	0.0000000E+000	0.0000000E+000	0.0000000E+000	-2.64349	21.6589	87.3565	1.71385e-05
339899	16.633	-1.10767	16.6698	3.80999	202.681	0.449948	0.0104366	-0.422725	-0.00186647	1	10	0.00996759	0.000597943	0	1.85933e-05	0.0598561	-0.00398613	0.0599887	-3.80999	-1.86647	28.0271	28.0892	-93.81	0.0000000E+000	0.0000000E+000	0.0000000E+000	93.81	0.0000000E+000	0.0000000E+000	0.0000000E+000	-93.81	0.0000000E+000	0.0000000E+000	0.0000000E+000	3.80999	0.0000000E+000	0.0000000E+000	0.0000000E+000	-3.80999	15.0161	86.19	1.45479e-06
231063	14.2971	-0.782113	14.3185	3.13121	203.103	0.449779	0.0113758	-0.880686	-0.00262765	1	10	0.0107736	0.00075243	0	1.98217e-05	0.0697356	-0.00381484	0.0698399	-3.13121	-2.62765	48.0336	48.1054	-93.1312	0.0000000E+000	0.0000000E+000	0.0000000E+000	93.1312	0.0000000E+000	0.0000000E+000	0.0000000E+000	-93.1312	0.0000000E+000	0.0000000E+000	0.0000000E+000	3.13121	0.0000000E+000	0.0000000E+000	0.0000000E+000	-3.13121	18.2801	86.8688	1.22833e-06
157076	13.329	-0.422401	13.3357	1.81512	203.662	0.449749	0.0115938	-2.39876	-0.0024066	1	10	0.0101046	0.00075771	0	2.15067e-05	0.074949	-0.00237516	0.0749867	-1.81512	-2.4066	75.9411	75.9792	-91.8151	0.0000000E+000	0.0000000E+000	0.0000000E+000	91.8151	0.0000000E+000	0.0000000E+000	0.0000000E+000	-91.8151	0.0000000E+000	0.0000000E+000	0.0000000E+000	1.81512	0.0000000E+000	0.0000000E+000	0.0000000E+000	-1.81512	31.5553	88.1849	1.685e-06
106786	12.9771	-0.169188	12.9782	0.746949	204.084	0.449752	0.0112976	-8.80916	-0.00149708	1	10	0.0108038	0.000832461	0	2.12747e-05	0.0770458	-0.00100448	0.0770523	-0.746949	-1.49708	114.83	114.839	-90.7469	0.0000000E+000	0.0000000E+000	0.0000000E+000	90.7469	0.0000000E+000	0.0000000E+000	0.0000000E+000	-90.7469	0.0000000E+000	0.0000000E+000	0.0000000E+000	0.746949	0.0000000E+000	0.0000000E+000	0.0000000E+000	-0.746949	76.7021	89.2531	-2.31916e-07
72595	12.8723	-0.0353003	12.8723	0.157125	204.506	0.449745	0.0115268	-62.1061	-0.000467067	1	10	0.0107396	0.000834318	0	2.2796e-05	0.0776858	-0.000213042	0.0776861	-0.157125	-0.467074	170.316	170.317	-90.1571	0.0000000E+000	0.0000000E+000	0.0000000E+000	90.1571	0.0000000E+000	0.0000000E+000	0.0000000E+000	-90.1571	0.0000000E+000	0.0000000E+000	0.0000000E+000	0.157125	0.0000000E+000	0.0000000E+000	0.0000000E+000	-0.157125	364.65	89.8429	1.52124e-06
49352.4	12.8261	0.0197431	12.8261	-0.0881948	204.928	0.449742	0.0112118	163.342	0.000387024	1	10	0.0106052	0.000826843	0	2.43393e-05	0.077966	0.000120012	0.0779661	0.0881948	0.387029	251.43	251.43	-89.9118	0.0000000E+000	0.0000000E+000	0.0000000E+000	89.9118	0.0000000E+000	0.0000000E+000	0.0000000E+000	-89.9118	0.0000000E+000	0.0000000E+000	0.0000000E+000	-0.0881948	0.0000000E+000	0.0000000E+000	0.0000000E+000	0.0881948	649.65	89.9118	1.54327e-06
33551.1	12.7982	0.0611813	12.7984	-0.273897	205.35	0.449746	0.011292	77.5346	0.00177183	1	10	0.0104604	0.000817319	0	2.60867e-05	0.078134	0.000373516	0.0781349	0.273897	1.77182	370.642	370.646	-89.7261	0.0000000E+000	0.0000000E+000	0.0000000E+000	89.7261	0.0000000E+000	0.0000000E+000	0.0000000E+000	-89.7261	0.0000000E+000	0.0000000E+000	0.0000000E+000	-0.273897	0.0000000E+000	0.0000000E+000	0.0000000E+000	0.273897	209.185	89.7261	1.74749e-06
22806.6	12.8069	0.114506	12.8074	-0.512268	205.772	0.449746	0.0120094	60.9441	0.00487156	1	10	0.0103981	0.000811884	0	2.80792e-05	0.0780768	0.000698085	0.07808	0.512268	4.87157	544.857	544.879	-89.4877	0.0000000E+000	0.0000000E+000	0.0000000E+000	89.4877	0.0000000E+000	0.0000000E+000	0.0000000E+000	-89.4877	0.0000000E+000	0.0000000E+000	0.0000000E+000	-0.512268	0.0000000E+000	0.0000000E+000	0.0000000E+000	0.512268	111.844	89.4877	1.99249e-06
15504.4	12.8127	0.167743	12.8138	-0.750067	206.194	0.449754	0.0116851	61.1958	0.010487	1	10	0.0103388	0.000806847	0	2.76861e-05	0.078034	0.00102161	0.0780407	0.750067	10.487	801.032	801.101	-89.2499	0.0000000E+000	0.0000000E+000	0.0000000E+000	89.2499	0.0000000E+000	0.0000000E+000	0.0000000E+000	-89.2499	0.0000000E+000	0.0000000E+000	0.0000000E+000	-0.750067	0.0000000E+000	0.0000000E+000	0.0000000E+000	0.750067	76.3831	89.2499	-3.93103e-07
10540.4	12.8301	0.223117	12.8321	-0.99628	206.616	0.449738	0.0115677	67.6753	0.0204599	1	10	0.0101362	0.000789909	0	2.93516e-05	0.077918	0.001355	0.0779298	0.99628	20.4599	1176.53	1176.7	-89.0037	0.0000000E+000	0.0000000E+000	0.0000000E+000	89.0037	0.0000000E+000	0.0000000E+000	0.0000000E+000	-89.0037	0.0000000E+000	0.0000000E+000	0.0000000E+000	-0.99628	0.0000000E+000	0.0000000E+000	0.0000000E+000	0.99628	57.5039	89.0037	1.66548e-06
7163.78	12.8512	0.326232	12.8554	-1.45416	207.139	0.449735	0.00992978	68.1007	0.0438567	1	10	0.0100971	0.000785436	0	3.12083e-05	0.0777635	0.00197405	0.0777886	1.45416	43.8566	1727.64	1728.2	-88.5458	0.0000000E+000	0.0000000E+000	0.0000000E+000	88.5458	0.0000000E+000	0.0000000E+000	0.0000000E+000	-88.5458	0.0000000E+000	0.0000000E+000	0.0000000E+000	-1.45416	0.0000000E+000	0.0000000E+000	0.0000000E+000	1.45416	39.3929	88.5458	1.85667e-06
4871.56	12.8614	0.435473	12.8688	-1.93923	207.607	0.44976	0.0119665	75.0224	0.0859094	1	10	0.0105281	0.00081811	0	3.25206e-05	0.0776631	0.00262959	0.0777076	1.93923	85.9092	2537.27	2538.73	-88.0608	0.0000000E+000	0.0000000E+000	0.0000000E+000	88.0608	0.0000000E+000	0.0000000E+000	0.0000000E+000	-88.0608	0.0000000E+000	0.0000000E+000	0.0000000E+000	-1.93923	0.0000000E+000	0.0000000E+000	0.0000000E+000	1.93923	29.5343	88.0608	1.31228e-06
3311.06	12.9041	0.614946	12.9188	-2.72837	208.072	0.449763	0.0123597	78.1657	0.177112	1	10	0.010763	0.000833125	0	3.33036e-05	0.077319	0.00368464	0.0774068	2.72837	177.112	3716.55	3720.76	-87.2716	0.0000000E+000	0.0000000E+000	0.0000000E+000	87.2716	0.0000000E+000	0.0000000E+000	0.0000000E+000	-87.2716	0.0000000E+000	0.0000000E+000	0.0000000E+000	-2.72837	0.0000000E+000	0.0000000E+000	0.0000000E+000	2.72837	20.9842	87.2716	7.8309e-07
2250.72	12.9387	0.871548	12.9681	-3.8536	208.537	0.449758	0.0117914	81.1349	0.366471	1	10	0.010876	0.000838674	0	3.5357e-05	0.0769382	0.00518252	0.0771125	3.8536	366.471	5440.52	5452.85	-86.1464	0.0000000E+000	0.0000000E+000	0.0000000E+000	86.1464	0.0000000E+000	0.0000000E+000	0.0000000E+000	-86.1464	0.0000000E+000	0.0000000E+000	0.0000000E+000	-3.8536	0.0000000E+000	0.0000000E+000	0.0000000E+000	3.8536	14.8457	86.1464	2.05337e-06
1530.49	12.9736	1.25547	13.0343	-5.52735	209.002	0.449766	0.0122796	82.829	0.768465	1	10	0.0109153	0.00083743	0	3.75503e-05	0.0763642	0.00738983	0.0767209	5.52735	768.465	7941.08	7978.17	-84.4726	0.0000000E+000	0.0000000E+000	0.0000000E+000	84.4726	0.0000000E+000	0.0000000E+000	0.0000000E+000	-84.4726	0.0000000E+000	0.0000000E+000	0.0000000E+000	-5.52735	0.0000000E+000	0.0000000E+000	0.0000000E+000	5.52735	10.3337	84.4726	2.19331e-06
1040.33	13.0311	1.7647	13.1501	-7.71218	209.467	0.44976	0.0119442	86.6917	1.56122	1	10	0.0109399	0.000831931	0	3.85129e-05	0.0753575	0.010205	0.0760453	7.71218	1561.21	11528.5	11633.8	-82.2878	0.0000000E+000	0.0000000E+000	0.0000000E+000	82.2878	0.0000000E+000	0.0000000E+000	0.0000000E+000	-82.2878	0.0000000E+000	0.0000000E+000	0.0000000E+000	-7.71218	0.0000000E+000	0.0000000E+000	0.0000000E+000	7.71218	7.38433	82.2878	9.62548e-07
707.036	13.1087	2.53688	13.3519	-10.9528	209.933	0.449759	0.0118547	88.7318	3.20325	1	10	0.0109494	0.000820062	0	4.05015e-05	0.0735313	0.0142302	0.0748956	10.9528	3203.25	16552	16859.1	-79.0472	0.0000000E+000	0.0000000E+000	0.0000000E+000	79.0472	0.0000000E+000	0.0000000E+000	0.0000000E+000	-79.0472	0.0000000E+000	0.0000000E+000	0.0000000E+000	-10.9528	0.0000000E+000	0.0000000E+000	0.0000000E+000	10.9528	5.16726	79.0472	1.98865e-06
480.769	13.2178	3.59292	13.6974	-15.207	210.398	0.449762	0.0116423	92.1373	6.33948	1	10	0.0109557	0.000799834	0	4.22833e-05	0.0704501	0.0191501	0.0730064	15.207	6339.48	23322	24168.2	-74.793	0.0000000E+000	0.0000000E+000	0.0000000E+000	74.793	0.0000000E+000	0.0000000E+000	0.0000000E+000	-74.793	0.0000000E+000	0.0000000E+000	0.0000000E+000	-15.207	0.0000000E+000	0.0000000E+000	0.0000000E+000	15.207	3.67884	74.793	1.78178e-06
326.778	13.348	5.14218	14.3042	-21.0687	210.861	0.449753	0.0114783	94.7154	12.2402	1	10	0.0109486	0.000765413	0	4.41778e-05	0.0652361	0.0251316	0.0699096	21.0687	12240.2	31772.8	34049	-68.9313	0.0000000E+000	0.0000000E+000	0.0000000E+000	68.9313	0.0000000E+000	0.0000000E+000	0.0000000E+000	-68.9313	0.0000000E+000	0.0000000E+000	0.0000000E+000	-21.0687	0.0000000E+000	0.0000000E+000	0.0000000E+000	21.0687	2.59578	68.9313	1.89449e-06
222.061	13.4988	7.43103	15.4091	-28.8325	211.322	0.449754	0.0118156	96.4493	22.4309	1	10	0.0109409	0.000710033	0	4.49527e-05	0.0568518	0.0312966	0.0648969	28.8325	22430.8	40746.7	46512.8	-61.1675	0.0000000E+000	0.0000000E+000	0.0000000E+000	61.1675	0.0000000E+000	0.0000000E+000	0.0000000E+000	-61.1675	0.0000000E+000	0.0000000E+000	0.0000000E+000	-28.8325	0.0000000E+000	0.0000000E+000	0.0000000E+000	28.8325	1.81655	61.1675	7.74925e-07
151.015	13.7389	10.6799	17.4017	-37.8595	211.784	0.449757	0.0116833	98.6809	37.1693	1	10	0.0109437	0.000628888	0	4.66613e-05	0.0453701	0.0352683	0.0574657	37.8595	37169.3	47815.7	60563.2	-52.1405	0.0000000E+000	0.0000000E+000	0.0000000E+000	52.1405	0.0000000E+000	0.0000000E+000	0.0000000E+000	-52.1405	0.0000000E+000	0.0000000E+000	0.0000000E+000	-37.8595	0.0000000E+000	0.0000000E+000	0.0000000E+000	37.8595	1.28643	52.1405	1.70854e-06
102.667	14.0316	15.4153	20.8451	-47.6904	212.259	0.449766	0.0115677	100.562	54.9962	1	10	0.0109373	0.000524693	0	4.8365e-05	0.0322923	0.0354769	0.0479729	47.6904	54996.2	50059.5	74367.6	-42.3096	0.0000000E+000	0.0000000E+000	0.0000000E+000	42.3096	0.0000000E+000	0.0000000E+000	0.0000000E+000	-42.3096	0.0000000E+000	0.0000000E+000	0.0000000E+000	-47.6904	0.0000000E+000	0.0000000E+000	0.0000000E+000	47.6904	0.910236	42.3096	1.70374e-06
69.7545	14.4597	22.3799	26.6447	-57.1334	212.98	0.449751	0.000470909	101.951	71.9255	1	11	0.0109678	0.000411631	0	4.9466e-05	0.0203674	0.0315235	0.0375309	57.1334	71925.5	46471.2	85632.1	-32.8666	0.0000000E+000	0.0000000E+000	0.0000000E+000	32.8666	0.0000000E+000	0.0000000E+000	0.0000000E+000	-32.8666	0.0000000E+000	0.0000000E+000	0.0000000E+000	-57.1334	0.0000000E+000	0.0000000E+000	0.0000000E+000	57.1334	0.646102	32.8666	1.10096e-06
47.4443	15.0582	32.4043	35.7322	-65.0759	213.424	0.449746	0.00034026	103.522	85.1372	1	11	0.0109424	0.000306234	0	4.92094e-05	0.0117938	0.0253795	0.027986	65.0759	85137.2	39563	93880.7	-24.9241	0.0000000E+000	0.0000000E+000	0.0000000E+000	24.9241	0.0000000E+000	0.0000000E+000	0.0000000E+000	-24.9241	0.0000000E+000	0.0000000E+000	0.0000000E+000	-65.0759	0.0000000E+000	0.0000000E+000	0.0000000E+000	65.0759	0.464697	24.9241	-2.56577e-07
32.2387	15.8629	46.98	49.5858	-71.3426	213.86	0.449755	0.000234589	105.083	94.3283	1	11	0.0109316	0.000220458	0	4.93433e-05	0.00645161	0.0191073	0.0201671	71.3426	94328.3	31850.1	99560.3	-18.6574	0.0000000E+000	0.0000000E+000	0.0000000E+000	18.6574	0.0000000E+000	0.0000000E+000	0.0000000E+000	-18.6574	0.0000000E+000	0.0000000E+000	0.0000000E+000	-71.3426	0.0000000E+000	0.0000000E+000	0.0000000E+000	71.3426	0.337652	18.6574	1.33935e-07
21.9144	17.073	68.145	70.2512	-75.9347	214.291	0.449762	0.000149043	106.575	100.28	1	11	0.0109308	0.000155595	0	4.89509e-05	0.0034594	0.0138079	0.0142346	75.9347	100280	25124.1	103380	-14.0653	0.0000000E+000	0.0000000E+000	0.0000000E+000	14.0653	0.0000000E+000	0.0000000E+000	0.0000000E+000	-14.0653	0.0000000E+000	0.0000000E+000	0.0000000E+000	-75.9347	0.0000000E+000	0.0000000E+000	0.0000000E+000	75.9347	0.250539	14.0653	-3.92394e-07
14.9093	19.9099	98.7308	100.718	-78.5987	214.758	0.449761	0.000469223	108.121	103.896	1	11	0.0109169	0.00010839	0	4.89147e-05	0.00196269	0.00973276	0.00992868	78.5987	103896	20951.4	105987	-11.4013	0.0000000E+000	0.0000000E+000	0.0000000E+000	11.4013	0.0000000E+000	0.0000000E+000	0.0000000E+000	-11.4013	0.0000000E+000	0.0000000E+000	0.0000000E+000	-78.5987	0.0000000E+000	0.0000000E+000	0.0000000E+000	78.5987	0.201658	11.4013	-3.62598e-08
10.1329	21.338	143.868	145.442	-81.5636	215.468	0.449767	-3.29539e-05	109.174	106.824	1	12	0.0109431	7.52404e-05	0	4.97594e-05	0.00100873	0.00680121	0.00687561	81.5636	106824	15843.8	107993	-8.4364	0.0000000E+000	0.0000000E+000	0.0000000E+000	8.4364	0.0000000E+000	0.0000000E+000	0.0000000E+000	-8.4364	0.0000000E+000	0.0000000E+000	0.0000000E+000	-81.5636	0.0000000E+000	0.0000000E+000	0.0000000E+000	81.5636	0.148316	8.4364	8.44729e-07
6.88933	25.1025	209.414	210.913	-83.1646	215.821	0.449757	0.000340446	110.316	108.753	1	12	0.0109198	5.17741e-05	0	4.94876e-05	0.000564301	0.00470759	0.00474129	83.1646	108753	13036.3	109532	-6.83545	0.0000000E+000	0.0000000E+000	0.0000000E+000	6.83545	0.0000000E+000	0.0000000E+000	0.0000000E+000	-6.83545	0.0000000E+000	0.0000000E+000	0.0000000E+000	-83.1646	0.0000000E+000	0.0000000E+000	0.0000000E+000	83.1646	0.11987	6.83545	-2.71843e-07
4.68375	29.2761	302.351	303.765	-84.4694	216.318	0.449771	-1.36233e-05	112.386	111.343	1	12	0.0109189	3.59452e-05	0	4.93822e-05	0.000317276	0.00327669	0.00329201	84.4694	111343	10781.1	111863	-5.5306	0.0000000E+000	0.0000000E+000	0.0000000E+000	5.5306	0.0000000E+000	0.0000000E+000	0.0000000E+000	-5.5306	0.0000000E+000	0.0000000E+000	0.0000000E+000	-84.4694	0.0000000E+000	0.0000000E+000	0.0000000E+000	84.4694	0.0968281	5.53061	-1.05388e-07
3.18099	36.1358	440.255	441.736	-85.3077	217.02	0.449765	-3.6367e-05	113.646	112.885	1	12	0.0109227	2.47268e-05	0	4.98335e-05	0.000185188	0.00225621	0.0022638	85.3077	112885	9265.56	113265	-4.69228	0.0000000E+000	0.0000000E+000	0.0000000E+000	4.69228	0.0000000E+000	0.0000000E+000	0.0000000E+000	-4.69228	0.0000000E+000	0.0000000E+000	0.0000000E+000	-85.3077	0.0000000E+000	0.0000000E+000	0.0000000E+000	85.3077	0.0820792	4.69228	4.51286e-07
2.16533	46.8452	637.833	639.551	-85.7995	218.543	0.449777	0.000116039	115.236	114.618	1	13	0.0109265	1.70847e-05	0	4.97957e-05	0.000114529	0.0015594	0.0015636	85.7995	114618	8418.05	114927	-4.20051	0.0000000E+000	0.0000000E+000	0.0000000E+000	4.20051	0.0000000E+000	0.0000000E+000	0.0000000E+000	-4.20051	0.0000000E+000	0.0000000E+000	0.0000000E+000	-85.7995	0.0000000E+000	0.0000000E+000	0.0000000E+000	85.7995	0.0734443	4.2005	-3.77915e-08
1.46962	57.6989	932.453	934.236	-86.4591	220.013	0.44977	9.33398e-05	116.142	115.699	1	13	0.0109202	1.16889e-05	0	4.94952e-05	6.6108e-05	0.00106835	0.00107039	86.4591	115699	7159.28	115920	-3.54087	0.0000000E+000	0.0000000E+000	0.0000000E+000	3.54087	0.0000000E+000	0.0000000E+000	0.0000000E+000	-3.54087	0.0000000E+000	0.0000000E+000	0.0000000E+000	-86.4591	0.0000000E+000	0.0000000E+000	0.0000000E+000	86.4591	0.0618786	3.54086	-3.00418e-07
1.00006	85.9917	1344.36	1347.11	-86.3401	222.153	0.449773	3.85136e-05	118.38	117.897	1	13	0.0109196	8.10596e-06	0	4.94068e-05	4.73864e-05	0.000740819	0.000742333	86.3401	117897	7541.3	118138	-3.65993	0.0000000E+000	0.0000000E+000	0.0000000E+000	3.65993	0.0000000E+000	0.0000000E+000	0.0000000E+000	-3.65993	0.0000000E+000	0.0000000E+000	0.0000000E+000	-86.3401	0.0000000E+000	0.0000000E+000	0.0000000E+000	86.3401	0.0639649	3.65994	-8.84515e-08