File: ACS_Catal_2026/Figures_Na_K/main_figures/data/EC/20251112_2-148_alpha_reproducibility/20251112_2-148_001_alpha_reproducibility_1_Na2_03_CVA_C01.mpt
EC-Lab ASCII FILE
Nb header lines : 66

Cyclic Voltammetry Advanced

Run on channel : 1 (SN 69187)
User :
CE vs. WE compliance from -10 V to 10 V
Electrode connection : standard
Potential control : Ewe
Ewe ctrl range : min = -1.00 V, max = 1.00 V
Safety Limits :
	Do not start on E overload
Acquisition started on : 11/12/2025 15:13:50.824
Loaded Setting File :  C:\Users\User\Documents\EC-Lab\Data\Yatsuzuka\20251030_2-147_gamma_reproducibility\20251030_2-147_001_gamma1_K_1.mps
Saved on :
	File : 20251112_2-148_001_alpha_reproducibility_1_Na2_03_CVA_C01.mpr
	Directory : C:\Users\User\Documents\EC-Lab\Data\Yatsuzuka\20251112_2-148_alpha_reproducibility\
	Host : 192.109.209.127
Device : SP-150e (SN .003883)
Address : 192.109.209.128
EC-LAB for windows v11.52 (software)
Internet server v11.52 (firmware)
Command interpretor v11.50 (firmware)
Electrode material :
Initial state :
Electrolyte :
Comments :
Electrode surface area : 0.001 cm2
Characteristic mass : 0.001 g
Equivalent Weight : 0.000 g/eq.
Density : 0.000 g/cm3
Volume (V) : 0.001 cm3
Cycle Definition : Charge/Discharge alternance
Ei (V)              0.450
vs.                 Ref
ti (h:m:s)          0:00:10.0000
dti (s)             0.0000
dE/dt               5.000
dE/dt unit          mV/s
E1 (V)              0.700
vs.                 Ref
t1 (h:m:s)          0:00:0.0000
dt1 (s)             0.1000
Step percent        50
N                   10
E range min (V)     -1.000
E range max (V)     1.000
I Range             10 mA
I Range min         Unset
I Range max         Unset
I Range init        Unset
Bandwidth           5
E2 (V)              0.450
vs.                 Ref
t2 (h:m:s)          0:00:0.0000
dt2 (s)             0.1000
nc cycles           14
nr                  1
Reverse Scan        0
Ef (V)              0.000
vs.                 Eoc
tf (h:m:s)          0:00:0.0000
dtf (s)             0.1000

mode	ox/red	error	control changes	Ns changes	counter inc.	time/s	control/V	Ewe/V	<I>/mA	cycle number	(Q-Qo)/C	I Range	Ns	step time/s	Pwe/W	Rwe/Ohm
2	0	0	0	0	0	231.667	0.449961	0.449831	-0.00597787	1	0.0000000E+000	11	0	0.000000000000000E+000	-2.68903e-06	75249.3
2	1	0	1	0	0	234.518	0.464216	0.463938	0.0119841	1	3.66771e-05	11	0	2.796	5.55989e-06	38712.7
2	1	0	1	0	0	237.414	0.478696	0.478479	0.0139759	1	7.46174e-05	11	0	5.692	6.68717e-06	34236.1
2	1	0	1	0	0	240.31	0.493176	0.492951	0.0147758	1	0.000112316	11	0	8.588	7.28373e-06	33362.1
2	1	0	1	0	0	243.206	0.507656	0.507453	0.0136187	1	0.000149915	11	0	11.484	6.91082e-06	37261.6
2	1	0	1	0	0	246.102	0.522136	0.521901	0.0120307	1	0.000187423	11	0	14.38	6.27883e-06	43380.8
2	0	0	1	0	0	248.998	0.536616	0.536401	0.0113311	1	0.000224959	11	0	17.276	6.078e-06	47338.9
2	0	0	1	0	0	251.894	0.551096	0.550839	0.0115702	1	0.000263122	11	0	20.172	6.37334e-06	47608.4
2	1	0	1	0	0	254.79	0.565576	0.5654	0.0121939	1	0.000302759	11	0	23.068	6.89444e-06	46367.4
2	1	0	1	0	0	257.686	0.580056	0.5798	0.0134536	1	0.000344812	11	0	25.964	7.80037e-06	43096.4
2	1	0	1	0	0	260.582	0.594535	0.594278	0.0157854	1	0.000391709	11	0	28.8599	9.38091e-06	37647.3
2	1	0	1	0	0	263.478	0.609015	0.608815	0.0204748	1	0.000447823	11	0	31.7559	1.24654e-05	29734.8
2	1	0	1	0	0	266.374	0.623495	0.623318	0.0298498	1	0.00052109	11	0	34.6519	1.86059e-05	20881.8
2	1	0	1	0	0	269.27	0.637975	0.637817	0.0464539	1	0.000626731	11	0	37.5479	2.96291e-05	13730.1
2	1	0	1	0	0	272.166	0.652455	0.652207	0.0750944	1	0.000794382	11	0	40.4439	4.89771e-05	8685.16
2	1	0	1	0	0	275.062	0.666935	0.666731	0.129368	1	0.00107977	11	0	43.3398	8.62534e-05	5153.77
2	1	0	1	0	0	277.958	0.681415	0.681191	0.228646	1	0.00158249	11	0	46.2358	0.000155751	2979.24
2	1	0	1	0	0	280.854	0.695895	0.695699	0.392166	1	0.00246162	11	0	49.1318	0.000272829	1773.99
2	1	0	1	0	0	283.533	0.690702	0.690534	0.301577	1	0.00348713	11	0	51.8103	0.000208249	2289.75
2	1	0	1	0	0	286.429	0.676222	0.676015	0.161606	1	0.00413913	11	0	54.7063	0.000109248	4183.12
2	1	0	1	0	0	289.325	0.661742	0.661559	0.081889	1	0.00448177	11	0	57.6023	5.41744e-05	8078.72
2	1	0	1	0	0	292.221	0.647262	0.647033	0.0384021	1	0.00465153	11	0	60.4983	2.48475e-05	16848.9
2	1	0	1	0	0	295.117	0.632782	0.632569	0.0166187	1	0.00472918	11	0	63.3943	1.05125e-05	38063.7
2	1	0	1	0	0	298.012	0.618303	0.618054	0.00606474	1	0.0047578	11	0	66.2902	3.74834e-06	101909
2	1	0	1	0	0	300.908	0.603823	0.603609	-0.00049489	1	0.00476032	11	0	0.3994	-2.9872e-07	1.21968e+06
2	0	0	1	0	0	303.804	0.589343	0.58913	-0.00440401	1	0.00474892	11	0	3.2954	-2.59454e-06	133771
2	0	0	1	0	0	306.7	0.574863	0.574656	-0.007491	1	0.00472954	11	0	6.1914	-4.30475e-06	76713
2	0	0	1	0	0	309.596	0.560382	0.560107	-0.00953341	1	0.00470549	11	0	9.0874	-5.33973e-06	58752.1
2	0	0	1	0	0	312.492	0.545902	0.545658	-0.0103054	1	0.00467868	11	0	11.9834	-5.62323e-06	52948.7
2	0	0	1	0	0	315.388	0.531423	0.531231	-0.0103506	1	0.00465017	11	0	14.8794	-5.49856e-06	51323.7
2	0	0	1	0	0	318.284	0.516942	0.51675	-0.0115569	1	0.00462027	11	0	17.7754	-5.97202e-06	44713.7
2	0	0	0	0	0	321.18	0.502463	0.5022	-0.0122745	1	0.00458931	11	0	20.6713	-6.16426e-06	40914.1
2	0	0	0	0	0	324.076	0.487983	0.487787	-0.0127071	1	0.00455749	11	0	23.5673	-6.19837e-06	38386.9
2	0	0	0	0	0	326.972	0.473503	0.473265	-0.0127612	1	0.00452465	11	0	26.4633	-6.03941e-06	37086.3
2	0	0	0	0	0	329.868	0.459023	0.458818	-0.0133511	1	0.00449054	11	0	29.3593	-6.12574e-06	34365.4
2	0	0	0	0	1	332.622	0.454779	0.454554	0.00991962	2	0.0044786	11	0	0.8988	4.509e-06	45823.7
2	1	0	1	0	1	335.518	0.469259	0.469076	0.0116347	2	0.00451307	11	0	3.7947	5.45758e-06	40316.9
2	1	0	1	0	1	338.414	0.483739	0.483531	0.0132591	2	0.00454831	11	0	6.6907	6.41121e-06	36467.7
2	1	0	1	0	1	341.31	0.498219	0.497987	0.0137757	2	0.00458354	11	0	9.5867	6.86011e-06	36149.7
2	1	0	1	0	1	344.206	0.512699	0.512494	0.0129053	2	0.00461883	11	0	12.4827	6.61391e-06	39711.8
2	1	0	1	0	1	347.102	0.527179	0.526979	0.011092	2	0.00465403	11	0	15.3787	5.84526e-06	47509.7
2	0	0	1	0	1	349.998	0.541659	0.541451	0.0104422	2	0.00468926	11	0	18.2747	5.65393e-06	51852.2
2	0	0	1	0	1	352.894	0.556139	0.555918	0.0111496	2	0.00472516	11	0	21.1707	6.19829e-06	49859.7
2	1	0	1	0	1	355.79	0.570619	0.570391	0.0129265	2	0.00476266	11	0	24.0667	7.37316e-06	44125.6
2	1	0	1	0	1	358.686	0.585098	0.584878	0.0145731	2	0.00480298	11	0	26.9626	8.52348e-06	40134.2
2	1	0	1	0	1	361.582	0.599578	0.599374	0.0183169	2	0.00484901	11	0	29.8586	1.09787e-05	32722.5
2	1	0	1	0	1	364.478	0.614058	0.613786	0.0239015	2	0.00490593	11	0	32.7546	1.46704e-05	25679.8
2	1	0	1	0	1	367.374	0.628538	0.628361	0.0333186	2	0.00498363	11	0	35.6506	2.09361e-05	18859.2
2	1	0	1	0	1	370.27	0.643018	0.642836	0.0502135	2	0.00510045	11	0	38.5466	3.2279e-05	12802.1
2	1	0	1	0	1	373.165	0.657498	0.657258	0.0844653	2	0.00529288	11	0	41.4425	5.55155e-05	7781.39
2	1	0	1	0	1	376.061	0.671978	0.671769	0.152213	2	0.0056301	11	0	44.3385	0.000102252	4413.35
2	1	0	1	0	1	378.957	0.686457	0.686267	0.271542	2	0.00623116	11	0	47.2345	0.00018635	2527.3
2	1	0	1	0	1	381.671	0.699964	0.699669	0.44994	2	0.00719183	11	0	49.948	0.000314809	1555.03
2	1	0	1	0	1	384.522	0.685708	0.685522	0.24144	2	0.00813037	11	0	52.7991	0.000165512	2839.31
2	1	0	1	0	1	387.418	0.671229	0.67099	0.127098	2	0.00864802	11	0	55.695	8.52818e-05	5279.29
2	1	0	1	0	1	390.314	0.656749	0.656523	0.063158	2	0.00891278	11	0	58.591	4.14647e-05	10394.9
2	1	0	1	0	1	393.21	0.642269	0.642042	0.0288647	2	0.00903977	11	0	61.487	1.85323e-05	22243.2
2	1	0	1	0	1	396.106	0.627789	0.627531	0.0111731	2	0.00909435	11	0	64.383	7.01148e-06	56164.4
2	1	0	1	0	1	399.002	0.613309	0.613055	0.00203007	2	0.00911074	11	0	67.279	1.24454e-06	301987
2	1	0	1	0	1	401.898	0.59883	0.59857	-0.00248359	2	0.0091065	11	0	1.7974	-1.4866e-06	241010
2	1	0	1	0	1	404.794	0.58435	0.584173	-0.00488363	2	0.00909139	11	0	4.6934	-2.85289e-06	119618
2	1	0	1	0	1	407.69	0.56987	0.569715	-0.00653591	2	0.00907007	11	0	7.5894	-3.72361e-06	87166.9
2	1	0	1	0	1	410.586	0.55539	0.555182	-0.00835299	2	0.00904483	11	0	10.4854	-4.63743e-06	66465.1
2	0	0	1	0	1	413.482	0.54091	0.540621	-0.0104361	2	0.00901713	11	0	13.3814	-5.64197e-06	51803
2	0	0	1	0	1	416.378	0.526429	0.526239	-0.0117504	2	0.00898789	11	0	16.2774	-6.18353e-06	44784.7
2	0	0	1	0	1	419.274	0.51195	0.511707	-0.0121035	2	0.00895748	11	0	19.1734	-6.19343e-06	42277.7
2	0	0	1	0	1	422.17	0.497469	0.497252	-0.0110945	2	0.00892593	11	0	22.0694	-5.51678e-06	44819.5
2	0	0	0	0	1	425.066	0.48299	0.482743	-0.0099989	2	0.00889357	11	0	24.9653	-4.8269e-06	48279.6
2	1	0	0	0	1	427.962	0.46851	0.468299	-0.00981721	2	0.00886033	11	0	27.8613	-4.59739e-06	47701.8
2	0	0	0	0	1	430.858	0.45403	0.45378	-0.0120737	2	0.00882582	11	0	30.7573	-5.47881e-06	37584.1
2	0	0	0	0	0	433.611	0.459772	0.459573	0.00990239	3	0.00883719	11	0	1.8974	4.55087e-06	46410.4
2	0	0	0	0	0	436.507	0.474252	0.473995	0.0115604	3	0.00887177	11	0	4.7934	5.47957e-06	41001.6
2	1	0	1	0	0	439.403	0.488732	0.48852	0.0129527	3	0.00890687	11	0	7.6893	6.32766e-06	37715.6
2	1	0	1	0	0	442.299	0.503212	0.502948	0.0135448	3	0.00894179	11	0	10.5853	6.81231e-06	37132.3
2	1	0	1	0	0	445.195	0.517692	0.517457	0.012786	3	0.00897668	11	0	13.4813	6.61619e-06	40470.6
2	1	0	1	0	0	448.091	0.532172	0.531962	0.0110662	3	0.00901164	11	0	16.3773	5.88681e-06	48070.8
2	0	0	1	0	0	450.987	0.546652	0.54644	0.0105858	3	0.0090468	11	0	19.2733	5.78452e-06	51619.9
2	1	0	1	0	0	453.883	0.561132	0.560863	0.0121826	3	0.00908274	11	0	22.1693	6.83279e-06	46037.8
2	1	0	1	0	0	456.779	0.575612	0.575321	0.0147529	3	0.00912064	11	0	25.0653	8.48766e-06	38997.1
2	1	0	1	0	0	459.675	0.590092	0.589876	0.0167908	3	0.0091623	11	0	27.9613	9.90447e-06	35131
2	1	0	1	0	0	462.571	0.604572	0.604371	0.0199575	3	0.00921067	11	0	30.8573	1.20617e-05	30282.9
2	1	0	1	0	0	465.467	0.619051	0.61883	0.0260102	3	0.00927239	11	0	33.7532	1.60959e-05	23791.9
2	1	0	1	0	0	468.363	0.633531	0.63334	0.0376749	3	0.00935949	11	0	36.6492	2.3861e-05	16810.7
2	1	0	1	0	0	471.259	0.648011	0.64782	0.0607586	3	0.009495	11	0	39.5452	3.93606e-05	10662.2
2	1	0	1	0	0	474.155	0.662491	0.662251	0.104994	3	0.00972424	11	0	42.4412	6.95323e-05	6307.52
2	1	0	1	0	0	477.051	0.676971	0.676717	0.186761	3	0.0101313	11	0	45.3371	0.000126384	3623.44
2	1	0	1	0	0	479.947	0.69145	0.691235	0.327089	3	0.0108559	11	0	48.2331	0.000226095	2113.29
2	1	0	1	0	0	482.615	0.695196	0.694972	0.357217	3	0.0118871	11	0	50.9017	0.000248256	1945.52
2	1	0	1	0	0	485.511	0.680715	0.680464	0.193693	3	0.0126613	11	0	53.7977	0.000131801	3513.11
2	1	0	1	0	0	488.407	0.666236	0.666015	0.099536	3	0.0130715	11	0	56.6937	6.62925e-05	6691.2
2	1	0	1	0	0	491.303	0.651756	0.651557	0.0489781	3	0.0132767	11	0	59.5896	3.1912e-05	13303
2	1	0	1	0	0	494.199	0.637276	0.63706	0.0221873	3	0.013372	11	0	62.4856	1.41347e-05	28712.8
2	1	0	1	0	0	497.095	0.622796	0.622571	0.00805141	3	0.0134098	11	0	65.3816	5.01258e-06	77324.4
2	1	0	1	0	0	499.991	0.608316	0.608143	0.000468963	3	0.0134172	11	0	0.000000000000000E+000	2.85197e-07	1.29678e+06
2	1	0	1	0	0	502.887	0.593836	0.593651	-0.00410826	3	0.0134082	11	0	2.4966	-2.43887e-06	144502
2	1	0	1	0	0	505.783	0.579357	0.579121	-0.00666713	3	0.0133902	11	0	5.3925	-3.86108e-06	86862.1
2	1	0	1	0	0	508.679	0.564877	0.564696	-0.00769893	3	0.013367	11	0	8.2885	-4.34756e-06	73347.4
2	1	0	1	0	0	511.575	0.550397	0.55017	-0.00790249	3	0.0133407	11	0	11.1845	-4.34771e-06	69619.8
2	1	0	1	0	0	514.471	0.535917	0.535683	-0.00828349	3	0.0133123	11	0	14.0805	-4.43732e-06	64668.7
2	1	0	1	0	0	517.367	0.521437	0.5212	-0.00862841	3	0.0132827	11	0	16.9765	-4.49713e-06	60405.2
2	1	0	1	0	0	520.263	0.506957	0.506724	-0.00915397	3	0.0132521	11	0	19.8725	-4.63853e-06	55355.6
2	1	0	1	0	0	523.159	0.492476	0.49225	-0.00983412	3	0.0132203	11	0	22.7685	-4.84085e-06	50055.3
2	1	0	1	0	0	526.055	0.477996	0.47778	-0.010816	3	0.0131875	11	0	25.6645	-5.16768e-06	44173.3
2	0	0	0	0	0	528.951	0.463517	0.463277	-0.011613	3	0.0131538	11	0	28.5604	-5.38001e-06	39893.1
2	0	0	0	0	1	531.705	0.450285	0.450086	0.00436357	4	0.0131215	11	0	0.000000000000000E+000	1.96398e-06	103146
2	1	0	0	0	1	534.601	0.464765	0.464554	0.0100082	4	0.0131543	11	0	2.896	4.64935e-06	46417.4
2	1	0	0	0	1	537.497	0.479245	0.479051	0.0102316	4	0.0131889	11	0	5.792	4.90148e-06	46820.5
2	1	0	0	0	1	540.393	0.493725	0.493502	0.0102455	4	0.013224	11	0	8.688	5.05617e-06	48167.7
2	1	0	0	0	1	543.289	0.508205	0.508018	0.0127406	4	0.013259	11	0	11.584	6.47247e-06	39873.9
2	1	0	1	0	1	546.184	0.522684	0.522446	0.0135576	4	0.0132936	11	0	14.4799	7.08309e-06	38535.3
2	1	0	1	0	1	549.08	0.537165	0.536905	0.0122787	4	0.0133285	11	0	17.3759	6.59248e-06	43726.6
2	1	0	1	0	1	551.976	0.551645	0.551451	0.0113023	4	0.0133638	11	0	20.2719	6.23266e-06	48791
2	1	0	1	0	1	554.872	0.566125	0.565955	0.01112	4	0.0134001	11	0	23.1679	6.29344e-06	50895.2
2	1	0	1	0	1	557.768	0.580605	0.580364	0.0121711	4	0.0134388	11	0	26.0639	7.06364e-06	47684
2	1	0	1	0	1	560.664	0.595085	0.594847	0.0145266	4	0.013482	11	0	28.9599	8.64114e-06	40948.7
2	1	0	1	0	1	563.56	0.609565	0.609392	0.0191363	4	0.0135337	11	0	31.8559	1.16615e-05	31844.8
2	1	0	1	0	1	566.456	0.624045	0.623809	0.0270691	4	0.0136017	11	0	34.7519	1.6886e-05	23045.1
2	1	0	1	0	1	569.352	0.638524	0.638303	0.0418318	4	0.0137009	11	0	37.6478	2.67013e-05	15258.8
2	1	0	1	0	1	572.248	0.653004	0.652761	0.0702681	4	0.0138604	11	0	40.5438	4.58683e-05	9289.58
2	1	0	1	0	1	575.144	0.667484	0.667244	0.124707	4	0.0141362	11	0	43.4398	8.32101e-05	5350.49
2	1	0	1	0	1	578.04	0.681964	0.681782	0.223976	4	0.0146301	11	0	46.3358	0.000152703	3044
2	1	0	1	0	1	580.936	0.696444	0.696209	0.388186	4	0.0155019	11	0	49.2318	0.000270259	1793.49
2	1	0	1	0	1	583.605	0.690202	0.689964	0.28702	4	0.0164899	11	0	51.9003	0.000198033	2403.89
2	1	0	1	0	1	586.501	0.675722	0.675467	0.153086	4	0.0171111	11	0	54.7963	0.000103404	4412.34
2	1	0	1	0	1	589.397	0.661242	0.660993	0.0766345	4	0.0174343	11	0	57.6923	5.06549e-05	8625.27
2	1	0	1	0	1	592.293	0.646762	0.64659	0.0352048	4	0.0175919	11	0	60.5883	2.2763e-05	18366.5
2	1	0	1	0	1	595.189	0.632283	0.632087	0.0133954	4	0.0176619	11	0	63.4842	8.46706e-06	47186.8
2	0	0	1	0	1	598.085	0.617803	0.617558	0.00195829	4	0.0176863	11	0	66.3802	1.20936e-06	315357
2	0	0	1	0	1	600.981	0.603323	0.603123	-0.00422194	4	0.0176864	11	0	0.5992	-2.54635e-06	142854
2	0	0	1	0	1	603.877	0.588843	0.588611	-0.00761967	4	0.0176735	11	0	3.4952	-4.48503e-06	77248.9
2	0	0	1	0	1	606.773	0.574363	0.574103	-0.00928415	4	0.0176532	11	0	6.3912	-5.33006e-06	61836.9
2	0	0	1	0	1	609.669	0.559884	0.559688	-0.00997842	4	0.0176287	11	0	9.2871	-5.58481e-06	56089.9
2	0	0	1	0	1	612.565	0.545404	0.545209	-0.00987801	4	0.0176018	11	0	12.1831	-5.38558e-06	55194.2
2	0	0	1	0	1	615.461	0.530924	0.530756	-0.00980851	4	0.0175732	11	0	15.0791	-5.20592e-06	54111.8
2	0	0	1	0	1	618.357	0.516444	0.516238	-0.00992063	4	0.0175432	11	0	17.9751	-5.1214e-06	52036.8
2	0	0	1	0	1	621.253	0.501964	0.501697	-0.00991132	4	0.0175122	11	0	20.8711	-4.97248e-06	50618.6
2	0	0	1	0	1	624.149	0.487484	0.487293	-0.00998118	4	0.0174804	11	0	23.7671	-4.86376e-06	48821.2
2	0	0	1	0	1	627.045	0.473004	0.472769	-0.0102705	4	0.0174474	11	0	26.6631	-4.85558e-06	46031.8
2	0	0	1	0	1	629.941	0.458523	0.458261	-0.0103818	4	0.0174133	11	0	29.5591	-4.75759e-06	44140.6
2	1	0	1	0	0	632.694	0.455279	0.455049	0.0129574	5	0.0174038	11	0	0.9987	5.89623e-06	35119
2	1	0	0	0	0	635.59	0.469758	0.469541	0.0135009	5	0.017438	11	0	3.8946	6.33923e-06	34778.5
2	1	0	0	0	0	638.486	0.484238	0.48397	0.0136695	5	0.0174729	11	0	6.7906	6.61563e-06	35405.1
2	1	0	0	0	0	641.382	0.498718	0.498498	0.013472	5	0.0175079	11	0	9.6866	6.71574e-06	37002.6
2	1	0	0	0	0	644.278	0.513198	0.512918	0.0129296	5	0.0175429	11	0	12.5826	6.6318e-06	39670.2
2	1	0	1	0	0	647.174	0.527678	0.52749	0.0126456	5	0.0175776	11	0	15.4785	6.67042e-06	41713.3
2	1	0	1	0	0	650.07	0.542158	0.541915	0.012582	5	0.0176126	11	0	18.3745	6.81836e-06	43070.8
2	1	0	1	0	0	652.966	0.556638	0.556419	0.0128622	5	0.0176482	11	0	21.2705	7.15675e-06	43260.1
2	1	0	1	0	0	655.862	0.571118	0.570903	0.0135994	5	0.0176852	11	0	24.1665	7.76394e-06	41980
2	1	0	1	0	0	658.758	0.585598	0.585351	0.015105	5	0.017725	11	0	27.0625	8.84171e-06	38752.2
2	1	0	1	0	0	661.654	0.600078	0.599842	0.0179896	5	0.0177704	11	0	29.9585	1.07909e-05	33343.8
2	1	0	1	0	0	664.55	0.614558	0.614314	0.0229433	5	0.0178264	11	0	32.8545	1.40944e-05	26775.4
2	1	0	1	0	0	667.446	0.629038	0.628787	0.0323071	5	0.0179025	11	0	35.7505	2.03143e-05	19462.8
2	1	0	1	0	0	670.342	0.643517	0.643288	0.0505742	5	0.0180173	11	0	38.6464	3.25338e-05	12719.7
2	1	0	1	0	0	673.238	0.657997	0.65777	0.0859714	5	0.0182073	11	0	41.5424	5.65495e-05	7651.04
2	1	0	1	0	0	676.134	0.672477	0.672234	0.152818	5	0.0185421	11	0	44.4384	0.000102729	4398.93
2	1	0	1	0	0	679.03	0.686957	0.686775	0.271574	5	0.0191419	11	0	47.3344	0.00018651	2528.87
2	1	0	1	0	0	681.698	0.69969	0.699459	0.424067	5	0.0200821	11	0	50.0029	0.000296617	1649.41
2	1	0	1	0	0	684.594	0.68521	0.685	0.232897	5	0.0210055	11	0	52.8989	0.000159535	2941.21
2	1	0	1	0	0	687.49	0.67073	0.670474	0.12116	5	0.0215042	11	0	55.7949	8.12346e-05	5533.79
2	1	0	1	0	0	690.386	0.65625	0.656008	0.0596355	5	0.0217584	11	0	58.6909	3.91214e-05	11000.3
2	1	0	1	0	0	693.282	0.641769	0.641555	0.0270563	5	0.0218796	11	0	61.5869	1.73581e-05	23711.9
2	1	0	1	0	0	696.178	0.627289	0.627085	0.0101682	5	0.0219317	11	0	64.4829	6.37632e-06	61671.2
2	1	0	1	0	0	699.074	0.61281	0.612551	0.00117031	5	0.0219479	11	0	67.3788	7.16878e-07	523408
2	0	0	1	0	0	701.97	0.59833	0.598076	-0.00333666	5	0.0219452	11	0	1.0985	-1.99557e-06	179244
2	1	0	1	0	0	704.866	0.58385	0.583631	-0.00540336	5	0.0219321	11	0	3.9945	-3.15357e-06	108013
2	1	0	1	0	0	707.762	0.56937	0.569132	-0.00565104	5	0.0219126	11	0	6.8905	-3.21619e-06	100713
2	0	0	1	0	0	710.658	0.55489	0.554683	-0.00684041	5	0.0218901	11	0	9.7865	-3.79426e-06	81089.2
2	0	0	1	0	0	713.554	0.540411	0.540188	-0.0084131	5	0.0218649	11	0	12.6824	-4.54466e-06	64207.9
2	0	0	1	0	0	716.45	0.525931	0.525719	-0.00937884	5	0.0218392	11	0	15.5784	-4.93064e-06	56053.8
2	0	0	1	0	0	719.346	0.511451	0.511233	-0.0101548	5	0.0218114	11	0	18.4744	-5.19149e-06	50343.8
2	0	0	1	0	0	722.242	0.496971	0.496694	-0.0103701	5	0.0217825	11	0	21.3704	-5.15079e-06	47896.5
2	0	0	1	0	0	725.138	0.482491	0.482241	-0.0107763	5	0.0217526	11	0	24.2664	-5.19676e-06	44750.2
2	0	0	1	0	0	728.034	0.468011	0.467752	-0.011178	5	0.0217217	11	0	27.1624	-5.22852e-06	41845.8
2	0	0	1	0	0	730.93	0.45353	0.453302	-0.0120973	5	0.0216894	11	0	30.0584	-5.48374e-06	37471.4
2	0	0	1	0	1	733.683	0.460272	0.460045	0.010868	6	0.0217054	11	0	1.9973	4.99975e-06	42330.3
2	1	0	0	0	1	736.579	0.474751	0.474505	0.0113417	6	0.0217424	11	0	4.8932	5.38167e-06	41837.3
2	1	0	0	0	1	739.475	0.489231	0.48903	0.0119	6	0.0217798	11	0	7.7892	5.81947e-06	41094.9
2	1	0	0	0	1	742.371	0.503711	0.503439	0.0127548	6	0.0218175	11	0	10.6852	6.42128e-06	39470.4
2	1	0	0	0	1	745.267	0.518191	0.51799	0.0151024	6	0.0218611	11	0	13.5812	7.82287e-06	34298.6
2	1	0	0	0	1	748.163	0.532671	0.532472	0.0151529	6	0.0219027	11	0	16.4772	8.06847e-06	35140
2	1	0	0	0	1	751.059	0.547151	0.546898	0.015671	6	0.0219444	11	0	19.3732	8.57042e-06	34898.8
2	1	0	1	0	1	753.955	0.56163	0.561426	0.0162817	6	0.0219872	11	0	22.2691	9.14095e-06	34482.1
2	1	0	1	0	1	756.851	0.576111	0.575894	0.0173574	6	0.0220322	11	0	25.1651	9.99603e-06	33178.6
2	1	0	1	0	1	759.747	0.590591	0.590401	0.0192969	6	0.0220808	11	0	28.0611	1.13929e-05	30595.7
2	1	0	1	0	1	762.643	0.605071	0.604892	0.0226612	6	0.0221367	11	0	30.9571	1.37076e-05	26692.8
2	1	0	1	0	1	765.539	0.619551	0.619321	0.0288032	6	0.0222059	11	0	33.8531	1.78385e-05	21501.8
2	1	0	1	0	1	768.435	0.634031	0.633832	0.0405509	6	0.0223003	11	0	36.7491	2.57024e-05	15630.5
2	1	0	1	0	1	771.331	0.648511	0.648304	0.062762	6	0.0224428	11	0	39.6451	4.06889e-05	10329.6
2	1	0	1	0	1	774.227	0.662991	0.662836	0.106914	6	0.0226794	11	0	42.5411	7.08666e-05	6199.71
2	1	0	1	0	1	777.123	0.67747	0.677245	0.188763	6	0.0230946	11	0	45.437	0.000127838	3587.81
2	1	0	1	0	1	780.019	0.69195	0.691679	0.331172	6	0.0238294	11	0	48.333	0.000229065	2088.58
2	1	0	1	0	1	782.688	0.694697	0.694467	0.346899	6	0.0248556	11	0	51.0015	0.00024091	2001.93
2	1	0	1	0	1	785.584	0.680217	0.680015	0.188594	6	0.025609	11	0	53.8975	0.000128247	3605.71
2	1	0	1	0	1	788.48	0.665737	0.665512	0.102362	6	0.02601	11	0	56.7935	6.81229e-05	6501.58
2	1	0	1	0	1	791.376	0.651257	0.651073	0.0524591	6	0.0262258	11	0	59.6895	3.41547e-05	12411.1
2	1	0	1	0	1	794.272	0.636777	0.636526	0.0262781	6	0.0263339	11	0	62.5855	1.67267e-05	24222.7
2	1	0	1	0	1	797.168	0.622297	0.622058	0.0132353	6	0.026387	11	0	65.4815	8.23312e-06	46999.9
2	1	0	1	0	1	800.064	0.607816	0.607624	0.00594969	6	0.0264115	11	0	68.3775	3.61517e-06	102127
2	1	0	1	0	1	802.96	0.593337	0.593079	0.00162007	6	0.0264189	11	0	0.000000000000000E+000	9.60831e-07	366082
2	1	0	1	0	1	805.856	0.578857	0.578661	-0.000520507	6	0.0264173	11	0	0.0999	-3.01197e-07	1.11173e+06
2	1	0	1	0	1	808.752	0.564377	0.564193	-0.00215649	6	0.0264102	11	0	2.6963	-1.21668e-06	261625
2	0	0	1	0	1	811.648	0.549897	0.549671	-0.00321517	6	0.0263994	11	0	5.5923	-1.76729e-06	170962
2	1	0	1	0	1	814.544	0.535417	0.535208	-0.00422158	6	0.0263859	11	0	8.4883	-2.25942e-06	126779
2	1	0	1	0	1	817.439	0.520938	0.520742	-0.00445235	6	0.0263706	11	0	11.3842	-2.31853e-06	116959
2	1	0	1	0	1	820.335	0.506458	0.506247	-0.00477588	6	0.0263534	11	0	14.2802	-2.41777e-06	106001
2	1	0	1	0	1	823.231	0.491978	0.491747	-0.00504384	6	0.0263345	11	0	17.1762	-2.48029e-06	97494.6
2	0	0	1	0	1	826.127	0.477498	0.477312	-0.00612365	6	0.0263131	11	0	20.0722	-2.92289e-06	77945.6
2	0	0	1	0	1	829.023	0.463018	0.462779	-0.00740934	6	0.0262888	11	0	22.9682	-3.42888e-06	62458.8
2	1	0	1	0	0	831.777	0.450785	0.450547	0.0141849	7	0.0262666	11	0	0.0999	6.39097e-06	31762.4
2	1	0	1	0	0	834.673	0.465265	0.464994	0.01595	7	0.026307	11	0	2.9959	7.41666e-06	29153.2
2	1	0	1	0	0	837.569	0.479745	0.479538	0.015823	7	0.0263482	11	0	5.8919	7.58775e-06	30306.3
2	1	0	1	0	0	840.465	0.494225	0.494063	0.0156016	7	0.0263893	11	0	8.7879	7.70817e-06	31667.5
2	1	0	0	0	0	843.361	0.508704	0.508446	0.0154012	7	0.02643	11	0	11.6838	7.8307e-06	33013.3
2	1	0	0	0	0	846.257	0.523184	0.522944	0.0153121	7	0.0264704	11	0	14.5798	8.00738e-06	34152.3
2	1	0	0	0	0	849.153	0.537664	0.537474	0.0152559	7	0.0265106	11	0	17.4758	8.19963e-06	35230.6
2	1	0	0	0	0	852.049	0.552144	0.551912	0.015601	7	0.026551	11	0	20.3718	8.6104e-06	35376.7
2	1	0	0	0	0	854.945	0.566624	0.566434	0.0161136	7	0.0265922	11	0	23.2678	9.12731e-06	35152.5
2	1	0	1	0	0	857.841	0.581103	0.580836	0.0170101	7	0.0266355	11	0	26.1637	9.88006e-06	34146.6
2	1	0	1	0	0	860.737	0.595584	0.595396	0.0187686	7	0.0266832	11	0	29.0597	1.11748e-05	31722.9
2	1	0	1	0	0	863.633	0.610064	0.609887	0.022204	7	0.0267392	11	0	31.9557	1.3542e-05	27467.4
2	1	0	1	0	0	866.529	0.624544	0.62433	0.0295439	7	0.0268112	11	0	34.8517	1.84452e-05	21132.3
2	1	0	1	0	0	869.425	0.639024	0.638832	0.0440818	7	0.0269142	11	0	37.7477	2.81609e-05	14492
2	1	0	1	0	0	872.321	0.653504	0.653276	0.0723013	7	0.0270771	11	0	40.6437	4.72327e-05	9035.47
2	1	0	1	0	0	875.217	0.667984	0.66776	0.126886	7	0.027357	11	0	43.5397	8.47296e-05	5262.67
2	1	0	1	0	0	878.113	0.682464	0.682277	0.226872	7	0.0278567	11	0	46.4357	0.00015479	3007.32
2	1	0	1	0	0	881.009	0.696943	0.696736	0.392922	7	0.0287377	11	0	49.3316	0.000273763	1773.22
2	1	0	1	0	0	883.677	0.689704	0.689492	0.279566	7	0.0297074	11	0	52.0001	0.000192758	2466.29
2	1	0	1	0	0	886.573	0.675224	0.674986	0.14904	7	0.0303116	11	0	54.8961	0.0001006	4528.9
2	1	0	1	0	0	889.469	0.660744	0.660492	0.0754329	7	0.0306254	11	0	57.7921	4.98228e-05	8756.01
2	1	0	1	0	0	892.365	0.646264	0.646057	0.0355696	7	0.0307785	11	0	60.6881	2.298e-05	18163.2
2	1	0	1	0	0	895.261	0.631783	0.631559	0.0147503	7	0.0308471	11	0	63.5841	9.31567e-06	42816.7
2	1	0	1	0	0	898.157	0.617303	0.617077	0.00367285	7	0.0308722	11	0	66.4801	2.26643e-06	168011
2	0	0	1	0	0	901.053	0.602823	0.60258	-0.00227631	7	0.0308744	11	0	0.4994	-1.37166e-06	264718
2	0	0	1	0	0	903.949	0.588343	0.588099	-0.0059085	7	0.030864	11	0	3.3954	-3.47478e-06	99534.4
2	0	0	1	0	0	906.845	0.573864	0.573639	-0.00820935	7	0.0308467	11	0	6.2913	-4.7092e-06	69876.2
2	0	0	1	0	0	909.741	0.559384	0.559173	-0.00953632	7	0.0308253	11	0	9.1873	-5.33245e-06	58636.1
2	0	0	1	0	0	912.637	0.544904	0.544679	-0.0102116	7	0.0308014	11	0	12.0833	-5.56206e-06	53339.1
2	0	0	1	0	0	915.533	0.530424	0.530221	-0.0104616	7	0.0307761	11	0	14.9793	-5.54695e-06	50682.6
2	0	0	1	0	0	918.429	0.515944	0.515707	-0.0108994	7	0.0307493	11	0	17.8753	-5.62088e-06	47315.3
2	0	0	1	0	0	921.325	0.501465	0.501237	-0.0113591	7	0.0307212	11	0	20.7712	-5.69358e-06	44126.6
2	0	0	1	0	0	924.221	0.486985	0.486796	-0.011887	7	0.0306918	11	0	23.6672	-5.78652e-06	40952.1
2	0	0	1	0	0	927.117	0.472505	0.472279	-0.0123044	7	0.0306613	11	0	26.5632	-5.81112e-06	38382.9
2	0	0	1	0	0	930.013	0.458025	0.457821	-0.0129123	7	0.0306296	11	0	29.4592	-5.91153e-06	35456.1
2	1	0	1	0	1	932.766	0.455778	0.45553	0.0112772	8	0.0306245	11	0	1.0985	5.13711e-06	40393.8
2	1	0	1	0	1	935.662	0.470258	0.470033	0.0118414	8	0.0306612	11	0	3.9945	5.56586e-06	39694
2	1	0	1	0	1	938.558	0.484738	0.484569	0.0127779	8	0.0306987	11	0	6.8905	6.19175e-06	37922.6
2	1	0	1	0	1	941.454	0.499218	0.498972	0.0128566	8	0.0307359	11	0	9.7865	6.41509e-06	38810.5
2	1	0	0	0	1	944.35	0.513697	0.513425	0.0136483	8	0.0307731	11	0	12.6824	7.00738e-06	37618.2
2	1	0	0	0	1	947.246	0.528177	0.527938	0.0141203	8	0.03081	11	0	15.5784	7.45466e-06	37388.6
2	1	0	0	0	1	950.142	0.542657	0.542393	0.0146077	8	0.0308472	11	0	18.4744	7.92313e-06	37130.5
2	1	0	0	0	1	953.038	0.557137	0.55694	0.014656	8	0.0308849	11	0	21.3704	8.16249e-06	38001
2	1	0	0	0	1	955.934	0.571617	0.571417	0.0432184	8	0.0309334	11	0	24.2664	2.46957e-05	13221.6
2	1	0	1	0	1	958.83	0.586097	0.585863	0.0297474	8	0.0310346	11	0	27.1623	1.74279e-05	19694.6
2	1	0	1	0	1	961.726	0.600576	0.600359	0.0271459	8	0.0311164	11	0	30.0583	1.62973e-05	22116
2	1	0	1	0	1	964.622	0.615057	0.614867	0.029964	8	0.0312019	11	0	32.9543	1.84239e-05	20520.2
2	1	0	1	0	1	967.518	0.629537	0.62932	0.0381349	8	0.0313039	11	0	35.8503	2.39991e-05	16502.5
2	1	0	1	0	1	970.414	0.644017	0.643841	0.055872	8	0.031442	11	0	38.7463	3.59727e-05	11523.5
2	1	0	1	0	1	973.31	0.658497	0.65825	0.0909682	8	0.0316534	11	0	41.6423	5.98798e-05	7236.04
2	1	0	1	0	1	976.206	0.672977	0.672779	0.158651	8	0.0320078	11	0	44.5383	0.000106737	4240.63
2	1	0	1	0	1	979.102	0.687457	0.687271	0.279532	8	0.0326282	11	0	47.4343	0.000192114	2458.65
2	1	0	0	0	1	981.771	0.69919	0.698999	0.415722	8	0.0335872	11	0	50.1028	0.000290589	1681.41
2	1	0	0	0	1	984.667	0.68471	0.684472	0.229357	8	0.0344929	11	0	52.9988	0.000156989	2984.31
2	1	0	1	0	1	987.562	0.670231	0.66999	0.121285	8	0.0349813	11	0	55.8947	8.12598e-05	5524.09
2	1	0	1	0	1	990.458	0.655751	0.655531	0.0617767	8	0.0352332	11	0	58.7907	4.04965e-05	10611.3
2	1	0	1	0	1	993.354	0.641271	0.641045	0.0299745	8	0.0353572	11	0	61.6867	1.9215e-05	21386.3
2	1	0	1	0	1	996.25	0.626791	0.626605	0.0134737	8	0.0354141	11	0	64.5827	8.44267e-06	46505.9
2	1	0	1	0	1	999.146	0.612311	0.612124	0.00522936	8	0.0354364	11	0	67.4787	3.20102e-06	117055
2	1	0	1	0	1	1002.04	0.59783	0.597611	0.000553444	8	0.0354406	11	0	0.0999	3.30745e-07	1.0798e+06
2	1	0	1	0	1	1004.94	0.58335	0.583095	-0.00191802	8	0.0354348	11	0	2.3967	-1.11839e-06	304009
2	1	0	1	0	1	1007.83	0.56887	0.568659	-0.00328239	8	0.0354226	11	0	5.2927	-1.86656e-06	173246
2	1	0	1	0	1	1010.73	0.554391	0.55408	-0.00438227	8	0.0354068	11	0	8.1886	-2.42813e-06	126437
2	1	0	1	0	1	1013.63	0.539911	0.539688	-0.00532215	8	0.0353885	11	0	11.0846	-2.8723e-06	101404
2	1	0	1	0	1	1016.52	0.525431	0.525237	-0.00600224	8	0.0353681	11	0	13.9806	-3.1526e-06	87506.8
2	1	0	1	0	1	1019.42	0.510951	0.510704	-0.00673416	8	0.0353464	11	0	16.8766	-3.43916e-06	75837.8
2	0	0	1	0	1	1022.31	0.496471	0.496248	-0.00783857	8	0.0353238	11	0	19.7726	-3.88988e-06	63308.6
2	0	0	1	0	1	1025.21	0.481992	0.481773	-0.00952796	8	0.0353	11	0	22.6685	-4.59032e-06	50564.2
2	0	0	1	0	1	1028.11	0.467512	0.467289	-0.0104896	8	0.0352743	11	0	25.5645	-4.90169e-06	44547.7
2	0	0	1	0	1	1031	0.453032	0.452779	-0.0112438	8	0.0352477	11	0	28.4605	-5.09097e-06	40269.2
2	1	0	1	0	0	1033.76	0.460771	0.460519	0.0133896	9	0.0352714	11	0	2.0971	6.16617e-06	34393.7
2	1	0	1	0	0	1036.65	0.475251	0.474969	0.0143658	9	0.0353137	11	0	4.9931	6.82333e-06	33062.4
2	1	0	1	0	0	1039.55	0.489731	0.489535	0.0156795	9	0.0353562	11	0	7.8891	7.67568e-06	31221.2
2	1	0	1	0	0	1042.44	0.504211	0.503953	0.0163359	9	0.0353988	11	0	10.7851	8.23254e-06	30849.4
2	1	0	1	0	0	1045.34	0.518691	0.518473	0.0159719	9	0.0354413	11	0	13.6811	8.28102e-06	32461.5
2	1	0	1	0	0	1048.24	0.533171	0.532982	0.0145578	9	0.0354836	11	0	16.5771	7.75905e-06	36611.4
2	1	0	0	0	0	1051.13	0.54765	0.547438	0.0134652	9	0.035526	11	0	19.473	7.37134e-06	40655.9
2	1	0	0	0	0	1054.03	0.56213	0.561932	0.0136609	9	0.0355694	11	0	22.369	7.67649e-06	41134.4
2	1	0	0	0	0	1056.92	0.57661	0.576395	0.014192	9	0.0356145	11	0	25.265	8.18017e-06	40614.2
2	1	0	0	0	0	1059.82	0.59109	0.590856	0.0157562	9	0.0356627	11	0	28.161	9.30967e-06	37499.9
2	1	0	1	0	0	1062.72	0.60557	0.605363	0.019575	9	0.0357177	11	0	31.0569	1.185e-05	30925.4
2	1	0	1	0	0	1065.61	0.62005	0.619818	0.0266763	9	0.0357859	11	0	33.9529	1.65344e-05	23234.8
2	1	0	1	0	0	1068.51	0.63453	0.634323	0.0394508	9	0.0358788	11	0	36.8489	2.50246e-05	16078.8
2	1	0	1	0	0	1071.4	0.64901	0.648817	0.0633732	9	0.0360206	11	0	39.7449	4.11176e-05	10238
2	1	0	1	0	0	1074.3	0.66349	0.663272	0.1079	9	0.0362578	11	0	42.6409	7.15672e-05	6147.08
2	1	0	1	0	0	1077.2	0.67797	0.677756	0.190577	9	0.0366761	11	0	45.5369	0.000129165	3556.34
2	1	0	1	0	0	1080.09	0.69245	0.692235	0.33415	9	0.0374226	11	0	48.4329	0.00023131	2071.63
2	1	0	0	0	0	1082.76	0.694197	0.693944	0.335719	9	0.0384452	11	0	51.1014	0.00023297	2067.04
2	1	0	0	0	0	1085.66	0.679717	0.67948	0.181908	9	0.0391782	11	0	53.9974	0.000123603	3735.29
2	1	0	0	0	0	1088.55	0.665237	0.665038	0.0942708	9	0.0395658	11	0	56.8934	6.26937e-05	7054.56
2	1	0	1	0	0	1091.45	0.650758	0.650552	0.0479443	9	0.0397621	11	0	59.7893	3.11902e-05	13568.9
2	1	0	1	0	0	1094.34	0.636278	0.636066	0.0231724	9	0.0398566	11	0	62.6853	1.47392e-05	27449.4
2	1	0	1	0	0	1097.24	0.621798	0.621592	0.0101969	9	0.0398989	11	0	65.5813	6.33833e-06	60958.6
2	1	0	1	0	0	1100.14	0.607318	0.607116	0.00295995	9	0.0399142	11	0	68.4773	1.79703e-06	205110
2	1	0	1	0	0	1103.03	0.592838	0.592573	-0.00133737	9	0.0399141	11	0	0.1997	-7.92488e-07	443088
2	0	0	1	0	0	1105.93	0.578358	0.578112	-0.00439407	9	0.0399049	11	0	3.0957	-2.54026e-06	131566
2	0	0	1	0	0	1108.82	0.563878	0.563687	-0.00645845	9	0.0398916	11	0	5.9917	-3.64054e-06	87279
2	0	0	1	0	0	1111.72	0.549397	0.549218	-0.00614618	9	0.0398765	11	0	8.8877	-3.3756e-06	89359.3
2	0	0	1	0	0	1114.62	0.534918	0.53469	-0.00584666	9	0.0398602	11	0	11.7836	-3.12615e-06	91452.2
2	1	0	1	0	0	1117.51	0.520438	0.520206	-0.00541536	9	0.0398422	11	0	14.6796	-2.8171e-06	96061.2
2	1	0	1	0	0	1120.41	0.505958	0.505703	-0.00542456	9	0.039823	11	0	17.5756	-2.74322e-06	93224.6
2	1	0	1	0	0	1123.3	0.491478	0.491261	-0.00692103	9	0.0398017	11	0	20.4716	-3.40003e-06	70981
2	0	0	1	0	0	1126.2	0.476998	0.476806	-0.0088675	9	0.0397788	11	0	23.3676	-4.22808e-06	53770.1
2	0	0	1	0	0	1129.1	0.462519	0.462279	-0.0103066	9	0.0397549	11	0	26.2635	-4.76453e-06	44852.6
2	1	0	1	0	1	1131.85	0.451284	0.451102	0.0116043	10	0.0397359	11	0	0.1997	5.23472e-06	38873.7
2	1	0	1	0	1	1134.75	0.465764	0.465499	0.0135306	10	0.0397788	11	0	3.0957	6.2985e-06	34403.4
2	1	0	1	0	1	1137.64	0.480244	0.480024	0.0141682	10	0.0398232	11	0	5.9917	6.80106e-06	33880.4
2	1	0	1	0	1	1140.54	0.494724	0.494522	0.0151316	10	0.0398676	11	0	8.8877	7.48291e-06	32681.4
2	1	0	1	0	1	1143.43	0.509204	0.509002	0.0154079	10	0.039912	11	0	11.7837	7.84267e-06	33035.1
2	1	0	1	0	1	1146.33	0.523684	0.523408	0.0163591	10	0.0399575	11	0	14.6797	8.56247e-06	31994.9
2	1	0	1	0	1	1149.23	0.538164	0.537886	0.0167354	10	0.0400026	11	0	17.5757	9.00173e-06	32140.7
2	1	0	1	0	1	1152.12	0.552644	0.552468	0.0173392	10	0.0400486	11	0	20.4717	9.57934e-06	31862.4
2	1	0	0	0	1	1155.02	0.567123	0.566916	0.0171879	10	0.0400957	11	0	23.3676	9.7441e-06	32983.4
2	1	0	0	0	1	1157.91	0.581603	0.581393	0.0198043	10	0.0401574	11	0	26.2636	1.15141e-05	29356.9
2	1	0	0	0	1	1160.81	0.596083	0.595854	0.0208053	10	0.0402185	11	0	29.1596	1.23969e-05	28639.6
2	1	0	0	0	1	1163.7	0.610563	0.610335	0.0255517	10	0.040289	11	0	32.0556	1.55951e-05	23886.3
2	1	0	0	0	1	1166.6	0.625043	0.624854	0.0346703	10	0.0403762	11	0	34.9516	2.16639e-05	18022.8
2	1	0	1	0	1	1169.5	0.639522	0.639301	0.0503891	10	0.0404958	11	0	37.8475	3.22137e-05	12687.3
2	1	0	1	0	1	1172.39	0.654003	0.653777	0.0798858	10	0.0406771	11	0	40.7435	5.22275e-05	8183.9
2	1	0	1	0	1	1175.29	0.668483	0.668219	0.135866	10	0.040978	11	0	43.6395	9.07884e-05	4918.21
2	1	0	1	0	1	1178.18	0.682963	0.682786	0.237551	10	0.0415028	11	0	46.5355	0.000162196	2874.28
2	1	0	1	0	1	1181.08	0.697443	0.697198	0.404608	10	0.0424131	11	0	49.4315	0.000282092	1723.14
2	1	0	0	0	1	1183.75	0.689204	0.688999	0.279859	10	0.0433811	11	0	52.1	0.000192823	2461.95
2	1	0	0	0	1	1186.65	0.674724	0.674514	0.154211	10	0.0439878	11	0	54.996	0.000104017	4373.98
2	1	0	0	0	1	1189.54	0.660244	0.660027	0.0827154	10	0.0443154	11	0	57.892	5.45944e-05	7979.49
2	1	0	0	0	1	1192.44	0.645764	0.645579	0.0441822	10	0.0444888	11	0	60.788	2.85231e-05	14611.7
2	1	0	1	0	1	1195.33	0.631285	0.631066	0.023019	10	0.0445816	11	0	63.6839	1.45265e-05	27415
2	1	0	1	0	1	1198.23	0.616805	0.616565	0.0116582	10	0.0446327	11	0	66.5799	7.18805e-06	52886.7
2	1	0	1	0	1	1201.13	0.602325	0.602091	0.00620522	10	0.0446616	11	0	69.4759	3.73611e-06	97029.8
2	1	0	1	0	1	1204.02	0.587845	0.587628	0.00553694	10	0.0446794	11	0	72.3719	3.25366e-06	106129
2	1	0	1	0	1	1206.92	0.573365	0.573165	0.00553172	10	0.0446921	11	0	75.2679	3.17059e-06	103614
2	1	0	1	0	1	1209.81	0.558885	0.558684	0.0028218	10	0.0447008	11	0	78.1639	1.5765e-06	197988
2	0	0	1	0	1	1212.71	0.544404	0.544163	0.000712769	10	0.044707	11	0	81.0599	3.87863e-07	763450
2	0	0	1	0	1	1215.61	0.529924	0.529696	-0.000449114	10	0.0447111	11	0	0.000000000000000E+000	-2.37894e-07	1.17942e+06
2	0	0	1	0	1	1218.5	0.515445	0.515237	0.000588751	10	0.044714	11	0	0.000000000000000E+000	3.03346e-07	875136
2	1	0	1	0	1	1221.4	0.500965	0.50073	0.000917055	10	0.0447136	11	0	0.0999	4.59197e-07	546019
2	1	0	1	0	1	1224.29	0.486485	0.48625	0.000180346	10	0.0447104	11	0	0.000000000000000E+000	8.76933e-08	2.6962e+06
2	1	0	1	0	1	1227.19	0.472005	0.471771	-0.000136028	10	0.0447072	11	0	0.0999	-6.41741e-08	3.46819e+06
2	0	0	1	0	1	1230.09	0.457525	0.457286	-0.00347397	10	0.0447034	11	0	0.000000000000000E+000	-1.5886e-06	131632
2	1	0	1	0	0	1232.84	0.456277	0.456081	0.0211966	11	0.0447255	11	0	1.2529	9.66738e-06	21516.7
2	1	0	1	0	0	1235.73	0.470756	0.470513	0.023817	11	0.0447873	11	0	4.1489	1.12062e-05	19755.3
2	1	0	1	0	0	1238.63	0.485237	0.484967	0.0222118	11	0.0448488	11	0	7.0449	1.0772e-05	21833.8
2	1	0	1	0	0	1241.53	0.499717	0.49948	0.0233706	11	0.044916	11	0	9.9409	1.16732e-05	21372.1
2	1	0	1	0	0	1244.42	0.514197	0.513954	0.0222502	11	0.0449869	11	0	12.8369	1.14356e-05	23098.9
2	1	0	1	0	0	1247.32	0.528677	0.528488	0.0251095	11	0.0450585	11	0	15.7329	1.32701e-05	21047.3
2	1	0	1	0	0	1250.21	0.543157	0.542904	0.026631	11	0.0451315	11	0	18.6289	1.44581e-05	20386.2
2	1	0	1	0	0	1253.11	0.557637	0.55741	0.0248277	11	0.0452054	11	0	21.5249	1.38392e-05	22451.1
2	1	0	0	0	0	1256.01	0.572116	0.571931	0.0246524	11	0.045277	11	0	24.4208	1.40995e-05	23199.8
2	1	0	0	0	0	1258.9	0.586596	0.586366	0.0261491	11	0.0453518	11	0	27.3168	1.53329e-05	22423.9
2	1	0	0	0	0	1261.8	0.601076	0.600877	0.0269283	11	0.0454313	11	0	30.2128	1.61806e-05	22314
2	1	0	0	0	0	1264.69	0.615556	0.615301	0.0321699	11	0.0455203	11	0	33.1088	1.97942e-05	19126.6
2	1	0	0	0	0	1267.59	0.630036	0.629791	0.042749	11	0.0456297	11	0	36.0048	2.6923e-05	14732.3
2	1	0	0	0	0	1270.49	0.644516	0.644352	0.0623868	11	0.0457761	11	0	38.9008	4.01991e-05	10328.3
2	1	0	1	0	0	1273.38	0.658995	0.658775	0.0979708	11	0.0459994	11	0	41.7967	6.45407e-05	6724.19
2	1	0	1	0	0	1276.28	0.673476	0.673238	0.166878	11	0.0463702	11	0	44.6927	0.000112349	4034.3
2	1	0	1	0	0	1279.17	0.687956	0.68771	0.288592	11	0.0470123	11	0	47.5887	0.000198467	2382.99
2	1	0	1	0	0	1281.84	0.69869	0.69851	0.409198	11	0.0479907	11	0	50.2573	0.000285829	1707.02
2	1	0	0	0	0	1284.74	0.684211	0.684018	0.226634	11	0.0488877	11	0	53.1532	0.000155022	3018.16
2	1	0	0	0	0	1287.63	0.669731	0.669504	0.121117	11	0.049378	11	0	56.0492	8.10885e-05	5527.74
2	1	0	0	0	0	1290.53	0.655251	0.654985	0.0649876	11	0.0496412	11	0	58.9452	4.25659e-05	10078.6
2	1	0	0	0	0	1293.43	0.640771	0.640559	0.0353543	11	0.049781	11	0	61.8412	2.26465e-05	18118.3
2	1	0	0	0	0	1296.32	0.626291	0.626108	0.0210507	11	0.0498573	11	0	64.7372	1.318e-05	29742.8
2	1	0	1	0	0	1299.22	0.611812	0.611603	0.00941149	11	0.0498976	11	0	67.6331	5.75609e-06	64984.8
2	0	0	1	0	0	1302.11	0.597332	0.597108	0.00533392	11	0.0499196	11	0	70.5291	3.18493e-06	111945
2	0	0	1	0	0	1305.01	0.582852	0.582603	0.0053099	11	0.0499398	11	0	73.4251	3.09356e-06	109720
2	1	0	1	0	0	1307.91	0.568372	0.568234	0.00525977	11	0.0499558	11	0	76.3211	2.98878e-06	108034
2	1	0	1	0	0	1310.8	0.553891	0.553645	0.00528503	11	0.0499705	11	0	79.2171	2.92603e-06	104757
2	1	0	1	0	0	1313.7	0.539411	0.539154	0.00659861	11	0.0499852	11	0	82.1131	3.55767e-06	81707.3
2	1	0	1	0	0	1316.59	0.524931	0.524692	0.00333872	11	0.0499975	11	0	85.0091	1.7518e-06	157154
2	0	0	1	0	0	1319.49	0.510451	0.510205	0.00282137	11	0.0500113	11	0	87.9051	1.43948e-06	180836
2	0	0	1	0	0	1322.39	0.495972	0.495715	0.00318462	11	0.0500212	11	0	90.801	1.57867e-06	155659
2	1	0	1	0	0	1325.28	0.481492	0.481259	0.00480602	11	0.0500324	11	0	93.697	2.31294e-06	100137
2	1	0	1	0	0	1328.18	0.467012	0.466765	0.00611893	11	0.0500436	11	0	96.593	2.8561e-06	76282.1
2	1	0	1	0	0	1331.07	0.452532	0.452302	0.00322835	11	0.0500554	11	0	99.489	1.46019e-06	140103
2	1	0	1	0	1	1333.83	0.46127	0.461054	0.0235622	12	0.0501125	11	0	2.197	1.08635e-05	19567.5
2	1	0	1	0	1	1336.72	0.47575	0.475528	0.0277349	12	0.0501915	11	0	5.093	1.31887e-05	17145.5
2	1	0	1	0	1	1339.62	0.49023	0.490039	0.0299805	12	0.0502792	11	0	7.9889	1.46916e-05	16345.2
2	1	0	1	0	1	1342.52	0.50471	0.504469	0.0329795	12	0.0503666	11	0	10.8849	1.66371e-05	15296.4
2	1	0	1	0	1	1345.41	0.51919	0.518966	0.0327118	12	0.0504578	11	0	13.7809	1.69763e-05	15864.8
2	1	0	1	0	1	1348.31	0.53367	0.533465	0.0300251	12	0.0505486	11	0	16.6769	1.60174e-05	17767.3
2	1	0	1	0	1	1351.2	0.54815	0.547936	0.0300257	12	0.050637	11	0	19.5729	1.64522e-05	18248.9
2	1	0	1	0	1	1354.1	0.56263	0.562408	0.042316	12	0.0507454	11	0	22.4689	2.37989e-05	13290.7
2	1	0	1	0	1	1357	0.57711	0.576922	0.0374016	12	0.0508612	11	0	25.3649	2.15778e-05	15425
2	1	0	1	0	1	1359.89	0.59159	0.591359	0.0391362	12	0.0509681	11	0	28.2609	2.31435e-05	15110.3
2	1	0	0	0	1	1362.79	0.606069	0.605897	0.0418312	12	0.0510818	11	0	31.1568	2.53454e-05	14484.3
2	1	0	0	0	1	1365.68	0.620549	0.620298	0.0453422	12	0.0512082	11	0	34.0528	2.81257e-05	13680.4
2	1	0	0	0	1	1368.58	0.635029	0.634762	0.0543285	12	0.0513523	11	0	36.9488	3.44857e-05	11683.8
2	1	0	0	0	1	1371.48	0.649509	0.649302	0.0782634	12	0.0515399	11	0	39.8448	5.08165e-05	8296.37
2	1	0	1	0	1	1374.37	0.663989	0.663762	0.121136	12	0.0518208	11	0	42.7407	8.04057e-05	5479.46
2	1	0	1	0	1	1377.27	0.678469	0.678258	0.204687	12	0.0522829	11	0	45.6367	0.000138831	3313.63
2	1	0	1	0	1	1380.16	0.692949	0.692753	0.353983	12	0.0530724	11	0	48.5327	0.000245223	1957.03
2	1	0	1	0	1	1382.83	0.693698	0.693457	0.344647	12	0.0541255	11	0	51.2013	0.000238998	2012.08
2	1	0	1	0	1	1385.73	0.679217	0.679013	0.189674	12	0.0548795	11	0	54.0973	0.000128791	3579.89
2	1	0	0	0	1	1388.62	0.664738	0.664521	0.10319	12	0.0552939	11	0	56.9932	6.85722e-05	6439.76
2	1	0	0	0	1	1391.52	0.650258	0.650071	0.060566	12	0.055522	11	0	59.8892	3.93722e-05	10733.3
2	1	0	0	0	1	1394.42	0.635778	0.63554	0.0350934	12	0.0556549	11	0	62.7852	2.23033e-05	18110
2	1	0	0	0	1	1397.31	0.621298	0.621021	0.0215312	12	0.0557379	11	0	65.6812	1.33713e-05	28842.8
2	1	0	0	0	1	1400.21	0.606818	0.606627	0.017305	12	0.0557948	11	0	68.5772	1.04977e-05	35054.9
2	1	0	1	0	1	1403.1	0.592339	0.592081	0.0141367	12	0.055837	11	0	71.4731	8.37008e-06	41882.6
2	1	0	1	0	1	1406	0.577859	0.577622	0.00782732	12	0.0558693	11	0	74.3691	4.52124e-06	73795.6
2	1	0	1	0	1	1408.9	0.563379	0.56314	0.0188386	12	0.0558971	11	0	77.2651	1.06088e-05	29892.9
2	1	0	1	0	1	1411.79	0.548899	0.548692	0.0217647	12	0.0559545	11	0	80.1611	1.19421e-05	25210.2
2	1	0	1	0	1	1414.69	0.534419	0.534234	0.0184651	12	0.0560104	11	0	83.0571	9.8647e-06	28932.1
2	1	0	1	0	1	1417.58	0.519939	0.519707	0.0140833	12	0.0560593	11	0	85.9531	7.31921e-06	36902.2
2	1	0	1	0	1	1420.48	0.505458	0.505226	0.0135814	12	0.0561025	11	0	88.8491	6.86167e-06	37199.8
2	1	0	1	0	1	1423.38	0.490978	0.490776	0.0133129	12	0.0561395	11	0	91.7451	6.53364e-06	36864.7
2	1	0	1	0	1	1426.27	0.476499	0.476279	0.00999979	12	0.05617	11	0	94.641	4.76269e-06	47628.9
2	1	0	1	0	1	1429.17	0.462019	0.461754	0.0060509	12	0.056195	11	0	97.537	2.79403e-06	76311.6
2	1	0	1	0	0	1431.92	0.451783	0.451561	0.031291	13	0.056223	11	0	100.29	1.41298e-05	14431
2	1	0	1	0	0	1434.82	0.466263	0.466017	0.0314301	13	0.0563115	11	0	103.186	1.4647e-05	14827.1
2	1	0	1	0	0	1437.71	0.480743	0.480552	0.0288667	13	0.0564002	11	0	106.082	1.3872e-05	16647.3
2	1	0	1	0	0	1440.61	0.495223	0.495058	0.0296604	13	0.0564874	11	0	108.978	1.46836e-05	16690.9
2	1	0	1	0	0	1443.51	0.509702	0.509442	0.0310618	13	0.0565734	11	0	111.874	1.58242e-05	16400.9
2	1	0	1	0	0	1446.4	0.524183	0.523952	0.0295649	13	0.0566597	11	0	114.77	1.54906e-05	17722.1
2	1	0	1	0	0	1449.3	0.538663	0.53843	0.0279901	13	0.0567463	11	0	117.666	1.50707e-05	19236.5
2	1	0	1	0	0	1452.19	0.553143	0.552887	0.0302234	13	0.056833	11	0	120.562	1.67101e-05	18293.4
2	1	0	1	0	0	1455.09	0.567623	0.567412	0.0325116	13	0.0569233	11	0	123.458	1.84475e-05	17452.6
2	1	0	1	0	0	1457.99	0.582103	0.581866	0.0308909	13	0.0570145	11	0	126.354	1.79744e-05	18836.1
2	1	0	1	0	0	1460.88	0.596583	0.596357	0.032219	13	0.0571086	11	0	129.25	1.9214e-05	18509.5
2	1	0	1	0	0	1463.78	0.611063	0.610857	0.038639	13	0.0572121	11	0	132.146	2.36029e-05	15809.4
2	1	0	0	0	0	1466.67	0.625542	0.625329	0.045869	13	0.0573306	11	0	135.042	2.86832e-05	13632.9
2	1	0	0	0	0	1469.57	0.640022	0.639811	0.0574964	13	0.0574788	11	0	137.938	3.67868e-05	11127.8
2	1	0	0	0	0	1472.47	0.654502	0.654242	0.0872745	13	0.0576871	11	0	140.834	5.70987e-05	7496.37
2	1	0	0	0	0	1475.36	0.668982	0.668767	0.145968	13	0.058015	11	0	143.73	9.76186e-05	4581.6
2	1	0	1	0	0	1478.26	0.683461	0.683264	0.245839	13	0.0585679	11	0	146.626	0.000167973	2779.31
2	1	0	1	0	0	1481.15	0.697941	0.697727	0.418518	13	0.0595127	11	0	149.522	0.000292011	1667.14
2	1	0	1	0	0	1483.82	0.688704	0.688505	0.280239	13	0.0604856	11	0	152.191	0.000192946	2456.85
2	1	0	1	0	0	1486.72	0.674224	0.673989	0.151369	13	0.0610934	11	0	155.087	0.000102021	4452.62
2	1	0	1	0	0	1489.61	0.659744	0.659516	0.0855774	13	0.0614259	11	0	157.983	5.64397e-05	7706.66
2	1	0	0	0	0	1492.51	0.645265	0.645045	0.0482904	13	0.0616112	11	0	160.879	3.11495e-05	13357.6
2	1	0	0	0	0	1495.41	0.630785	0.630559	0.0316586	13	0.0617251	11	0	163.775	1.99626e-05	19917.5
2	1	0	0	0	0	1498.3	0.616305	0.616086	0.0213058	13	0.0617983	11	0	166.671	1.31262e-05	28916.4
2	1	0	0	0	0	1501.2	0.601825	0.601585	0.0134206	13	0.0618499	11	0	169.567	8.07362e-06	44825.6
2	1	0	0	0	0	1504.09	0.587345	0.587146	0.0127524	13	0.0618897	11	0	172.463	7.48752e-06	46041.9
2	1	0	1	0	0	1506.99	0.572866	0.572586	0.0114037	13	0.0619218	11	0	175.358	6.52961e-06	50210.4
2	1	0	1	0	0	1509.89	0.558386	0.558171	0.00798271	13	0.0619484	11	0	178.254	4.45572e-06	69922.5
2	1	0	1	0	0	1512.78	0.543906	0.543652	0.0100174	13	0.0619747	11	0	181.15	5.44597e-06	54270.8
2	1	0	1	0	0	1515.68	0.529426	0.529237	0.00627684	13	0.0619962	11	0	184.046	3.32193e-06	84315.8
2	1	0	1	0	0	1518.57	0.514946	0.514707	0.0071543	13	0.0620162	11	0	186.942	3.68237e-06	71943.7
2	1	0	1	0	0	1521.47	0.500466	0.500255	0.00783972	13	0.0620386	11	0	189.838	3.92186e-06	63810.3
2	0	0	1	0	0	1524.37	0.485985	0.485749	0.00632937	13	0.0620619	11	0	192.734	3.07449e-06	76745.3
2	1	0	1	0	0	1527.26	0.471505	0.471264	0.00972455	13	0.0620848	11	0	195.63	4.58283e-06	48461.3
2	1	0	1	0	0	1530.16	0.457026	0.456774	0.00564156	13	0.0621042	11	0	198.526	2.57692e-06	80965.9
2	1	0	1	0	1	1532.91	0.456776	0.456526	0.0323707	14	0.0621516	11	0	201.28	1.47781e-05	14103.1
2	1	0	1	0	1	1535.81	0.471256	0.471049	0.0304776	14	0.0622424	11	0	204.176	1.43565e-05	15455.6
2	1	0	1	0	1	1538.7	0.485736	0.485493	0.0324166	14	0.0623374	11	0	207.072	1.57381e-05	14976.7
2	1	0	1	0	1	1541.6	0.500216	0.499956	0.0334719	14	0.062434	11	0	209.968	1.67345e-05	14936.6
2	1	0	1	0	1	1544.49	0.514696	0.51448	0.0308899	14	0.0625268	11	0	212.864	1.58923e-05	16655.3
2	1	0	1	0	1	1547.39	0.529175	0.528948	0.0339612	14	0.0626219	11	0	215.76	1.79637e-05	15575.1
2	1	0	1	0	1	1550.29	0.543655	0.543432	0.0298222	14	0.0627129	11	0	218.656	1.62063e-05	18222.4
2	1	0	1	0	1	1553.18	0.558136	0.557952	0.0315544	14	0.062805	11	0	221.552	1.76058e-05	17682.2
2	1	0	1	0	1	1556.08	0.572616	0.572426	0.0335582	14	0.0629031	11	0	224.448	1.92096e-05	17057.7
2	1	0	1	0	1	1558.97	0.587096	0.586899	0.0366178	14	0.0630023	11	0	227.344	2.1491e-05	16027.7
2	1	0	1	0	1	1561.87	0.601576	0.601345	0.0369339	14	0.0631062	11	0	230.24	2.221e-05	16281.7
2	1	0	1	0	1	1564.77	0.616056	0.615835	0.0405474	14	0.0632194	11	0	233.136	2.49705e-05	15188
2	1	0	0	0	1	1567.66	0.630535	0.630333	0.0512729	14	0.0633553	11	0	236.032	3.2319e-05	12293.7
2	1	0	0	0	1	1570.56	0.645015	0.644804	0.081766	14	0.0635315	11	0	238.928	5.2723e-05	7885.97
2	1	0	0	0	1	1573.45	0.659495	0.659291	0.121493	14	0.0638212	11	0	241.824	8.0099e-05	5426.6
2	1	0	0	0	1	1576.35	0.673975	0.673747	0.189282	14	0.0642596	11	0	244.72	0.000127528	3559.5
2	1	0	0	0	1	1579.25	0.688455	0.688286	0.310264	14	0.0649713	11	0	247.616	0.000213551	2218.39
2	1	0	1	0	1	1581.92	0.698192	0.697963	0.417294	14	0.0660076	11	0	250.284	0.000291256	1672.59
2	1	0	1	0	1	1584.81	0.683712	0.683487	0.239714	14	0.0669331	11	0	253.18	0.000163841	2851.27
2	1	0	1	0	1	1587.71	0.669231	0.669011	0.134618	14	0.0674597	11	0	256.076	9.00609e-05	4969.7
2	1	0	1	0	1	1590.6	0.654751	0.654544	0.0732234	14	0.0677524	11	0	258.972	4.79279e-05	8939
2	1	0	1	0	1	1593.5	0.640271	0.640064	0.0464332	14	0.067924	11	0	261.868	2.97202e-05	13784.6
2	1	0	0	0	1	1596.39	0.625792	0.625604	0.0320857	14	0.0680342	11	0	264.764	2.0073e-05	19497.9
2	1	0	0	0	1	1599.29	0.611312	0.611098	0.0196376	14	0.0681078	11	0	267.66	1.20005e-05	31118.8
2	1	0	0	0	1	1602.19	0.596832	0.596611	0.0171735	14	0.0681608	11	0	270.556	1.02459e-05	34740.1
2	1	0	0	0	1	1605.08	0.582352	0.582114	0.0144314	14	0.0682032	11	0	273.452	8.40072e-06	40336.7
2	1	0	0	0	1	1607.98	0.567872	0.567652	0.0119789	14	0.0682415	11	0	276.348	6.79984e-06	47387.7
2	1	0	1	0	1	1610.87	0.553393	0.55314	0.0133867	14	0.0682779	11	0	279.244	7.40472e-06	41320.1
2	1	0	1	0	1	1613.77	0.538913	0.538661	0.0140453	14	0.0683102	11	0	282.14	7.56565e-06	38351.8
2	1	0	1	0	1	1616.67	0.524433	0.524176	0.0110289	14	0.0683422	11	0	285.036	5.78111e-06	47527.3
2	1	0	1	0	1	1619.56	0.509953	0.509718	0.00995736	14	0.0683764	11	0	287.932	5.07545e-06	51190.1
2	1	0	1	0	1	1622.46	0.495473	0.495253	0.00910535	14	0.0684048	11	0	290.828	4.50945e-06	54391.5
2	0	0	1	0	1	1625.35	0.480993	0.480755	0.00724012	14	0.0684312	11	0	293.724	3.48073e-06	66401.5
2	1	0	1	0	1	1628.25	0.466513	0.466295	0.00658169	14	0.0684538	11	0	296.62	3.06901e-06	70847.3
2	1	0	1	0	1	1631.15	0.452032	0.45181	0.00747027	14	0.068475	11	0	299.516	3.37514e-06	60481.1
2	1	0	1	0	0	1633.9	0.46177	0.46146	0.0351953	15	0.0685512	11	0	302.269	1.62412e-05	13111.4
2	1	0	1	0	0	1636.8	0.476249	0.475993	0.0363281	15	0.0686514	11	0	305.165	1.72919e-05	13102.6
2	1	0	1	0	0	1639.69	0.490729	0.490528	0.0344589	15	0.0687525	11	0	308.061	1.69031e-05	14235.2
2	1	0	1	0	0	1642.59	0.505209	0.50498	0.0897873	15	0.0690068	11	0	310.957	4.53408e-05	5624.18
2	1	0	1	0	0	1645.48	0.519689	0.519492	0.086885	15	0.069267	11	0	313.853	4.51361e-05	5979.07
2	1	0	1	0	0	1648.38	0.534169	0.533984	0.0857397	15	0.0695182	11	0	316.749	4.57837e-05	6227.96
2	1	0	1	0	0	1651.28	0.548649	0.548426	0.0849538	15	0.0697628	11	0	319.645	4.65908e-05	6455.57
2	1	0	1	0	0	1654.17	0.563129	0.56288	0.0808992	15	0.0700007	11	0	322.541	4.55366e-05	6957.8
2	1	0	1	0	0	1657.07	0.577609	0.577351	0.0788718	15	0.0702364	11	0	325.437	4.55367e-05	7320.11
2	1	0	1	0	0	1659.96	0.592089	0.591894	0.0805005	15	0.0704698	11	0	328.333	4.76478e-05	7352.68
2	1	0	1	0	0	1662.86	0.606569	0.606385	0.0842706	15	0.0707048	11	0	331.229	5.11004e-05	7195.69
2	1	0	1	0	0	1665.76	0.621049	0.620841	0.0882443	15	0.0709506	11	0	334.125	5.47857e-05	7035.48
2	1	0	1	0	0	1668.65	0.635529	0.635352	0.0972996	15	0.071219	11	0	337.021	6.18195e-05	6529.85
2	1	0	0	0	0	1671.55	0.650008	0.649786	0.122231	15	0.0715359	11	0	339.917	7.9424e-05	5316.04
2	1	0	0	0	0	1674.44	0.664488	0.664227	0.16774	15	0.0719474	11	0	342.813	0.000111418	3959.85
2	1	0	0	0	0	1677.34	0.678968	0.678757	0.253419	15	0.0725442	11	0	345.709	0.00017201	2678.4
2	1	0	0	0	0	1680.24	0.693448	0.693253	0.398961	15	0.0734747	11	0	348.605	0.000276581	1737.64
2	1	0	1	0	0	1682.9	0.693199	0.692974	0.375987	15	0.0746359	11	0	351.273	0.00026055	1843.08
2	1	0	1	0	0	1685.8	0.678719	0.678478	0.227851	15	0.0754906	11	0	354.169	0.000154592	2977.73
2	1	0	1	0	0	1688.7	0.664239	0.664012	0.143389	15	0.0760099	11	0	357.065	9.5212e-05	4630.85
2	1	0	1	0	0	1691.59	0.649759	0.649595	0.0958861	15	0.0763465	11	0	359.961	6.22871e-05	6774.65
2	1	0	1	0	0	1694.49	0.635278	0.635096	0.0697284	15	0.0765834	11	0	362.857	4.42842e-05	9108.14
2	1	0	1	0	0	1697.38	0.620798	0.62053	0.0569418	15	0.0767712	11	0	365.753	3.53341e-05	10897.6
2	1	0	0	0	0	1700.28	0.606319	0.606159	0.0515099	15	0.0769308	11	0	368.649	3.12232e-05	11767.8
2	1	0	0	0	0	1703.18	0.591839	0.591557	0.0509807	15	0.0770761	11	0	371.545	3.0158e-05	11603.5
2	1	0	0	0	0	1706.07	0.577359	0.577104	0.0473715	15	0.0772131	11	0	374.441	2.73383e-05	12182.5
2	1	0	0	0	0	1708.97	0.562879	0.562655	0.0447043	15	0.0773479	11	0	377.337	2.51531e-05	12586.1
2	1	0	0	0	0	1711.86	0.548399	0.548178	0.0431474	15	0.0774763	11	0	380.233	2.36524e-05	12704.8
2	1	0	1	0	0	1714.76	0.53392	0.533711	0.0440133	15	0.077603	11	0	383.129	2.34904e-05	12126.1
2	1	0	1	0	0	1717.66	0.51944	0.519185	0.0429173	15	0.0777269	11	0	386.025	2.2282e-05	12097.3
2	1	0	1	0	0	1720.55	0.50496	0.504712	0.0389569	15	0.0778455	11	0	388.921	1.9662e-05	12955.7
2	1	0	1	0	0	1723.45	0.49048	0.490292	0.0406567	15	0.0779627	11	0	391.817	1.99336e-05	12059.3
2	1	0	1	0	0	1726.34	0.476	0.475789	0.0409937	15	0.078078	11	0	394.713	1.95044e-05	11606.4
2	1	0	1	0	0	1729.24	0.461519	0.461322	0.0366436	15	0.0781911	11	0	397.609	1.69045e-05	12589.4
2	1	0	1	0	0	1731.54	0.450011	0.449735	0.0424919	15	0.0782773	11	0	399.908	1.91101e-05	10584