File: ACS_Catal_2026/Figures_Na_K/main_figures/data/EC/20251112_2-148_alpha_reproducibility/20251112_2-148_001_alpha_reproducibility_1_K1_03_CVA_C01.mpt
EC-Lab ASCII FILE
Nb header lines : 66

Cyclic Voltammetry Advanced

Run on channel : 1 (SN 69187)
User :
CE vs. WE compliance from -10 V to 10 V
Electrode connection : standard
Potential control : Ewe
Ewe ctrl range : min = -1.00 V, max = 1.00 V
Safety Limits :
	Do not start on E overload
Acquisition started on : 11/12/2025 13:18:25.019
Loaded Setting File :  C:\Users\User\Documents\EC-Lab\Data\Yatsuzuka\20251030_2-147_gamma_reproducibility\20251030_2-147_001_gamma1_K_1.mps
Saved on :
	File : 20251112_2-148_001_alpha_reproducibility_1_K1_03_CVA_C01.mpr
	Directory : C:\Users\User\Documents\EC-Lab\Data\Yatsuzuka\20251112_2-148_alpha_reproducibility\
	Host : 192.109.209.127
Device : SP-150e (SN .003883)
Address : 192.109.209.128
EC-LAB for windows v11.52 (software)
Internet server v11.52 (firmware)
Command interpretor v11.50 (firmware)
Electrode material :
Initial state :
Electrolyte :
Comments :
Electrode surface area : 0.001 cm2
Characteristic mass : 0.001 g
Equivalent Weight : 0.000 g/eq.
Density : 0.000 g/cm3
Volume (V) : 0.001 cm3
Cycle Definition : Charge/Discharge alternance
Ei (V)              0.450
vs.                 Ref
ti (h:m:s)          0:00:10.0000
dti (s)             0.0000
dE/dt               5.000
dE/dt unit          mV/s
E1 (V)              0.700
vs.                 Ref
t1 (h:m:s)          0:00:0.0000
dt1 (s)             0.1000
Step percent        50
N                   10
E range min (V)     -1.000
E range max (V)     1.000
I Range             10 mA
I Range min         Unset
I Range max         Unset
I Range init        Unset
Bandwidth           5
E2 (V)              0.450
vs.                 Ref
t2 (h:m:s)          0:00:0.0000
dt2 (s)             0.1000
nc cycles           14
nr                  1
Reverse Scan        0
Ef (V)              0.000
vs.                 Eoc
tf (h:m:s)          0:00:0.0000
dtf (s)             0.1000

mode	ox/red	error	control changes	Ns changes	counter inc.	time/s	control/V	Ewe/V	<I>/mA	cycle number	(Q-Qo)/C	I Range	Ns	step time/s	Pwe/W	Rwe/Ohm
2	0	0	0	0	0	232.91	0.449961	0.449678	-0.0249983	1	0.0000000E+000	11	0	0.000000000000000E+000	-1.12412e-05	17988.3
2	1	0	1	0	0	235.661	0.463717	0.463471	0.0126305	1	4.22032e-05	11	0	2.6962	5.85388e-06	36694.5
2	0	0	1	0	0	238.458	0.477697	0.477443	0.0118505	1	8.6444e-05	11	0	5.4923	5.65793e-06	40288.9
2	1	0	1	0	0	241.254	0.491678	0.491483	0.0188362	1	0.000132856	11	0	8.2884	9.25767e-06	26092.4
2	1	0	1	0	0	244.05	0.505659	0.505398	0.0217033	1	0.000182414	11	0	11.0846	1.09688e-05	23286.7
2	1	0	1	0	0	246.846	0.519639	0.519449	0.0210709	1	0.000235886	11	0	13.8807	1.09453e-05	24652.4
2	1	0	1	0	0	249.642	0.53362	0.533395	0.0204998	1	0.000295684	11	0	16.6768	1.09345e-05	26019.5
2	0	0	1	0	0	252.438	0.547601	0.547409	0.0238615	1	0.000365701	11	0	19.473	1.3062e-05	22941.1
2	0	0	1	0	0	255.234	0.56158	0.561361	0.0303418	1	0.000450981	11	0	22.269	1.70327e-05	18501.3
2	1	0	1	0	0	258.03	0.575562	0.575326	0.0447738	1	0.000560306	11	0	25.0652	2.57596e-05	12849.6
2	1	0	0	0	0	260.827	0.589542	0.589304	0.0659489	1	0.000708918	11	0	27.8613	3.88639e-05	8935.76
2	1	0	1	0	0	263.623	0.603523	0.603314	0.0946456	1	0.000922429	11	0	30.6574	5.7101e-05	6374.45
2	1	0	1	0	0	266.419	0.617504	0.617312	0.143809	1	0.0012499	11	0	33.4536	8.87747e-05	4292.59
2	1	0	0	0	0	269.215	0.631484	0.631253	0.242667	1	0.00178439	11	0	36.2497	0.000153184	2601.31
2	1	0	1	0	0	272.011	0.645465	0.645271	0.423814	1	0.0026944	11	0	39.0458	0.000273475	1522.53
2	1	0	1	0	0	274.807	0.659445	0.659223	0.72237	1	0.00425955	11	0	41.8419	0.000476203	912.583
2	1	0	1	0	0	277.603	0.673426	0.673253	1.19048	1	0.00689068	11	0	44.638	0.000801493	565.531
2	1	0	1	0	0	280.399	0.687407	0.687236	1.78435	1	0.011025	11	0	47.4342	0.00122627	385.146
2	1	0	1	0	0	282.978	0.69969	0.699492	2.37984	1	0.0164996	11	0	50.0128	0.00166468	293.924
2	1	0	1	0	0	285.774	0.685708	0.685533	1.33676	1	0.0214782	11	0	52.809	0.000916393	512.832
2	1	0	1	0	0	288.57	0.671728	0.671514	0.817643	1	0.0244185	11	0	55.6051	0.000549058	821.28
2	1	0	1	0	0	291.366	0.657748	0.657514	0.462614	1	0.0261563	11	0	58.4012	0.000304175	1421.3
2	1	0	0	0	0	294.163	0.643767	0.643596	0.256464	1	0.0271394	11	0	61.1973	0.000165059	2509.49
2	1	0	1	0	0	296.959	0.629787	0.629603	0.136031	1	0.0276778	11	0	63.9934	8.56457e-05	4628.37
2	1	0	1	0	0	299.755	0.615806	0.615603	0.0698531	1	0.027959	11	0	66.7896	4.30018e-05	8812.82
2	1	0	0	0	0	302.551	0.601825	0.601635	0.0352661	1	0.0280957	11	0	69.5857	2.12173e-05	17059.8
2	1	0	1	0	0	305.347	0.587845	0.587619	0.015498	1	0.0281554	11	0	72.3818	9.1069e-06	37915.9
2	1	0	1	0	0	308.143	0.573864	0.573631	0.00200627	1	0.0281745	11	0	0.0998	1.15086e-06	285919
2	0	0	1	0	0	310.939	0.559884	0.559668	-0.00623938	1	0.0281719	11	0	0.000000000000000E+000	-3.49198e-06	89699.3
2	0	0	1	0	0	313.735	0.545902	0.545679	-0.0101776	1	0.0281574	11	0	2.4966	-5.55371e-06	53615.5
2	0	0	1	0	0	316.532	0.531922	0.531741	-0.0113591	1	0.0281365	11	0	5.2927	-6.04011e-06	46811.9
2	0	0	1	0	0	319.328	0.517942	0.517703	-0.0125312	1	0.0281117	11	0	8.0888	-6.48745e-06	41313
2	0	0	1	0	0	322.124	0.50396	0.503756	-0.0124432	1	0.0280841	11	0	10.885	-6.26835e-06	40484.3
2	0	0	1	0	0	324.92	0.48998	0.489735	-0.0135315	1	0.0280542	11	0	13.6811	-6.62687e-06	36192.1
2	0	0	1	0	0	327.716	0.476	0.475792	-0.0125799	1	0.0280224	11	0	16.4772	-5.98542e-06	37821.6
2	0	0	0	0	0	330.512	0.462019	0.461709	-0.0135555	1	0.0279888	11	0	19.2733	-6.25868e-06	34060.7
2	0	0	1	0	1	333.166	0.451284	0.451089	0.012762	2	0.0279613	11	0	0.1997	5.75681e-06	35346.3
2	1	0	1	0	1	335.962	0.465265	0.465	0.0149873	2	0.0279984	11	0	2.9959	6.96909e-06	31026.3
2	1	0	0	0	1	338.758	0.479245	0.478995	0.0146611	2	0.0280369	11	0	5.792	7.02259e-06	32671.1
2	0	0	1	0	1	341.554	0.493226	0.493028	0.0140815	2	0.0280756	11	0	8.5881	6.94256e-06	35012.6
2	0	0	1	0	1	344.35	0.507206	0.506934	0.012828	2	0.0281143	11	0	11.3842	6.50293e-06	39517.8
2	0	0	1	0	1	347.146	0.521187	0.52101	0.0120334	2	0.0281539	11	0	14.1803	6.26955e-06	43296.8
2	0	0	1	0	1	349.942	0.535168	0.535002	0.0113663	2	0.028195	11	0	16.9765	6.08097e-06	47069.3
2	0	0	1	0	1	352.739	0.549148	0.548931	0.013426	2	0.0282392	11	0	19.7726	7.36995e-06	40885.6
2	1	0	1	0	1	355.535	0.563129	0.562911	0.0195754	2	0.0282899	11	0	22.5687	1.10192e-05	28756.1
2	1	0	1	0	1	358.331	0.57711	0.576858	0.0287755	2	0.0283534	11	0	25.3649	1.65994e-05	20046.9
2	1	0	1	0	1	361.127	0.59109	0.590874	0.04117	2	0.0284415	11	0	28.161	2.43263e-05	14352.1
2	1	0	1	0	1	363.923	0.605071	0.604893	0.065068	2	0.0285782	11	0	30.9571	3.93592e-05	9296.33
2	1	0	0	0	1	366.719	0.619051	0.618791	0.110171	2	0.0288102	11	0	33.7532	6.81726e-05	5616.66
2	1	0	1	0	1	369.515	0.633031	0.63289	0.198517	2	0.0292256	11	0	36.5493	0.00012564	3188.09
2	1	0	1	0	1	372.311	0.647013	0.646798	0.362273	2	0.0299864	11	0	39.3455	0.000234318	1785.39
2	1	0	0	0	1	375.108	0.660993	0.660758	0.645963	2	0.0313638	11	0	42.1416	0.000426826	1022.9
2	1	0	1	0	1	377.904	0.674974	0.674722	1.09443	2	0.0337598	11	0	44.9377	0.000738436	616.505
2	1	0	1	0	1	380.7	0.688955	0.68876	1.70054	2	0.0376487	11	0	47.7339	0.00117126	405.024
2	1	0	1	0	1	383.268	0.698192	0.69796	1.98604	2	0.0427227	11	0	50.3025	0.00138618	351.432
2	1	0	1	0	1	386.065	0.684211	0.684037	1.13206	2	0.0469386	11	0	53.0986	0.000774368	604.243
2	1	0	1	0	1	388.861	0.670231	0.670007	0.687563	2	0.0494268	11	0	55.8947	0.000460672	974.466
2	1	0	1	0	1	391.657	0.65625	0.656049	0.39594	2	0.0508922	11	0	58.6909	0.000259756	1656.94
2	1	0	1	0	1	394.453	0.642269	0.642054	0.211693	2	0.0517093	11	0	61.487	0.000135919	3032.94
2	1	0	1	0	1	397.249	0.628289	0.628091	0.110339	2	0.0521356	11	0	64.2831	6.93031e-05	5692.37
2	1	0	1	0	1	400.045	0.614307	0.614078	0.0554468	2	0.0523511	11	0	67.0793	3.40487e-05	11075.1
2	1	0	1	0	1	402.841	0.600327	0.600085	0.0242115	2	0.052452	11	0	69.8754	1.45289e-05	24785.2
2	0	0	1	0	1	405.637	0.586347	0.586139	0.00747286	2	0.052492	11	0	72.6715	4.38013e-06	78435.7
2	0	0	0	0	1	408.434	0.572366	0.572191	-0.00290358	2	0.0524997	11	0	0.000000000000000E+000	-1.6614e-06	197064
2	0	0	1	0	1	411.23	0.558386	0.558153	-0.00818989	2	0.0524904	11	0	1.6976	-4.57122e-06	68151.5
2	0	0	1	0	1	414.026	0.544404	0.544202	-0.0105921	2	0.0524722	11	0	4.4938	-5.76424e-06	51378.1
2	0	0	0	0	1	416.822	0.530424	0.530242	-0.011957	2	0.052449	11	0	7.2899	-6.34007e-06	44345.9
2	0	0	1	0	1	419.618	0.516444	0.516219	-0.0132821	2	0.0524222	11	0	10.086	-6.85646e-06	38865.8
2	0	0	1	0	1	422.414	0.502463	0.502217	-0.0139083	2	0.0523931	11	0	12.8821	-6.985e-06	36109.1
2	0	0	1	0	1	425.21	0.488483	0.488309	-0.0149891	2	0.0523622	11	0	15.6782	-7.31932e-06	32577.5
2	0	0	1	0	1	428.006	0.474502	0.474296	-0.0157581	2	0.0523295	11	0	18.4744	-7.474e-06	30098.6
2	0	0	1	0	1	430.803	0.460521	0.460271	-0.0162918	2	0.0522949	11	0	21.2705	-7.49864e-06	28251.7
2	0	0	1	0	0	433.456	0.452782	0.452508	0.0104445	3	0.0522743	11	0	0.4993	4.72623e-06	43324.8
2	0	0	1	0	0	436.252	0.466763	0.466458	0.0130347	3	0.0523108	11	0	3.2955	6.08013e-06	35785.9
2	1	0	1	0	0	439.048	0.480743	0.480574	0.0129598	3	0.0523478	11	0	6.0916	6.22815e-06	37081.9
2	1	0	1	0	0	441.844	0.494724	0.494543	0.0128011	3	0.052385	11	0	8.8877	6.33072e-06	38632.7
2	0	0	0	0	0	444.641	0.508704	0.508472	0.0121518	3	0.0524224	11	0	11.6838	6.17885e-06	41843.3
2	0	0	1	0	0	447.437	0.522684	0.522439	0.0128983	3	0.0524601	11	0	14.4799	6.73857e-06	40504.5
2	0	0	1	0	0	450.233	0.536666	0.536443	0.0139321	3	0.052499	11	0	17.2761	7.47376e-06	38504.1
2	1	0	0	0	0	453.029	0.550646	0.550387	0.0165239	3	0.0525409	11	0	20.0722	9.09456e-06	33308.5
2	1	0	1	0	0	455.825	0.564627	0.564409	0.0207615	3	0.0525891	11	0	22.8683	1.1718e-05	27185.4
2	1	0	1	0	0	458.621	0.578607	0.578367	0.0275115	3	0.0526492	11	0	25.6644	1.59118e-05	21022.7
2	1	0	1	0	0	461.417	0.592588	0.592388	0.0394339	3	0.0527334	11	0	28.4605	2.33602e-05	15022.3
2	1	0	1	0	0	464.213	0.606569	0.606361	0.0625622	3	0.052865	11	0	31.2567	3.79353e-05	9692.13
2	1	0	1	0	0	467.01	0.620549	0.620301	0.103845	3	0.0530894	11	0	34.0528	6.44148e-05	5973.36
2	1	0	1	0	0	469.806	0.63453	0.634358	0.190403	3	0.0534941	11	0	36.8489	0.000120784	3331.66
2	1	0	1	0	0	472.602	0.648511	0.648321	0.357718	3	0.0542406	11	0	39.6451	0.000231916	1812.38
2	1	0	1	0	0	475.398	0.662491	0.662296	0.637132	3	0.0555955	11	0	42.4412	0.00042197	1039.5
2	1	0	1	0	0	478.194	0.676472	0.676272	1.06433	3	0.0579424	11	0	45.2373	0.000719775	635.398
2	1	0	0	0	0	480.99	0.690452	0.690282	1.62767	3	0.0616882	11	0	48.0334	0.00112355	424.092
2	1	0	1	0	0	483.559	0.696693	0.696457	1.70452	3	0.0663909	11	0	50.6021	0.00118713	408.593
2	1	0	0	0	0	486.355	0.682713	0.682524	0.973319	3	0.0700113	11	0	53.3982	0.000664314	701.234
2	1	0	1	0	0	489.151	0.668733	0.668491	0.553596	3	0.0720995	11	0	56.1943	0.000370074	1207.54
2	1	0	1	0	0	491.947	0.654751	0.654522	0.309677	3	0.0732763	11	0	58.9905	0.000202691	2113.56
2	1	0	0	0	0	494.743	0.640771	0.640576	0.170674	3	0.0739228	11	0	61.7866	0.00010933	3753.2
2	1	0	1	0	0	497.539	0.626791	0.626607	0.0826421	3	0.0742657	11	0	64.5827	5.17841e-05	7582.19
2	1	0	1	0	0	500.336	0.61281	0.61253	0.0395895	3	0.0744346	11	0	67.3788	2.42497e-05	15472
2	1	0	1	0	0	503.132	0.59883	0.59861	0.0202637	3	0.0745101	11	0	70.1749	1.21301e-05	29541
2	0	0	1	0	0	505.928	0.584849	0.584639	0.00172838	3	0.0745363	11	0	72.9711	1.01048e-06	338258
2	0	0	1	0	0	508.724	0.570868	0.570668	-0.00550055	3	0.0745365	11	0	0.000000000000000E+000	-3.13899e-06	103747
2	1	0	1	0	0	511.52	0.556888	0.556665	-0.00327366	3	0.0745239	11	0	2.2968	-1.82233e-06	170043
2	1	0	1	0	0	514.316	0.542906	0.542681	-0.00742353	3	0.0745037	11	0	5.093	-4.02861e-06	73102.8
2	0	0	1	0	0	517.112	0.528926	0.528708	-0.0132661	3	0.0744782	11	0	7.8891	-7.0139e-06	39854
2	1	0	1	0	0	519.908	0.514946	0.514709	-0.00713148	3	0.0744505	11	0	10.6852	-3.67064e-06	72174.2
2	1	0	0	0	0	522.705	0.500965	0.500684	-0.00960723	3	0.0744226	11	0	13.4813	-4.81019e-06	52115.4
2	0	0	1	0	0	525.501	0.486985	0.48679	-0.0152859	3	0.0743915	11	0	16.2774	-7.441e-06	31845.8
2	1	0	1	0	0	528.297	0.473004	0.472764	-0.0106659	3	0.0743588	11	0	19.0736	-5.04246e-06	44324.7
2	1	0	0	0	0	531.093	0.459023	0.458786	-0.00804752	3	0.074325	11	0	21.8697	-3.69209e-06	57009.6
2	0	0	1	0	1	533.746	0.45428	0.454057	0.00757056	4	0.0743118	11	0	0.7989	3.43747e-06	59976.7
2	0	0	1	0	1	536.543	0.46826	0.468056	0.0122837	4	0.0743472	11	0	3.595	5.74944e-06	38104
2	1	0	0	0	1	539.339	0.482241	0.481951	0.0161015	4	0.0743837	11	0	6.3912	7.76015e-06	29932
2	1	0	1	0	1	542.135	0.496222	0.495985	0.0158803	4	0.0744203	11	0	9.1873	7.87638e-06	31232.7
2	1	0	1	0	1	544.931	0.510202	0.509977	0.00992352	4	0.0744565	11	0	11.9834	5.06076e-06	51390.7
2	0	0	1	0	1	547.727	0.524183	0.523957	0.0106059	4	0.0744931	11	0	14.7795	5.55705e-06	49402.3
2	1	0	1	0	1	550.523	0.538164	0.537918	0.0172906	4	0.0745317	11	0	17.5757	9.30091e-06	31110.5
2	1	0	1	0	1	553.319	0.552144	0.551902	0.015133	4	0.0745729	11	0	20.3718	8.35192e-06	36470.1
2	0	0	1	0	1	556.115	0.566125	0.565923	0.0145738	4	0.0746194	11	0	23.1679	8.24762e-06	38831.6
2	1	0	0	0	1	558.912	0.580105	0.579869	0.0264634	4	0.0746783	11	0	25.964	1.53453e-05	21912.1
2	1	0	1	0	1	561.708	0.594085	0.593861	0.0383133	4	0.0747608	11	0	28.7601	2.27528e-05	15500.1
2	1	0	1	0	1	564.504	0.608067	0.607848	0.0571258	4	0.0748893	11	0	31.5563	3.47238e-05	10640.5
2	1	0	0	0	1	567.3	0.622047	0.621784	0.100065	4	0.0751088	11	0	34.3524	6.22189e-05	6213.8
2	1	0	1	0	1	570.096	0.636028	0.63585	0.189611	4	0.0755046	11	0	37.1485	0.000120564	3353.44
2	1	0	1	0	1	572.892	0.650008	0.649798	0.349091	4	0.0762323	11	0	39.9446	0.000226838	1861.4
2	1	0	1	0	1	575.688	0.663989	0.663774	0.61146	4	0.0775451	11	0	42.7407	0.000405871	1085.56
2	1	0	1	0	1	578.484	0.67797	0.677783	1.01238	4	0.0797919	11	0	45.5369	0.000686173	669.496
2	1	0	1	0	1	581.281	0.69195	0.691703	1.56171	4	0.0833706	11	0	48.333	0.00108024	442.913
2	1	0	1	0	1	583.849	0.695196	0.694963	1.52913	4	0.0877737	11	0	50.9017	0.00106269	454.483
2	1	0	1	0	1	586.645	0.681215	0.680984	0.893186	4	0.0910837	11	0	53.6978	0.000608246	762.421
2	1	0	1	0	1	589.441	0.667235	0.667006	0.515738	4	0.0930072	11	0	56.4939	0.000344	1293.3
2	1	0	1	0	1	592.238	0.653253	0.653012	0.290435	4	0.0940994	11	0	59.2901	0.000189658	2248.39
2	1	0	1	0	1	595.034	0.639273	0.639036	0.152949	4	0.0947026	11	0	62.0862	9.77399e-05	4178.1
2	1	0	1	0	1	597.83	0.625292	0.625061	0.0791796	4	0.0950227	11	0	64.8823	4.94921e-05	7894.21
2	1	0	0	0	1	600.626	0.611312	0.611119	0.04016	4	0.0951811	11	0	67.6784	2.45425e-05	15217.1
2	1	0	1	0	1	603.422	0.597332	0.597096	0.0185396	4	0.0952507	11	0	70.4745	1.10699e-05	32206.5
2	1	0	1	0	1	606.218	0.58335	0.583136	0.00615361	4	0.095274	11	0	73.2707	3.58839e-06	94763.2
2	1	0	0	0	1	609.014	0.56937	0.569175	-0.00145056	4	0.0952728	11	0	0.000000000000000E+000	-8.25623e-07	392383
2	0	0	1	0	1	611.81	0.55539	0.555196	-0.00760216	4	0.0952584	11	0	2.6962	-4.22069e-06	73031.3
2	0	0	1	0	1	614.607	0.541409	0.541168	-0.0108882	4	0.0952372	11	0	5.4923	-5.89233e-06	49702.3
2	0	0	1	0	1	617.403	0.527429	0.527189	-0.013057	4	0.0952128	11	0	8.2884	-6.8835e-06	40376
2	0	0	1	0	1	620.199	0.513448	0.513215	-0.0123075	4	0.0951853	11	0	11.0846	-6.31637e-06	41699.5
2	1	0	1	0	1	622.995	0.499467	0.499195	-0.0101752	4	0.0951558	11	0	13.8807	-5.0794e-06	49060.1
2	1	0	1	0	1	625.791	0.485487	0.48524	-0.00756594	4	0.0951249	11	0	16.6768	-3.6713e-06	64134.8
2	1	0	1	0	1	628.587	0.471505	0.471296	-0.00788873	4	0.0950925	11	0	19.473	-3.71793e-06	59742.9
2	1	0	1	0	1	631.383	0.457525	0.45729	-0.0104411	4	0.0950581	11	0	22.2691	-4.77462e-06	43797
2	0	0	1	0	0	634.037	0.455778	0.455529	0.00866962	5	0.0950521	11	0	1.0985	3.94926e-06	52543.1
2	0	0	0	0	0	636.833	0.469758	0.469555	0.00803271	5	0.0950874	11	0	3.8946	3.7718e-06	58455.3
2	0	0	1	0	0	639.629	0.483739	0.483527	0.00919791	5	0.0951231	11	0	6.6907	4.44743e-06	52569.2
2	0	0	1	0	0	642.425	0.49772	0.49752	0.0113641	5	0.0951589	11	0	9.4869	5.65389e-06	43779.8
2	1	0	0	0	0	645.221	0.5117	0.511488	0.0141217	5	0.0951949	11	0	12.283	7.22309e-06	36220
2	1	0	1	0	0	648.017	0.525681	0.52544	0.0164022	5	0.0952316	11	0	15.0791	8.61838e-06	32034.7
2	1	0	1	0	0	650.814	0.539662	0.539405	0.017369	5	0.0952694	11	0	17.8753	9.36895e-06	31055.6
2	1	0	0	0	0	653.61	0.553642	0.553419	0.0182696	5	0.0953104	11	0	20.6714	1.01108e-05	30291.8
2	1	0	1	0	0	656.406	0.567623	0.567424	0.0196733	5	0.0953576	11	0	23.4675	1.11631e-05	28842.4
2	1	0	1	0	0	659.202	0.581603	0.58139	0.0234387	5	0.0954171	11	0	26.2636	1.3627e-05	24804.7
2	1	0	1	0	0	661.998	0.595584	0.595361	0.0340715	5	0.0955011	11	0	29.0597	2.02849e-05	17473.9
2	1	0	1	0	0	664.794	0.609565	0.609363	0.0569874	5	0.0956337	11	0	31.8559	3.4726e-05	10693
2	1	0	1	0	0	667.59	0.623545	0.623365	0.104227	5	0.0958621	11	0	34.652	6.49713e-05	5980.85
2	1	0	1	0	0	670.386	0.637526	0.637281	0.195059	5	0.0962768	11	0	37.4481	0.000124307	3267.12
2	1	0	0	0	0	673.183	0.651506	0.651289	0.362413	5	0.0970424	11	0	40.2442	0.000236035	1797.09
2	1	0	1	0	0	675.979	0.665486	0.665282	0.646996	5	0.0984281	11	0	43.0403	0.000430434	1028.26
2	1	0	1	0	0	678.775	0.679468	0.679265	1.10555	5	0.100841	11	0	45.8365	0.000750959	614.416
2	1	0	0	0	0	681.571	0.693448	0.693188	1.69337	5	0.104722	11	0	48.6326	0.00117383	409.354
2	1	0	1	0	0	684.14	0.693698	0.693476	1.51107	5	0.109336	11	0	51.2013	0.00104789	458.93
2	1	0	0	0	0	686.936	0.679717	0.679542	0.868736	5	0.112584	11	0	53.9974	0.000590342	782.219
2	1	0	1	0	0	689.732	0.665737	0.665541	0.481929	5	0.114434	11	0	56.7935	0.000320744	1380.99
2	1	0	1	0	0	692.528	0.651756	0.651584	0.26772	5	0.115459	11	0	59.5896	0.000174442	2433.82
2	1	0	1	0	0	695.324	0.637776	0.637593	0.142304	5	0.116008	11	0	62.3857	9.07323e-05	4480.48
2	1	0	1	0	0	698.12	0.623795	0.623597	0.0723134	5	0.11629	11	0	65.1819	4.50944e-05	8623.53
2	1	0	1	0	0	700.916	0.609814	0.609569	0.035844	5	0.116427	11	0	67.978	2.18494e-05	17006.2
2	1	0	1	0	0	703.712	0.595834	0.595589	0.0141368	5	0.116488	11	0	70.7741	8.41974e-06	42130.4
2	1	0	1	0	0	706.509	0.581852	0.581615	0.00164964	5	0.116507	11	0	0.0999	9.59458e-07	352571
2	1	0	1	0	0	709.305	0.567872	0.567712	-0.00549009	5	0.116504	11	0	0.4993	-3.11679e-06	103407
2	0	0	1	0	0	712.101	0.553891	0.55368	-0.00979427	5	0.116488	11	0	3.2954	-5.42289e-06	56531
2	0	0	0	0	0	714.897	0.539911	0.53975	-0.0120057	5	0.116467	11	0	6.0915	-6.48008e-06	44957.9
2	0	0	1	0	0	717.693	0.525931	0.525769	-0.0127047	5	0.116442	11	0	8.8876	-6.67976e-06	41383.7
2	0	0	1	0	0	720.489	0.51195	0.511724	-0.0119418	5	0.116414	11	0	11.6838	-6.11092e-06	42851.4
2	0	0	0	0	0	723.285	0.497969	0.497748	-0.0101119	5	0.116384	11	0	14.4799	-5.0332e-06	49223.8
2	1	0	1	0	0	726.081	0.483989	0.483756	-0.00843128	5	0.116353	11	0	17.276	-4.07868e-06	57376.3
2	1	0	1	0	0	728.878	0.470008	0.469774	-0.00798782	5	0.11632	11	0	20.0721	-3.75247e-06	58811.3
2	1	0	1	0	0	731.674	0.456028	0.455804	-0.00809772	5	0.116286	11	0	22.8682	-3.69097e-06	56287.9
2	1	0	1	0	1	734.327	0.457276	0.457057	0.014131	6	0.116287	11	0	1.3981	6.45868e-06	32344.3
2	1	0	1	0	1	737.123	0.471256	0.471005	0.0113402	6	0.116322	11	0	4.1942	5.34131e-06	41533.9
2	0	0	1	0	1	739.919	0.485237	0.484986	0.0091832	6	0.116358	11	0	6.9903	4.45373e-06	52812.3
2	0	0	1	0	1	742.716	0.499218	0.498974	0.00830381	6	0.116393	11	0	9.7865	4.14338e-06	60089.7
2	0	0	1	0	1	745.512	0.513198	0.512991	0.0100854	6	0.116428	11	0	12.5826	5.17373e-06	50864.6
2	0	0	1	0	1	748.308	0.527179	0.527009	0.0115111	6	0.116464	11	0	15.3787	6.06645e-06	45782.7
2	1	0	0	0	1	751.104	0.541159	0.540907	0.0143478	6	0.116502	11	0	18.1748	7.76084e-06	37699.6
2	1	0	1	0	1	753.9	0.55514	0.554929	0.0171262	6	0.116543	11	0	20.9709	9.50381e-06	32402.3
2	1	0	1	0	1	756.696	0.569121	0.568907	0.0215057	6	0.11659	11	0	23.7671	1.22348e-05	26453.8
2	1	0	0	0	1	759.492	0.583101	0.582849	0.0279178	6	0.116649	11	0	26.5632	1.62719e-05	20877.3
2	1	0	1	0	1	762.288	0.597082	0.596892	0.040666	6	0.116735	11	0	29.3593	2.42732e-05	14677.9
2	1	0	1	0	1	765.085	0.611063	0.610949	0.0653681	6	0.116871	11	0	32.1555	3.99366e-05	9346.29
2	1	0	0	0	1	767.881	0.625043	0.62481	0.11474	6	0.117106	11	0	34.9516	7.16904e-05	5445.46
2	1	0	1	0	1	770.677	0.639024	0.638838	0.209221	6	0.117537	11	0	37.7477	0.000133658	3053.42
2	1	0	1	0	1	773.473	0.653004	0.652806	0.384423	6	0.118336	11	0	40.5438	0.000250954	1698.14
2	1	0	1	0	1	776.269	0.666985	0.666752	0.690851	6	0.119799	11	0	43.3399	0.000460627	965.117
2	1	0	1	0	1	779.065	0.680966	0.680726	1.1506	6	0.122337	11	0	46.1361	0.000783243	591.627
2	1	0	1	0	1	781.861	0.694946	0.694708	1.71431	6	0.126324	11	0	48.9322	0.00119095	405.241
2	1	0	1	0	1	784.43	0.692199	0.69199	1.36889	6	0.130661	11	0	51.5009	0.000947261	505.511
2	1	0	1	0	1	787.226	0.678219	0.677975	0.793423	6	0.133633	11	0	54.297	0.000537921	854.493
2	1	0	1	0	1	790.022	0.664239	0.664022	0.442165	6	0.135315	11	0	57.0931	0.000293607	1501.75
2	1	0	0	0	1	792.818	0.650258	0.650092	0.239906	6	0.136252	11	0	59.8892	0.000155961	2709.78
2	1	0	1	0	1	795.614	0.636278	0.636061	0.122686	6	0.136751	11	0	62.6853	7.80361e-05	5184.44
2	1	0	1	0	1	798.411	0.622297	0.622026	0.0596645	6	0.137003	11	0	65.4815	3.71128e-05	10425.4
2	1	0	0	0	1	801.207	0.608316	0.60815	0.0269892	6	0.137123	11	0	68.2776	1.64135e-05	22533.1
2	1	0	1	0	1	804.003	0.594336	0.594103	0.011035	6	0.137173	11	0	71.0737	6.5559e-06	53838.2
2	1	0	1	0	1	806.799	0.580355	0.580076	0.00308541	6	0.137188	11	0	0.000000000000000E+000	1.78977e-06	188006
2	1	0	1	0	1	809.595	0.566375	0.566196	-0.0014563	6	0.137183	11	0	0.3994	-8.2455e-07	388791
2	1	0	1	0	1	812.391	0.552393	0.552206	-0.00356634	6	0.137167	11	0	3.1956	-1.96935e-06	154838
2	1	0	1	0	1	815.187	0.538413	0.538226	-0.00484785	6	0.137145	11	0	5.9917	-2.60924e-06	111024
2	1	0	1	0	1	817.983	0.524433	0.524237	-0.00611668	6	0.13712	11	0	8.7878	-3.20659e-06	85706.2
2	1	0	1	0	1	820.78	0.510451	0.510256	-0.00871646	6	0.137092	11	0	11.584	-4.44763e-06	58539.4
2	0	0	1	0	1	823.576	0.496471	0.496271	-0.01123	6	0.137063	11	0	14.3801	-5.5731e-06	44191.7
2	0	0	1	0	1	826.372	0.482491	0.482263	-0.0126007	6	0.137031	11	0	17.1762	-6.07688e-06	38272.6
2	0	0	0	0	1	829.168	0.46851	0.468314	-0.0148622	6	0.136999	11	0	19.9723	-6.96017e-06	31510.4
2	0	0	1	0	1	831.964	0.45453	0.454306	-0.0165601	6	0.136964	11	0	22.7684	-7.52335e-06	27433.8
2	0	0	1	0	0	834.618	0.458774	0.458486	0.0101233	7	0.136973	11	0	1.6977	4.64138e-06	45290.3
2	0	0	0	0	0	837.414	0.472754	0.472553	0.0127	7	0.137007	11	0	4.4938	6.00142e-06	37209
2	1	0	1	0	0	840.21	0.486735	0.486563	0.0153203	7	0.137043	11	0	7.2899	7.4543e-06	31759.4
2	1	0	1	0	0	843.006	0.500715	0.500488	0.0160524	7	0.137078	11	0	10.086	8.03401e-06	31178.5
2	1	0	0	0	0	845.802	0.514696	0.514424	0.016247	7	0.137114	11	0	12.8822	8.35783e-06	31662.8
2	1	0	1	0	0	848.598	0.528677	0.528446	0.0146391	7	0.13715	11	0	15.6783	7.73597e-06	36098.3
2	1	0	1	0	0	851.394	0.542657	0.542409	0.0125991	7	0.137187	11	0	18.4744	6.83387e-06	43051.3
2	0	0	1	0	0	854.19	0.556638	0.556431	0.01199	7	0.137227	11	0	21.2705	6.67161e-06	46408
2	0	0	1	0	0	856.987	0.570619	0.570435	0.0151025	7	0.137274	11	0	24.0667	8.61496e-06	37771
2	0	0	1	0	0	859.783	0.584599	0.584405	0.021628	7	0.137334	11	0	26.8628	1.26395e-05	27020.7
2	1	0	1	0	0	862.579	0.59858	0.598369	0.0356474	7	0.13742	11	0	29.6589	2.13303e-05	16785.8
2	1	0	0	0	0	865.375	0.61256	0.612352	0.0629944	7	0.137558	11	0	32.455	3.85748e-05	9720.74
2	1	0	1	0	0	868.171	0.626541	0.626299	0.11302	7	0.137796	11	0	35.2511	7.07842e-05	5541.51
2	1	0	1	0	0	870.967	0.640522	0.640334	0.208104	7	0.138228	11	0	38.0473	0.000133256	3076.99
2	1	0	0	0	0	873.763	0.654502	0.654232	0.382206	7	0.139022	11	0	40.8434	0.000250052	1711.72
2	1	0	1	0	0	876.559	0.668483	0.66826	0.674665	7	0.140462	11	0	43.6395	0.000450852	990.508
2	1	0	1	0	0	879.356	0.682464	0.682277	1.11223	7	0.142923	11	0	46.4357	0.000758851	613.43
2	1	0	0	0	0	882.152	0.696444	0.696208	1.66607	7	0.146794	11	0	49.2318	0.00115993	417.875
2	1	0	1	0	0	884.72	0.690702	0.690546	1.14974	7	0.150679	11	0	51.8004	0.000793949	600.61
2	1	0	1	0	0	887.516	0.676722	0.67653	0.65328	7	0.15314	11	0	54.5965	0.000441964	1035.59
2	1	0	1	0	0	890.313	0.66274	0.662588	0.375	7	0.154546	11	0	57.3927	0.000248471	1766.9
2	1	0	1	0	0	893.109	0.64876	0.648553	0.210837	7	0.155355	11	0	60.1888	0.000136739	3076.09
2	1	0	1	0	0	895.905	0.63478	0.634639	0.108538	7	0.155794	11	0	62.9849	6.88824e-05	5847.15
2	1	0	1	0	0	898.701	0.620798	0.620569	0.0529057	7	0.156019	11	0	65.7811	3.28317e-05	11729.7
2	1	0	1	0	0	901.497	0.606818	0.606647	0.0249714	7	0.156126	11	0	68.5772	1.51489e-05	24293.7
2	1	0	1	0	0	904.293	0.592838	0.592594	0.0101012	7	0.156172	11	0	71.3733	5.98588e-06	58665.9
2	1	0	0	0	0	907.089	0.578857	0.57858	0.00323343	7	0.156183	11	0	0.000000000000000E+000	1.8708e-06	178937
2	1	0	1	0	0	909.885	0.564877	0.56469	-0.0012139	7	0.156176	11	0	0.9986	-6.85476e-07	465188
2	1	0	1	0	0	912.682	0.550896	0.55063	-0.00504566	7	0.156159	11	0	3.7948	-2.7783e-06	109129
2	1	0	0	0	0	915.478	0.536915	0.536684	-0.00886028	7	0.156137	11	0	6.5909	-4.75517e-06	60571.9
2	0	0	1	0	0	918.274	0.522935	0.522686	-0.0119224	7	0.156111	11	0	9.387	-6.23166e-06	43840.8
2	0	0	1	0	0	921.07	0.508954	0.508744	-0.0141218	7	0.156082	11	0	12.1831	-7.18436e-06	36025.5
2	0	0	1	0	0	923.866	0.494974	0.494787	-0.0129549	7	0.156052	11	0	14.9792	-6.40992e-06	38193.1
2	1	0	1	0	0	926.662	0.480993	0.48074	-0.0112547	7	0.156021	11	0	17.7754	-5.41057e-06	42714.8
2	0	0	1	0	0	929.458	0.467012	0.466787	-0.0102705	7	0.155988	11	0	20.5715	-4.79415e-06	45449.2
2	0	0	1	0	0	932.254	0.453032	0.452787	-0.0109608	7	0.155953	11	0	23.3676	-4.96289e-06	41309.7
2	1	0	1	0	1	934.908	0.460272	0.460043	0.0161393	8	0.155969	11	0	1.9973	7.42477e-06	28504.6
2	1	0	1	0	1	937.704	0.474252	0.474001	0.0159721	8	0.156004	11	0	4.7934	7.5708e-06	29676.8
2	1	0	1	0	1	940.5	0.488233	0.488045	0.015765	8	0.156039	11	0	7.5895	7.69403e-06	30957.5
2	1	0	0	0	1	943.296	0.502213	0.501969	0.0152319	8	0.156074	11	0	10.3856	7.64596e-06	32955
2	1	0	1	0	1	946.092	0.516193	0.516007	0.0152311	8	0.15611	11	0	13.1817	7.85934e-06	33878.6
2	1	0	1	0	1	948.889	0.530175	0.529976	0.0150371	8	0.156145	11	0	15.9779	7.96928e-06	35244.6
2	1	0	0	0	1	951.685	0.544155	0.543922	0.016701	8	0.156182	11	0	18.774	9.08405e-06	32568.2
2	1	0	1	0	1	954.481	0.558136	0.557903	0.0177889	8	0.156223	11	0	21.5701	9.9245e-06	31362.3
2	1	0	1	0	1	957.277	0.572116	0.57192	0.0211004	8	0.15627	11	0	24.3662	1.20677e-05	27104.6
2	1	0	1	0	1	960.073	0.586097	0.585912	0.0268557	8	0.156332	11	0	27.1623	1.5735e-05	21817.1
2	1	0	1	0	1	962.869	0.600078	0.599849	0.0402162	8	0.156421	11	0	29.9585	2.41236e-05	14915.6
2	1	0	1	0	1	965.665	0.614058	0.613857	0.066333	8	0.156565	11	0	32.7546	4.0719e-05	9254.18
2	1	0	1	0	1	968.461	0.628039	0.62785	0.118236	8	0.156817	11	0	35.5507	7.42347e-05	5310.13
2	1	0	1	0	1	971.258	0.64202	0.641813	0.220338	8	0.157282	11	0	38.3469	0.000141416	2912.86
2	1	0	1	0	1	974.054	0.656	0.655793	0.406957	8	0.158142	11	0	41.143	0.00026688	1611.45
2	1	0	1	0	1	976.85	0.669981	0.669767	0.718683	8	0.159693	11	0	43.9391	0.00048135	931.936
2	1	0	0	0	1	979.646	0.683961	0.683772	1.17911	8	0.162322	11	0	46.7352	0.000806244	579.904
2	1	0	1	0	1	982.442	0.697941	0.697716	1.73939	8	0.166417	11	0	49.5313	0.0012136	401.126
2	1	0	0	0	1	985.011	0.689204	0.688991	1.09657	8	0.170202	11	0	52.1	0.000755525	628.316
2	1	0	1	0	1	987.807	0.675224	0.67503	0.62442	8	0.172543	11	0	54.8961	0.000421502	1081.05
2	1	0	1	0	1	990.603	0.661242	0.661045	0.346568	8	0.173867	11	0	57.6923	0.000229097	1907.41
2	1	0	0	0	1	993.399	0.647262	0.647075	0.194595	8	0.174609	11	0	60.4884	0.000125918	3325.23
2	1	0	1	0	1	996.195	0.633282	0.633149	0.10105	8	0.175017	11	0	63.2845	6.39799e-05	6265.68
2	1	0	1	0	1	998.991	0.619301	0.619105	0.048097	8	0.175223	11	0	66.0806	2.97771e-05	12872
2	1	0	1	0	1	1001.79	0.605321	0.605149	0.0198163	8	0.175318	11	0	68.8767	1.19918e-05	30537.9
2	0	0	1	0	1	1004.58	0.591339	0.59111	0.00508632	8	0.175354	11	0	71.6729	3.00657e-06	116215
2	0	0	1	0	1	1007.38	0.577359	0.57713	-0.00222158	8	0.17536	11	0	0.000000000000000E+000	-1.28214e-06	259784
2	0	0	1	0	1	1010.18	0.563379	0.563122	-0.00654279	8	0.17535	11	0	1.9972	-3.68439e-06	86067.6
2	0	0	1	0	1	1012.97	0.549397	0.549151	-0.00875514	8	0.175333	11	0	4.7934	-4.80789e-06	62723.2
2	0	0	1	0	1	1015.77	0.535417	0.535196	-0.00912335	8	0.17531	11	0	7.5895	-4.88278e-06	58662.2
2	1	0	1	0	1	1018.56	0.521437	0.521199	-0.00841122	8	0.175284	11	0	10.3856	-4.38392e-06	61964.8
2	0	0	0	0	1	1021.36	0.507456	0.507224	-0.00875168	8	0.175256	11	0	13.1817	-4.43906e-06	57957.3
2	0	0	1	0	1	1024.16	0.493476	0.493266	-0.00940744	8	0.175227	11	0	15.9778	-4.64037e-06	52433.6
2	0	0	1	0	1	1026.95	0.479494	0.479296	-0.0109481	8	0.175195	11	0	18.774	-5.24741e-06	43778.8
2	0	0	0	0	1	1029.75	0.465514	0.465279	-0.011414	8	0.175162	11	0	21.5701	-5.31071e-06	40763.8
2	0	0	1	0	1	1032.54	0.451534	0.451359	-0.0128182	8	0.175128	11	0	24.3662	-5.78563e-06	35212.2
2	0	0	1	0	0	1035.2	0.46177	0.461501	0.012716	9	0.175152	11	0	2.2969	5.86843e-06	36293.1
2	0	0	0	0	0	1037.99	0.47575	0.475517	0.01151	9	0.175186	11	0	5.093	5.47318e-06	41313.5
2	0	0	1	0	0	1040.79	0.489731	0.489522	0.0105132	9	0.175221	11	0	7.8891	5.14642e-06	46562.8
2	0	0	1	0	0	1043.59	0.503711	0.50346	0.0100923	9	0.175256	11	0	10.6852	5.0811e-06	49885.3
2	0	0	1	0	0	1046.38	0.517692	0.517474	0.00954458	9	0.175291	11	0	13.4813	4.93908e-06	54216.6
2	0	0	1	0	0	1049.18	0.531673	0.531491	0.00954471	9	0.175327	11	0	16.2775	5.07293e-06	55684.3
2	0	0	1	0	0	1051.98	0.545653	0.545435	0.00991233	9	0.175364	11	0	19.0736	5.40653e-06	55025.9
2	0	0	1	0	0	1054.77	0.559634	0.559423	0.0117455	9	0.175405	11	0	21.8697	6.57068e-06	47628.8
2	1	0	0	0	0	1057.57	0.573614	0.573344	0.015403	9	0.175452	11	0	24.6658	8.83123e-06	37222.8
2	1	0	1	0	0	1060.36	0.587594	0.587418	0.0237194	9	0.175514	11	0	27.4619	1.39332e-05	24765.3
2	1	0	1	0	0	1063.16	0.601576	0.601391	0.0390481	9	0.175605	11	0	30.2581	2.34832e-05	15401.3
2	1	0	0	0	0	1065.96	0.615556	0.61535	0.0674458	9	0.17575	11	0	33.0542	4.15028e-05	9123.61
2	1	0	1	0	0	1068.75	0.629537	0.629334	0.122897	9	0.176008	11	0	35.8503	7.73431e-05	5120.84
2	1	0	1	0	0	1071.55	0.643517	0.643322	0.229795	9	0.176481	11	0	38.6464	0.000147832	2799.55
2	1	0	1	0	0	1074.34	0.657498	0.657279	0.427041	9	0.177367	11	0	41.4425	0.000280685	1539.15
2	1	0	1	0	0	1077.14	0.671479	0.671253	0.755743	9	0.178979	11	0	44.2387	0.000507295	888.203
2	1	0	1	0	0	1079.94	0.685459	0.685275	1.23516	9	0.181725	11	0	47.0348	0.000846426	554.805
2	1	0	1	0	0	1082.73	0.699439	0.699226	1.80623	9	0.185964	11	0	49.8309	0.00126296	387.119
2	1	0	1	0	0	1085.3	0.687706	0.687489	1.09237	9	0.189615	11	0	52.3996	0.000750992	629.356
2	1	0	1	0	0	1088.1	0.673726	0.673516	0.634326	9	0.191979	11	0	55.1957	0.000427229	1061.78
2	1	0	1	0	0	1090.89	0.659744	0.659524	0.358704	9	0.193333	11	0	57.9919	0.000236574	1838.63
2	1	0	1	0	0	1093.69	0.645764	0.645596	0.194692	9	0.194083	11	0	60.788	0.000125693	3315.98
2	1	0	1	0	0	1096.49	0.631783	0.631545	0.0993385	9	0.194473	11	0	63.5841	6.27367e-05	6357.51
2	1	0	0	0	0	1099.28	0.617803	0.617581	0.0458468	9	0.194664	11	0	66.3802	2.83141e-05	13470.5
2	1	0	1	0	0	1102.08	0.603823	0.603589	0.0167309	9	0.194752	11	0	69.1763	1.00986e-05	36076.2
2	1	0	1	0	0	1104.87	0.589841	0.589619	0.00515481	9	0.194785	11	0	71.9725	3.03938e-06	114382
2	1	0	0	0	0	1107.67	0.575861	0.575608	0.00130102	9	0.194789	11	0	0.000000000000000E+000	7.48877e-07	442429
2	1	0	1	0	0	1110.47	0.561881	0.561661	-0.00238434	9	0.194778	11	0	2.0971	-1.33919e-06	235562
2	0	0	1	0	0	1113.26	0.5479	0.547684	-0.00619531	9	0.19476	11	0	4.8932	-3.39307e-06	88403
2	0	0	1	0	0	1116.06	0.53392	0.533694	-0.0101377	9	0.194736	11	0	7.6893	-5.41042e-06	52644.6
2	0	0	1	0	0	1118.85	0.519939	0.519708	-0.0129232	9	0.19471	11	0	10.4855	-6.71627e-06	40215.2
2	0	0	1	0	0	1121.65	0.505958	0.505674	-0.0120967	9	0.194682	11	0	13.2816	-6.11699e-06	41802.7
2	1	0	1	0	0	1124.45	0.491978	0.491748	-0.00871142	9	0.194652	11	0	16.0777	-4.28382e-06	56448.7
2	1	0	1	0	0	1127.24	0.477996	0.477779	-0.00770545	9	0.194621	11	0	18.8739	-3.6815e-06	62005.3
2	1	0	1	0	0	1130.04	0.464016	0.463785	-0.00986256	9	0.194588	11	0	21.67	-4.5741e-06	47024.7
2	0	0	1	0	0	1132.81	0.450161	0.450003	-0.0103474	9	0.194553	11	0	24.4411	-4.65637e-06	43489.3
2	0	0	0	0	1	1135.49	0.463267	0.46301	0.00802682	10	0.194584	11	0	2.5964	3.7165e-06	57682.8
2	1	0	1	0	1	1138.28	0.477248	0.477056	0.0131832	10	0.194619	11	0	5.3925	6.28913e-06	36186.6
2	1	0	1	0	1	1141.08	0.491229	0.491034	0.0154819	10	0.194653	11	0	8.1887	7.60216e-06	31716.5
2	0	0	0	0	1	1143.88	0.505209	0.504974	0.0102592	10	0.194688	11	0	10.9848	5.18062e-06	49221.6
2	0	0	1	0	1	1146.67	0.51919	0.518968	0.00915373	10	0.194722	11	0	13.7809	4.7505e-06	56694.7
2	1	0	1	0	1	1149.47	0.533171	0.532952	0.0149482	10	0.194758	11	0	16.5771	7.9667e-06	35653.2
2	1	0	0	0	1	1152.27	0.547151	0.546932	0.0159389	10	0.194795	11	0	19.3732	8.71749e-06	34314.3
2	0	0	1	0	1	1155.06	0.561132	0.560919	0.0138143	10	0.194836	11	0	22.1693	7.74867e-06	40604.3
2	0	0	1	0	1	1157.86	0.575112	0.574873	0.0157674	10	0.194884	11	0	24.9654	9.06426e-06	36459.5
2	1	0	1	0	1	1160.65	0.589093	0.588901	0.0288774	10	0.194948	11	0	27.7615	1.70059e-05	20393.1
2	1	0	1	0	1	1163.45	0.603074	0.602861	0.0402553	10	0.195041	11	0	30.5577	2.42683e-05	14975.9
2	1	0	1	0	1	1166.25	0.617054	0.616853	0.0689872	10	0.195195	11	0	33.3538	4.25549e-05	8941.55
2	1	0	1	0	1	1169.04	0.631035	0.630835	0.131937	10	0.195467	11	0	36.1499	8.32304e-05	4781.35
2	1	0	0	0	1	1171.84	0.645015	0.644809	0.243892	10	0.195971	11	0	38.946	0.000157264	2643.83
2	1	0	1	0	1	1174.63	0.658995	0.658776	0.443653	10	0.196907	11	0	41.7421	0.000292268	1484.89
2	1	0	1	0	1	1177.43	0.672977	0.672779	0.785643	10	0.198596	11	0	44.5383	0.000528565	856.342
2	1	0	0	0	1	1180.23	0.686957	0.686771	1.30228	10	0.201472	11	0	47.3344	0.000894367	527.362
2	1	0	1	0	1	1182.84	0.699964	0.699745	1.84625	10	0.205568	11	0	49.948	0.00129191	379.009
2	1	0	0	0	1	1185.59	0.686208	0.686007	1.00534	10	0.20933	11	0	52.6992	0.000689668	682.366
2	1	0	1	0	1	1188.39	0.672228	0.672014	0.57966	10	0.211495	11	0	55.4953	0.000389539	1159.32
2	1	0	1	0	1	1191.18	0.658247	0.658015	0.329271	10	0.212727	11	0	58.2914	0.000216665	1998.4
2	1	0	1	0	1	1193.98	0.644267	0.644083	0.171379	10	0.213405	11	0	61.0875	0.000110383	3758.23
2	1	0	1	0	1	1196.78	0.630286	0.630052	0.0856675	10	0.213757	11	0	63.8837	5.39749e-05	7354.62
2	1	0	1	0	1	1199.57	0.616305	0.616102	0.0436757	10	0.213929	11	0	66.6798	2.69087e-05	14106.3
2	1	0	1	0	1	1202.37	0.602325	0.602094	0.0190443	10	0.214006	11	0	69.4759	1.14665e-05	31615.4
2	0	0	1	0	1	1205.16	0.588343	0.588102	0.00209221	10	0.214034	11	0	72.2721	1.23044e-06	281091
2	0	0	1	0	1	1207.96	0.574363	0.574162	-0.00339445	10	0.214037	11	0	0.000000000000000E+000	-1.94897e-06	169147
2	1	0	1	0	1	1210.76	0.560382	0.560166	-0.00260327	10	0.214025	11	0	1.8974	-1.45826e-06	215178
2	0	0	0	0	1	1213.55	0.546402	0.546184	-0.0080378	10	0.214006	11	0	4.6935	-4.39012e-06	67952
2	0	0	1	0	1	1216.35	0.532422	0.532214	-0.0119267	10	0.213982	11	0	7.4896	-6.34758e-06	44623.5
2	1	0	1	0	1	1219.15	0.51844	0.51819	-0.00715776	10	0.213957	11	0	10.2858	-3.70908e-06	72395.6
2	0	0	0	0	1	1221.94	0.50446	0.504202	-0.00776185	10	0.213928	11	0	13.0819	-3.91354e-06	64959.1
2	0	0	1	0	1	1224.74	0.49048	0.490251	-0.0136818	10	0.213898	11	0	15.878	-6.7075e-06	35832.5
2	0	0	1	0	1	1227.53	0.476499	0.476256	-0.0129959	10	0.213867	11	0	18.6741	-6.18938e-06	36646.6
2	1	0	1	0	1	1230.33	0.462519	0.462272	-0.00823545	10	0.213835	11	0	21.4702	-3.80702e-06	56132
2	1	0	1	0	0	1232.98	0.450785	0.450558	0.0126715	11	0.213805	11	0	0.0999	5.70926e-06	35556.7
2	0	0	1	0	0	1235.78	0.464765	0.464533	0.00890328	11	0.213838	11	0	2.896	4.13586e-06	52175.5
2	0	0	1	0	0	1238.58	0.478746	0.478541	0.0091672	11	0.213872	11	0	5.6921	4.38688e-06	52201.4
2	1	0	1	0	0	1241.37	0.492727	0.492479	0.0141619	11	0.213907	11	0	8.4883	6.97445e-06	34774.8
2	1	0	1	0	0	1244.17	0.506707	0.506456	0.0145774	11	0.213941	11	0	11.2844	7.3828e-06	34742.5
2	0	0	1	0	0	1246.96	0.520688	0.520467	0.00876009	11	0.213975	11	0	14.0805	4.55934e-06	59413.4
2	1	0	0	0	0	1249.76	0.534668	0.534488	0.012063	11	0.214011	11	0	16.8766	6.44755e-06	44307.9
2	1	0	1	0	0	1252.56	0.548649	0.548398	0.0160392	11	0.214048	11	0	19.6727	8.79588e-06	34191.1
2	0	0	1	0	0	1255.35	0.56263	0.562425	0.0125716	11	0.214089	11	0	22.4689	7.07059e-06	44737.7
2	1	0	0	0	0	1258.15	0.57661	0.576366	0.01822	11	0.214138	11	0	25.265	1.05014e-05	31633.7
2	1	0	1	0	0	1260.94	0.590591	0.59039	0.0304857	11	0.214202	11	0	28.0611	1.79984e-05	19366.2
2	1	0	1	0	0	1263.74	0.604572	0.604342	0.0446914	11	0.214298	11	0	30.8573	2.70089e-05	13522.5
2	1	0	0	0	0	1266.54	0.618552	0.61836	0.0719712	11	0.214457	11	0	33.6534	4.45041e-05	8591.77
2	1	0	1	0	0	1269.33	0.632533	0.632334	0.133138	11	0.214742	11	0	36.4495	8.41879e-05	4749.45
2	1	0	1	0	0	1272.13	0.646513	0.646333	0.254862	11	0.215268	11	0	39.2456	0.000164726	2536.01
2	1	0	1	0	0	1274.92	0.660494	0.660264	0.466074	11	0.216244	11	0	42.0417	0.000307732	1416.65
2	1	0	1	0	0	1277.72	0.674475	0.674237	0.805807	11	0.217993	11	0	44.8379	0.000543304	836.723
2	1	0	1	0	0	1280.52	0.688455	0.688255	1.27832	11	0.220888	11	0	47.634	0.000879812	538.406
2	1	0	1	0	0	1283.09	0.69869	0.698467	1.59774	11	0.22478	11	0	50.2027	0.00111597	437.159
2	1	0	1	0	0	1285.88	0.68471	0.684497	0.893031	11	0.228132	11	0	52.9988	0.000611277	766.487
2	1	0	1	0	0	1288.68	0.67073	0.670542	0.5163	11	0.230044	11	0	55.7949	0.0003462	1298.75
2	1	0	0	0	0	1291.47	0.656749	0.656509	0.292626	11	0.231146	11	0	58.591	0.000192112	2243.51
2	1	0	1	0	0	1294.27	0.642769	0.642582	0.149884	11	0.231741	11	0	61.3871	9.63124e-05	4287.21
2	1	0	1	0	0	1297.07	0.628787	0.628559	0.0752191	11	0.232049	11	0	64.1833	4.72797e-05	8356.38
2	1	0	0	0	0	1299.86	0.614807	0.614637	0.0398342	11	0.232203	11	0	66.9794	2.44836e-05	15429.9
2	1	0	1	0	0	1302.66	0.600827	0.600574	0.0154007	11	0.232271	11	0	69.7755	9.24927e-06	38996.5
2	0	0	1	0	0	1305.45	0.586846	0.586656	0.000679221	11	0.232295	11	0	72.5716	3.98469e-07	863719
2	1	0	1	0	0	1308.25	0.572866	0.572667	-0.00103248	11	0.232295	11	0	0.000000000000000E+000	-5.91268e-07	554652
2	1	0	1	0	0	1311.05	0.558885	0.558668	-0.00378737	11	0.232282	11	0	2.6963	-2.11588e-06	147508
2	0	0	1	0	0	1313.84	0.544904	0.544658	-0.0104891	11	0.232262	11	0	5.4924	-5.71295e-06	51926.3
2	0	0	1	0	0	1316.64	0.530924	0.530728	-0.0102656	11	0.232238	11	0	8.2885	-5.44827e-06	51699.5
2	1	0	1	0	0	1319.44	0.516942	0.516734	-0.00714003	11	0.232212	11	0	11.0847	-3.68949e-06	72371.4
2	1	0	1	0	0	1322.23	0.502962	0.502695	-0.0082589	11	0.232183	11	0	13.8808	-4.15171e-06	60867.1
2	0	0	1	0	0	1325.03	0.488982	0.488779	-0.0128227	11	0.232153	11	0	16.6769	-6.26746e-06	38118.3
2	0	0	0	0	0	1327.82	0.475001	0.474793	-0.014087	11	0.232122	11	0	19.473	-6.6884e-06	33704.4
2	1	0	1	0	0	1330.62	0.461021	0.460783	-0.0101715	11	0.232089	11	0	22.2691	-4.68686e-06	45301.3
2	1	0	1	0	1	1333.27	0.452283	0.452052	0.0143137	12	0.232066	11	0	0.3995	6.47054e-06	31581.8
2	1	0	0	0	1	1336.07	0.466263	0.466024	0.012264	12	0.232099	11	0	3.1956	5.71531e-06	37999.5
2	0	0	1	0	1	1338.87	0.480244	0.480049	0.00936933	12	0.232134	11	0	5.9917	4.49774e-06	51236.2
2	1	0	1	0	1	1341.66	0.494225	0.494046	0.0147159	12	0.232168	11	0	8.7879	7.27035e-06	33572.2
2	1	0	0	0	1	1344.46	0.508205	0.507994	0.0117001	12	0.232202	11	0	11.584	5.94359e-06	43417.8
2	0	0	1	0	1	1347.25	0.522186	0.522001	0.00987651	12	0.232237	11	0	14.3801	5.15554e-06	52852.8
2	1	0	1	0	1	1350.05	0.536166	0.535955	0.0158128	12	0.232272	11	0	17.1762	8.47493e-06	33893.8
2	0	0	1	0	1	1352.85	0.550147	0.550004	0.0124893	12	0.232309	11	0	19.9723	6.86914e-06	44038.1
2	0	0	1	0	1	1355.64	0.564128	0.563928	0.0135946	12	0.23235	11	0	22.7685	7.66639e-06	41481.7
2	1	0	1	0	1	1358.44	0.578108	0.577884	0.0224354	12	0.2324	11	0	25.5646	1.29651e-05	25757.6
2	1	0	1	0	1	1361.23	0.592089	0.591846	0.027654	12	0.232465	11	0	28.3607	1.63669e-05	21401.8
2	1	0	0	0	1	1364.03	0.606069	0.605923	0.042911	12	0.232564	11	0	31.1568	2.60008e-05	14120.5
2	1	0	1	0	1	1366.83	0.62005	0.61979	0.0785489	12	0.232729	11	0	33.9529	4.86839e-05	7890.5
2	1	0	1	0	1	1369.62	0.634031	0.633819	0.137214	12	0.233023	11	0	36.7491	8.69691e-05	4619.19
2	1	0	0	0	1	1372.42	0.648011	0.647871	0.262982	12	0.233567	11	0	39.5452	0.000170379	2463.55
2	1	0	1	0	1	1375.22	0.661992	0.661734	0.473171	12	0.234569	11	0	42.3413	0.000313113	1398.51
2	1	0	1	0	1	1378.01	0.675973	0.675771	0.814996	12	0.236343	11	0	45.1375	0.00055075	829.171
2	1	0	0	0	1	1380.81	0.689953	0.689757	1.29265	12	0.239269	11	0	47.9336	0.000891616	533.599
2	1	0	1	0	1	1383.38	0.697193	0.696985	1.43694	12	0.243102	11	0	50.5022	0.00100153	485.048
2	1	0	1	0	1	1386.17	0.683213	0.683029	0.80086	12	0.246136	11	0	53.2983	0.000547011	852.869
2	1	0	1	0	1	1388.97	0.669231	0.669039	0.454443	12	0.247834	11	0	56.0945	0.00030404	1472.22
2	1	0	1	0	1	1391.76	0.655251	0.655022	0.247861	12	0.248787	11	0	58.8906	0.000162354	2642.7
2	1	0	1	0	1	1394.56	0.641271	0.641122	0.130646	12	0.249301	11	0	61.6867	8.37598e-05	4907.34
2	1	0	1	0	1	1397.36	0.627289	0.627062	0.0719354	12	0.249577	11	0	64.4829	4.5108e-05	8717.02
2	1	0	1	0	1	1400.15	0.613309	0.61308	0.033174	12	0.249714	11	0	67.279	2.03383e-05	18480.8
2	1	0	1	0	1	1402.95	0.599329	0.599112	0.0099474	12	0.249774	11	0	70.0751	5.95961e-06	60228
2	1	0	0	0	1	1405.75	0.585348	0.585182	0.00471487	12	0.249792	11	0	72.8712	2.75906e-06	124114
2	0	0	1	0	1	1408.54	0.571368	0.571177	-0.00364848	12	0.249789	11	0	1.1983	-2.08393e-06	156552
2	0	0	1	0	1	1411.34	0.557387	0.557171	-0.00839474	12	0.249774	11	0	3.9945	-4.67731e-06	66371.5
2	1	0	0	0	1	1414.13	0.543406	0.543165	-0.00614191	12	0.249753	11	0	6.7906	-3.33607e-06	88435.9
2	0	0	1	0	1	1416.93	0.529426	0.529203	-0.00917693	12	0.249729	11	0	9.5867	-4.85645e-06	57666.7
2	0	0	1	0	1	1419.73	0.515445	0.515243	-0.00873588	12	0.249701	11	0	12.3828	-4.50109e-06	58980.1
2	0	0	1	0	1	1422.52	0.501465	0.501193	-0.0132515	12	0.249673	11	0	15.1789	-6.64154e-06	37821.8
2	1	0	1	0	1	1425.32	0.487484	0.487245	-0.00835992	12	0.249643	11	0	17.9751	-4.07333e-06	58283.4
2	1	0	1	0	1	1428.11	0.473503	0.473298	-0.0104796	12	0.249612	11	0	20.7712	-4.95998e-06	45163.6
2	0	0	1	0	1	1430.91	0.459523	0.459259	-0.0153901	12	0.249579	11	0	23.5673	-7.06804e-06	29841.2
2	1	0	1	0	0	1433.56	0.453781	0.453585	0.0124584	13	0.249563	11	0	0.6991	5.65093e-06	36408
2	1	0	1	0	0	1436.36	0.467761	0.467567	0.0141385	13	0.249596	11	0	3.4952	6.6107e-06	33070.5
2	0	0	1	0	0	1439.16	0.481742	0.481478	0.00864127	13	0.24963	11	0	6.2913	4.16058e-06	55718.5
2	1	0	0	0	0	1441.95	0.495722	0.495511	0.0132869	13	0.249665	11	0	9.0874	6.58378e-06	37293.3
2	1	0	1	0	0	1444.75	0.509702	0.509526	0.0140259	13	0.249699	11	0	11.8835	7.14658e-06	36327.4
2	0	0	1	0	0	1447.54	0.523684	0.523469	0.00931971	13	0.249733	11	0	14.6797	4.87858e-06	56168
2	1	0	0	0	0	1450.34	0.537664	0.537383	0.0136177	13	0.249769	11	0	17.4758	7.31794e-06	39461.9
2	1	0	1	0	0	1453.14	0.551645	0.551443	0.0150809	13	0.249805	11	0	20.2719	8.31625e-06	36565.6
2	0	0	1	0	0	1455.93	0.565625	0.565402	0.0125806	13	0.249847	11	0	23.068	7.11308e-06	44942.5
2	1	0	0	0	0	1458.73	0.579606	0.579323	0.0212687	13	0.249897	11	0	25.8642	1.23214e-05	27238.3
2	1	0	1	0	0	1461.53	0.593587	0.593391	0.0302812	13	0.249963	11	0	28.6603	1.79686e-05	19596
2	1	0	1	0	0	1464.32	0.607567	0.607369	0.0426357	13	0.250065	11	0	31.4564	2.58956e-05	14245.5
2	1	0	1	0	0	1467.12	0.621548	0.621281	0.0796105	13	0.250235	11	0	34.2525	4.94605e-05	7804.01
2	1	0	1	0	0	1469.91	0.635529	0.635372	0.14755	13	0.25054	11	0	37.0487	9.37493e-05	4306.14
2	1	0	1	0	0	1472.71	0.649509	0.649325	0.268639	13	0.251106	11	0	39.8448	0.000174434	2417.1
2	1	0	1	0	0	1475.51	0.66349	0.663323	0.494492	13	0.25215	11	0	42.6409	0.000328008	1341.42
2	1	0	0	0	0	1478.3	0.67747	0.677242	0.850252	13	0.253993	11	0	45.437	0.000575826	796.519
2	1	0	1	0	0	1481.1	0.69145	0.69123	1.32252	13	0.25702	11	0	48.2331	0.000914169	522.66
2	1	0	0	0	0	1483.67	0.695695	0.695512	1.36781	13	0.260868	11	0	50.8018	0.000951331	508.484
2	1	0	1	0	0	1486.46	0.681715	0.681523	0.776448	13	0.263783	11	0	53.5979	0.000529167	877.744
2	1	0	1	0	0	1489.26	0.667733	0.667504	0.445687	13	0.265446	11	0	56.3941	0.000297498	1497.7
2	1	0	0	0	0	1492.05	0.653753	0.653541	0.246978	13	0.26639	11	0	59.1902	0.00016141	2646.15
2	1	0	1	0	0	1494.85	0.639773	0.63957	0.128409	13	0.266891	11	0	61.9863	8.21269e-05	4980.71
2	1	0	1	0	0	1497.65	0.625792	0.625641	0.0610408	13	0.26715	11	0	64.7824	3.81896e-05	10249.5
2	1	0	1	0	0	1500.44	0.611812	0.611643	0.0320524	13	0.267275	11	0	67.5785	1.96046e-05	19082.6
2	1	0	1	0	0	1503.24	0.59783	0.597632	0.010856	13	0.267328	11	0	70.3747	6.48791e-06	55050.8
2	0	0	1	0	0	1506.04	0.58385	0.583616	-0.000985239	13	0.267344	11	0	0.000000000000000E+000	-5.75001e-07	592360
2	1	0	1	0	0	1508.83	0.56987	0.569672	-0.00109681	13	0.267339	11	0	1.2982	-6.24822e-07	519389
2	0	0	1	0	0	1511.63	0.555888	0.555659	-0.00850312	13	0.267324	11	0	4.0944	-4.72483e-06	65347.6
2	0	0	1	0	0	1514.42	0.541908	0.541701	-0.00767283	13	0.267303	11	0	6.8905	-4.15638e-06	70599.9
2	1	0	1	0	0	1517.22	0.527928	0.52775	-0.00701695	13	0.267278	11	0	9.6866	-3.70319e-06	75210.8
2	0	0	0	0	0	1520.02	0.513947	0.513759	-0.0128534	13	0.267252	11	0	12.4827	-6.60356e-06	39970.5
2	1	0	1	0	0	1522.81	0.499967	0.499742	-0.00821434	13	0.267223	11	0	15.2788	-4.10505e-06	60837.8
2	0	0	1	0	0	1525.61	0.485985	0.485754	-0.0100976	13	0.267193	11	0	18.075	-4.90492e-06	48106.1
2	0	0	0	0	0	1528.4	0.472005	0.471792	-0.0145178	13	0.267162	11	0	20.8711	-6.84941e-06	32497.4
2	1	0	1	0	0	1531.2	0.458025	0.457786	-0.0097371	13	0.267129	11	0	23.6672	-4.45751e-06	47014.7
2	1	0	1	0	1	1533.85	0.455279	0.455053	0.0136883	14	0.26712	11	0	0.9987	6.22888e-06	33244.1
2	0	0	1	0	1	1536.65	0.469259	0.469029	0.00894294	14	0.267152	11	0	3.7947	4.1945e-06	52446.8
2	1	0	1	0	1	1539.45	0.48324	0.483037	0.0107991	14	0.267187	11	0	6.5909	5.21637e-06	44729.4
2	1	0	1	0	1	1542.24	0.49722	0.496999	0.014982	14	0.267221	11	0	9.387	7.44606e-06	33173
2	1	0	1	0	1	1545.04	0.511201	0.510942	0.0141562	14	0.267254	11	0	12.1831	7.23299e-06	36093.2
2	1	0	1	0	1	1547.83	0.525182	0.524964	0.0118694	14	0.267288	11	0	14.9793	6.23098e-06	44228.5
2	0	0	1	0	1	1550.63	0.539162	0.53895	0.00924247	14	0.267323	11	0	17.7754	4.98123e-06	58312.3
2	1	0	1	0	1	1553.43	0.553143	0.552935	0.0132219	14	0.26736	11	0	20.5715	7.31087e-06	41819.6
2	1	0	0	0	1	1556.22	0.567123	0.566894	0.018408	14	0.267401	11	0	23.3676	1.04354e-05	30796
2	1	0	1	0	1	1559.02	0.581103	0.580887	0.0230511	14	0.267451	11	0	26.1637	1.33901e-05	25199.9
2	1	0	1	0	1	1561.82	0.595085	0.594876	0.0289666	14	0.267519	11	0	28.9599	1.72315e-05	20536.6
2	1	0	0	0	1	1564.61	0.609065	0.608854	0.0441192	14	0.267623	11	0	31.756	2.68621e-05	13800.2
2	1	0	1	0	1	1567.41	0.623046	0.6228	0.0800515	14	0.267799	11	0	34.5521	4.9856e-05	7779.99
2	1	0	1	0	1	1570.2	0.637026	0.636814	0.152628	14	0.268115	11	0	37.3482	9.71954e-05	4172.34
2	1	0	1	0	1	1573	0.651006	0.650786	0.28335	14	0.268702	11	0	40.1443	0.0001844	2296.76
2	1	0	1	0	1	1575.8	0.664988	0.664775	0.511238	14	0.269784	11	0	42.9405	0.000339858	1300.32
2	1	0	1	0	1	1578.59	0.678968	0.67871	0.872528	14	0.271691	11	0	45.7366	0.000592193	777.866
2	1	0	1	0	1	1581.39	0.692949	0.692788	1.35269	14	0.274779	11	0	48.5327	0.000937126	512.156
2	1	0	1	0	1	1583.96	0.694197	0.693957	1.23296	14	0.27851	11	0	51.1014	0.00085562	562.839
2	1	0	1	0	1	1586.75	0.680217	0.679973	0.67706	14	0.281094	11	0	53.8975	0.000460382	1004.3
2	1	0	1	0	1	1589.55	0.666236	0.666045	0.388358	14	0.282546	11	0	56.6937	0.000258664	1715.03
2	1	0	1	0	1	1592.35	0.652255	0.652032	0.215806	14	0.283366	11	0	59.4898	0.000140712	3021.38
2	1	0	1	0	1	1595.14	0.638274	0.638072	0.113125	14	0.283807	11	0	62.2859	7.21819e-05	5640.42
2	1	0	0	0	1	1597.94	0.624294	0.624077	0.052022	14	0.284029	11	0	65.082	3.24657e-05	11996.4
2	1	0	1	0	1	1600.73	0.610314	0.610148	0.0224869	14	0.284135	11	0	67.8781	1.37203e-05	27133.5
2	1	0	1	0	1	1603.53	0.596332	0.596131	0.0107479	14	0.284178	11	0	70.6743	6.40716e-06	55465
2	1	0	0	0	1	1606.33	0.582352	0.5821	0.00185499	14	0.284188	11	0	0.000000000000000E+000	1.07979e-06	313803
2	0	0	1	0	1	1609.12	0.568372	0.568215	-0.00707087	14	0.284181	11	0	1.1983	-4.01778e-06	80360
2	0	0	1	0	1	1611.92	0.554391	0.554193	-0.0079356	14	0.284165	11	0	3.9944	-4.39786e-06	69836.3
2	1	0	1	0	1	1614.71	0.540411	0.540161	-0.00534104	14	0.284143	11	0	6.7905	-2.88502e-06	101134
2	0	0	1	0	1	1617.51	0.526429	0.526223	-0.00791687	14	0.284118	11	0	9.5867	-4.16604e-06	66468.6
2	0	0	1	0	1	1620.31	0.512449	0.512234	-0.0126638	14	0.284092	11	0	12.3828	-6.48685e-06	40448.6
2	0	0	1	0	1	1623.1	0.498469	0.498233	-0.0103048	14	0.284063	11	0	15.1789	-5.13417e-06	48349.8
2	1	0	1	0	1	1625.9	0.484487	0.484297	-0.00766534	14	0.284033	11	0	17.9751	-3.7123e-06	63180.1
2	0	0	1	0	1	1628.69	0.470507	0.470313	-0.0126035	14	0.284002	11	0	20.7712	-5.92761e-06	37315.9
2	0	0	1	0	1	1631.49	0.456527	0.456295	-0.0140352	14	0.283969	11	0	23.5673	-6.40417e-06	32510.9
2	1	0	0	0	0	1634.14	0.456776	0.456542	0.013501	15	0.283968	11	0	1.2982	6.16379e-06	33815.3
2	1	0	1	0	0	1636.94	0.470756	0.470538	0.0134389	15	0.284	11	0	4.0943	6.32353e-06	35013.1
2	0	0	1	0	0	1639.74	0.484738	0.484528	0.00857296	15	0.284034	11	0	6.8905	4.15384e-06	56518.1
2	1	0	0	0	0	1642.53	0.498718	0.498454	0.0136609	15	0.284068	11	0	9.6866	6.80933e-06	36487.7
2	1	0	1	0	0	1645.33	0.512699	0.512494	0.0140227	15	0.284102	11	0	12.4827	7.18657e-06	36547.4
2	0	0	1	0	0	1648.13	0.52668	0.526528	0.0095858	15	0.284136	11	0	15.2789	5.04719e-06	54927.9
2	1	0	1	0	0	1650.92	0.54066	0.540428	0.015256	15	0.284171	11	0	18.0749	8.24478e-06	35424
2	0	0	1	0	0	1653.72	0.554641	0.55442	0.011273	15	0.284207	11	0	20.8711	6.24999e-06	49181.1
2	1	0	1	0	0	1656.51	0.568621	0.568459	0.0179805	15	0.28425	11	0	23.6672	1.02212e-05	31615.3
2	1	0	1	0	0	1659.31	0.582602	0.582358	0.019911	15	0.284301	11	0	26.4633	1.15953e-05	29248.1
2	1	0	1	0	0	1662.11	0.596583	0.596378	0.0299455	15	0.284371	11	0	29.2595	1.78589e-05	19915.4
2	1	0	1	0	0	1664.9	0.610563	0.610339	0.0500512	15	0.284479	11	0	32.0556	3.05482e-05	12194.3
2	1	0	1	0	0	1667.7	0.624544	0.624344	0.0841053	15	0.284663	11	0	34.8517	5.25107e-05	7423.36
2	1	0	0	0	0	1670.49	0.638524	0.638293	0.161235	15	0.284995	11	0	37.6478	0.000102915	3958.77
2	1	0	1	0	0	1673.29	0.652504	0.652285	0.292468	15	0.285611	11	0	40.4439	0.000190773	2230.27
2	1	0	1	0	0	1676.09	0.666486	0.666287	0.536121	15	0.286745	11	0	43.2401	0.000357211	1242.79
2	1	0	0	0	0	1678.88	0.680466	0.680233	0.900393	15	0.288723	11	0	46.0362	0.000612476	755.485
2	1	0	1	0	0	1681.68	0.694447	0.694262	1.37018	15	0.291884	11	0	48.8323	0.000951264	506.694
2	1	0	0	0	0	1684.25	0.692699	0.692505	1.12065	15	0.295436	11	0	51.401	0.000776056	617.949
2	1	0	1	0	0	1687.04	0.678719	0.678473	0.640152	15	0.297826	11	0	54.1971	0.000434326	1059.86
2	1	0	1	0	0	1689.84	0.664738	0.664577	0.356694	15	0.29919	11	0	56.9932	0.000237051	1863.16
2	1	0	1	0	0	1692.64	0.650758	0.650561	0.19603	15	0.299937	11	0	59.7893	0.00012753	3318.67
2	1	0	1	0	0	1695.43	0.636777	0.636573	0.0995712	15	0.300335	11	0	62.5855	6.33843e-05	6393.14
2	1	0	1	0	0	1698.23	0.622796	0.622559	0.0475746	15	0.300537	11	0	65.3816	2.9618e-05	13086
2	1	0	1	0	0	1701.02	0.608816	0.608613	0.0238634	15	0.300633	11	0	68.1777	1.45236e-05	25504
2	1	0	1	0	0	1703.82	0.594834	0.594592	0.00857277	15	0.300671	11	0	70.9739	5.09731e-06	69358.2
2	0	0	1	0	0	1706.62	0.580854	0.58059	-0.00355629	15	0.300679	11	0	0.000000000000000E+000	-2.06474e-06	163257
2	1	0	1	0	0	1709.41	0.566874	0.566687	-0.00352569	15	0.300671	11	0	2.197	-1.99796e-06	160731
2	1	0	0	0	0	1712.21	0.552893	0.552651	-0.00513565	15	0.300654	11	0	4.9931	-2.83822e-06	107611
2	0	0	1	0	0	1715	0.538913	0.538681	-0.0106324	15	0.300632	11	0	7.7892	-5.72747e-06	50664.1
2	0	0	1	0	0	1717.8	0.524931	0.524695	-0.0102691	15	0.300607	11	0	10.5854	-5.38814e-06	51094.5
2	1	0	0	0	0	1720.6	0.510951	0.51075	-0.00661526	15	0.30058	11	0	13.3815	-3.37875e-06	77208
2	0	0	1	0	0	1723.39	0.496971	0.496744	-0.0120326	15	0.300551	11	0	16.1776	-5.97712e-06	41283.2
2	0	0	1	0	0	1726.19	0.48299	0.482767	-0.012079	15	0.300521	11	0	18.9737	-5.83133e-06	39967.6
2	1	0	1	0	0	1728.99	0.46901	0.468809	-0.00831765	15	0.300489	11	0	21.7698	-3.89939e-06	56363.1
2	0	0	1	0	0	1731.78	0.455029	0.454809	-0.0138115	15	0.300456	11	0	24.566	-6.28159e-06	32929.8
2	0	0	1	0	0	1732.78	0.450011	0.449754	-0.0338855	15	0.300444	11	0	25.5667	-1.52401e-05	13272.8