File: ACS_Catal_2026/Figures_Na_K/main_figures/data/EC/20251112_2-148_alpha_reproducibility/20251112_2-148_001_alpha_reproducibility_1_K2_01_CVA_C01.mpt
EC-Lab ASCII FILE
Nb header lines : 66

Cyclic Voltammetry Advanced

Run on channel : 1 (SN 69187)
User :
CE vs. WE compliance from -10 V to 10 V
Electrode connection : standard
Potential control : Ewe
Ewe ctrl range : min = -1.00 V, max = 1.00 V
Safety Limits :
	Do not start on E overload
Acquisition started on : 11/12/2025 14:40:36.984
Loaded Setting File :  C:\Users\User\Documents\EC-Lab\Data\Yatsuzuka\20251030_2-147_gamma_reproducibility\20251030_2-147_001_gamma1_K_1.mps
Saved on :
	File : 20251112_2-148_001_alpha_reproducibility_1_K2_01_CVA_C01.mpr
	Directory : C:\Users\User\Documents\EC-Lab\Data\Yatsuzuka\20251112_2-148_alpha_reproducibility\
	Host : 192.109.209.127
Device : SP-150e (SN .003883)
Address : 192.109.209.128
EC-LAB for windows v11.52 (software)
Internet server v11.52 (firmware)
Command interpretor v11.50 (firmware)
Electrode material :
Initial state :
Electrolyte :
Comments :
Electrode surface area : 0.001 cm2
Characteristic mass : 0.001 g
Equivalent Weight : 0.000 g/eq.
Density : 0.000 g/cm3
Volume (V) : 0.001 cm3
Cycle Definition : Charge/Discharge alternance
Ei (V)              0.350
vs.                 Ref
ti (h:m:s)          0:00:10.0000
dti (s)             0.0000
dE/dt               10.000
dE/dt unit          mV/s
E1 (V)              0.450
vs.                 Ref
t1 (h:m:s)          0:00:0.0000
dt1 (s)             0.1000
Step percent        50
N                   10
E range min (V)     -1.000
E range max (V)     1.000
I Range             Auto
I Range min         Unset
I Range max         Unset
I Range init        Unset
Bandwidth           5
E2 (V)              0.350
vs.                 Ref
t2 (h:m:s)          0:00:0.0000
dt2 (s)             0.1000
nc cycles           9
nr                  1
Reverse Scan        0
Ef (V)              0.000
vs.                 Eoc
tf (h:m:s)          0:00:0.0000
dtf (s)             0.1000

mode	ox/red	error	control changes	Ns changes	counter inc.	time/s	control/V	Ewe/V	<I>/mA	cycle number	(Q-Qo)/C	I Range	Ns	step time/s	Pwe/W	Rwe/Ohm
2	1	0	1	0	0	0.000000000000000E+000	0.34995	0.349857	0.010297	1	0.0000000E+000	13	0	0.000000000000000E+000	3.60249e-06	33976.5
2	1	0	1	0	0	0.3769	0.353719	0.353504	0.0266119	1	1.08174e-05	13	0	0.3496	9.40742e-06	13283.7
2	1	0	1	0	0	0.7763	0.357714	0.357463	0.0382949	1	2.37088e-05	13	0	0.749	1.3689e-05	9334.48
2	1	0	1	0	0	1.1758	0.361709	0.361478	0.0258486	1	3.65646e-05	13	0	1.1485	9.3437e-06	13984.4
2	1	0	1	0	0	1.5752	0.365702	0.365432	0.0386408	1	4.932e-05	13	0	1.5479	1.41206e-05	9457.15
2	1	0	1	0	0	1.9747	0.369697	0.369484	0.0242224	1	6.19424e-05	13	0	1.9474	8.94979e-06	15253.8
2	1	0	1	0	0	2.3741	0.373692	0.373471	0.0383902	1	7.43976e-05	13	0	2.3468	1.43376e-05	9728.31
2	1	0	1	0	0	2.7735	0.377686	0.377441	0.0230045	1	8.66776e-05	13	0	2.7462	8.68285e-06	16407.2
2	1	0	1	0	0	3.173	0.38168	0.381384	0.0379613	1	9.87954e-05	13	0	3.1457	1.44778e-05	10046.6
2	1	0	1	0	0	3.5725	0.385675	0.385405	0.0215748	1	0.000110734	13	0	3.5452	8.31505e-06	17863.7
2	1	0	1	0	0	3.9719	0.389669	0.389409	0.0372586	1	0.000122516	13	0	3.9446	1.45088e-05	10451.5
2	1	0	1	0	0	4.3713	0.393664	0.393437	0.0206729	1	0.000134108	13	0	4.344	8.13348e-06	19031.6
2	1	0	1	0	0	4.7708	0.397659	0.397434	0.0363608	1	0.000145548	13	0	4.7435	1.4451e-05	10930.3
2	1	0	1	0	0	5.1703	0.401653	0.401438	0.0197513	1	0.000156831	13	0	5.143	7.9289e-06	20324.7
2	1	0	1	0	0	5.5697	0.405647	0.405417	0.0353332	1	0.000167949	13	0	5.5424	1.43247e-05	11474.1
2	1	0	1	0	0	5.9691	0.409642	0.409456	0.0192196	1	0.000178978	13	0	5.9418	7.86958e-06	21304.1
2	1	0	1	0	0	6.3686	0.413637	0.413429	0.034274	1	0.000189799	13	0	6.3413	1.41699e-05	12062.5
2	1	0	1	0	0	6.768	0.41763	0.417365	0.0189538	1	0.000200478	13	0	6.7407	7.91064e-06	22020.2
2	1	0	1	0	0	7.1675	0.421625	0.421399	0.0329187	1	0.000211027	13	0	7.1402	1.38719e-05	12801.2
2	1	0	1	0	0	7.5669	0.42562	0.425412	0.019031	1	0.000221448	13	0	7.5396	8.09602e-06	22353.6
2	1	0	1	0	0	7.9663	0.429614	0.429416	0.0315871	1	0.00023174	13	0	7.939	1.3564e-05	13594.7
2	1	0	1	0	0	8.3658	0.433608	0.433376	0.0194928	1	0.000241931	13	0	8.3385	8.4477e-06	22232.7
2	1	0	1	0	0	8.7653	0.437603	0.437427	0.0297964	1	0.000251993	13	0	8.738	1.30338e-05	14680.5
2	1	0	1	0	0	9.1647	0.441597	0.441375	0.0199531	1	0.000261969	13	0	9.1374	8.80682e-06	22120.6
2	1	0	1	0	0	9.5641	0.445592	0.445333	0.0285546	1	0.000271845	13	0	9.5368	1.27163e-05	15595.9
2	1	0	1	0	0	9.9636	0.449587	0.449369	0.0203549	1	0.000281663	13	0	9.9363	9.14688e-06	22076.7
2	0	0	1	0	0	10.3398	0.44664	0.446367	-0.0137366	1	0.000277208	13	0	0.2946	-6.13159e-06	32494.6
2	0	0	1	0	0	10.7393	0.442646	0.442365	-0.02829	1	0.000269031	13	0	0.6941	-1.25145e-05	15636.8
2	0	0	1	0	0	11.1387	0.438652	0.438418	-0.0150519	1	0.000260459	13	0	1.0935	-6.59903e-06	29127.1
2	0	0	1	0	0	11.5381	0.434657	0.434388	-0.0300854	1	0.00025159	13	0	1.4929	-1.30687e-05	14438.5
2	0	0	1	0	0	11.9376	0.430662	0.430408	-0.0159186	1	0.000242484	13	0	1.8924	-6.85148e-06	27038.1
2	0	0	1	0	0	12.337	0.426669	0.426417	-0.031514	1	0.000233155	13	0	2.2918	-1.34381e-05	13531.1
2	0	0	1	0	0	12.7365	0.422674	0.422413	-0.0166166	1	0.000223606	13	0	2.6913	-7.01909e-06	25421.1
2	0	0	1	0	0	13.1359	0.418679	0.418421	-0.0326231	1	0.000213861	13	0	3.0907	-1.36502e-05	12825.9
2	0	0	1	0	0	13.5353	0.414685	0.414458	-0.0177093	1	0.00020391	13	0	3.4901	-7.33977e-06	23403.4
2	0	0	1	0	0	13.9348	0.41069	0.41045	-0.0336437	1	0.000193755	13	0	3.8896	-1.3809e-05	12199.9
2	0	0	1	0	0	14.3343	0.406696	0.406434	-0.0190849	1	0.000183383	13	0	4.2891	-7.75676e-06	21296.1
2	0	0	1	0	0	14.7337	0.402701	0.402435	-0.0338363	1	0.000172746	13	0	4.6885	-1.36169e-05	11893.6
2	0	0	1	0	0	15.1331	0.398707	0.398449	-0.0205693	1	0.000161949	13	0	5.0879	-8.19582e-06	19371
2	0	0	1	0	0	15.5326	0.394712	0.3944	-0.0345268	1	0.00015093	13	0	5.4874	-1.36174e-05	11423
2	0	0	1	0	0	15.9321	0.390718	0.39046	-0.0228653	1	0.00013967	13	0	5.8869	-8.928e-06	17076.5
2	0	0	1	0	0	16.3315	0.386724	0.386399	-0.0342084	1	0.000128193	13	0	6.2863	-1.32181e-05	11295.4
2	0	0	1	0	0	16.7309	0.382729	0.382413	-0.0258994	1	0.000116459	13	0	6.6857	-9.90425e-06	14765.3
2	0	0	1	0	0	17.1304	0.378734	0.378432	-0.0332607	1	0.000104496	13	0	7.0852	-1.25869e-05	11377.8
2	0	0	1	0	0	17.5298	0.374741	0.37449	-0.0291285	1	9.22561e-05	13	0	7.4846	-1.09083e-05	12856.5
2	0	0	1	0	0	17.9293	0.370746	0.370466	-0.0323722	1	7.97589e-05	13	0	7.8841	-1.19928e-05	11444
2	0	0	1	0	0	18.3287	0.366751	0.36647	-0.0326795	1	6.69688e-05	13	0	8.2835	-1.19761e-05	11214.1
2	0	0	1	0	0	18.7281	0.362757	0.362458	-0.0326916	1	5.39063e-05	13	0	8.6829	-1.18493e-05	11087.2
2	0	0	1	0	0	19.1276	0.358762	0.358526	-0.0354211	1	4.0514e-05	13	0	9.0824	-1.26994e-05	10121.8
2	0	0	1	0	0	19.5271	0.354768	0.354425	-0.0328642	1	2.68325e-05	13	0	9.4819	-1.16479e-05	10784.5
2	0	0	1	0	0	19.9265	0.350773	0.350491	-0.0383344	1	1.28143e-05	13	0	9.8813	-1.34359e-05	9142.97
2	1	0	1	0	1	20.2936	0.352921	0.352675	0.0227838	2	1.67537e-05	13	0	0.2097	8.0353e-06	15479.2
2	1	0	1	0	1	20.6931	0.356915	0.356623	0.039285	2	2.88753e-05	13	0	0.6092	1.40099e-05	9077.84
2	1	0	1	0	1	21.0925	0.360909	0.360677	0.0226343	2	4.12264e-05	13	0	1.0086	8.16368e-06	15934.9
2	1	0	1	0	1	21.4919	0.364904	0.364636	0.0394128	2	5.36072e-05	13	0	1.408	1.43713e-05	9251.72
2	1	0	1	0	1	21.8914	0.368899	0.368626	0.0225558	2	6.59409e-05	13	0	1.8075	8.31465e-06	16342.9
2	1	0	1	0	1	22.2908	0.372892	0.372707	0.0382459	2	7.81482e-05	13	0	2.2069	1.42545e-05	9745.03
2	1	0	1	0	1	22.6903	0.376887	0.376641	0.0228005	2	9.0239e-05	13	0	2.6064	8.58759e-06	16519
2	1	0	1	0	1	23.0897	0.380882	0.380617	0.0362735	2	0.000102167	13	0	3.0058	1.38063e-05	10493
2	1	0	1	0	1	23.4891	0.384876	0.384603	0.0230043	2	0.000113953	13	0	3.4052	8.84751e-06	16718.8
2	1	0	1	0	1	23.8886	0.38887	0.388641	0.0343059	2	0.000125573	13	0	3.8047	1.33327e-05	11328.7
2	1	0	1	0	1	24.2881	0.392865	0.392567	0.0239016	2	0.000137048	13	0	4.2042	9.383e-06	16424.3
2	1	0	1	0	1	24.6875	0.396859	0.396603	0.0319016	2	0.00014834	13	0	4.6036	1.26523e-05	12432.1
2	1	0	1	0	1	25.0869	0.400854	0.400595	0.0251056	2	0.000159509	13	0	5.003	1.00572e-05	15956.4
2	1	0	1	0	1	25.4864	0.404849	0.404612	0.0288728	2	0.000170503	13	0	5.4025	1.16823e-05	14013.6
2	1	0	1	0	1	25.8859	0.408843	0.408631	0.0268546	2	0.000181448	13	0	5.802	1.09736e-05	15216.4
2	1	0	1	0	1	26.2853	0.412837	0.412647	0.0257889	2	0.000192163	13	0	6.2014	1.06417e-05	16000.9
2	1	0	1	0	1	26.6847	0.416832	0.416589	0.0282725	2	0.000202766	13	0	6.6008	1.1778e-05	14734.8
2	1	0	1	0	1	27.0842	0.420827	0.420603	0.0235688	2	0.000213228	13	0	7.0003	9.9131e-06	17845.8
2	1	0	1	0	1	27.4836	0.42482	0.424593	0.0291322	2	0.000223579	13	0	7.3997	1.23693e-05	14574.7
2	1	0	1	0	1	27.8831	0.428815	0.428571	0.0211476	2	0.000233803	13	0	7.7992	9.06325e-06	20265.7
2	1	0	1	0	1	28.2825	0.43281	0.432575	0.0298772	2	0.000243929	13	0	8.1986	1.29241e-05	14478.4
2	1	0	1	0	1	28.6819	0.436804	0.436568	0.0192095	2	0.000253935	13	0	8.598	8.38626e-06	22726.7
2	1	0	1	0	1	29.0814	0.440798	0.440585	0.0310582	2	0.000263854	13	0	8.9975	1.36838e-05	14185.8
2	1	0	1	0	1	29.4809	0.444793	0.444596	0.0174938	2	0.000273673	13	0	9.397	7.77767e-06	25414.5
2	1	0	1	0	1	29.8803	0.448787	0.448557	0.0313573	2	0.000283411	13	0	9.7964	1.40655e-05	14304.7
2	0	0	1	0	1	30.2865	0.44714	0.44685	-0.0264773	2	0.000281704	13	0	0.2597	-1.18314e-05	16876.7
2	0	0	1	0	1	30.6859	0.443145	0.442875	-0.0140321	2	0.000273538	13	0	0.6591	-6.21448e-06	31561.5
2	0	0	1	0	1	31.0853	0.439151	0.438898	-0.0279254	2	0.000264971	13	0	1.0585	-1.22564e-05	15716.8
2	0	0	1	0	1	31.4848	0.435156	0.434899	-0.0166571	2	0.000256086	13	0	1.458	-7.24416e-06	26108.9
2	0	0	1	0	1	31.8843	0.431162	0.43092	-0.0284678	2	0.000246922	13	0	1.8575	-1.22673e-05	15137.1
2	0	0	1	0	1	32.2837	0.427167	0.426897	-0.0188301	2	0.000237516	13	0	2.2569	-8.03852e-06	22670.9
2	0	0	1	0	1	32.6831	0.423173	0.422894	-0.0285102	2	0.00022798	13	0	2.6563	-1.20568e-05	14833.1
2	0	0	1	0	1	33.0826	0.419178	0.418937	-0.0209212	2	0.000218239	13	0	3.0558	-8.76468e-06	20024.5
2	0	0	1	0	1	33.482	0.415185	0.414916	-0.0283031	2	0.000208316	13	0	3.4552	-1.17434e-05	14659.7
2	0	0	1	0	1	33.8815	0.41119	0.410974	-0.0228683	2	0.000198165	13	0	3.8547	-9.39826e-06	17971.4
2	0	0	1	0	1	34.2809	0.407195	0.406947	-0.027834	2	0.000187824	13	0	4.2541	-1.1327e-05	14620.5
2	0	0	1	0	1	34.6804	0.4032	0.402939	-0.0259022	2	0.000177178	13	0	4.6536	-1.0437e-05	15556.1
2	0	0	1	0	1	35.0798	0.399207	0.398946	-0.0270367	2	0.000166405	13	0	5.053	-1.07862e-05	14755.7
2	0	0	1	0	1	35.4793	0.395212	0.39497	-0.0293156	2	0.000155386	13	0	5.4525	-1.15788e-05	13473
2	0	0	1	0	1	35.8787	0.391217	0.390939	-0.0260693	2	0.000144144	13	0	5.8519	-1.01915e-05	14996.2
2	0	0	1	0	1	36.2781	0.387223	0.38695	-0.0325065	2	0.000132653	13	0	6.2513	-1.25784e-05	11903.8
2	0	0	1	0	1	36.6776	0.383229	0.382955	-0.0251838	2	0.000120933	13	0	6.6508	-9.64427e-06	15206.4
2	0	0	1	0	1	37.0771	0.379234	0.37894	-0.0360629	2	0.00010893	13	0	7.0503	-1.36657e-05	10507.7
2	0	0	1	0	1	37.4765	0.375239	0.37493	-0.0243819	2	9.66895e-05	13	0	7.4497	-9.14152e-06	15377.4
2	0	0	1	0	1	37.8759	0.371245	0.370976	-0.0390874	2	8.41538e-05	13	0	7.8491	-1.45005e-05	9490.94
2	0	0	1	0	1	38.2754	0.36725	0.367011	-0.0243891	2	7.13509e-05	13	0	8.2486	-8.95104e-06	15048.2
2	0	0	1	0	1	38.6749	0.363256	0.363014	-0.0413061	2	5.82591e-05	13	0	8.6481	-1.49947e-05	8788.39
2	0	0	1	0	1	39.0743	0.359262	0.358985	-0.0250999	2	4.48652e-05	13	0	9.0475	-9.01049e-06	14302.3
2	0	0	1	0	1	39.4737	0.355267	0.355019	-0.0428046	2	3.1168e-05	13	0	9.4469	-1.51964e-05	8293.95
2	0	0	1	0	1	39.8732	0.351272	0.351043	-0.0268849	2	1.71444e-05	13	0	9.8464	-9.43776e-06	13057.3
2	1	0	1	0	0	40.1803	0.351822	0.351543	0.0197647	3	1.61533e-05	13	0	0.1498	6.94814e-06	17786.5
2	1	0	1	0	0	40.5798	0.355817	0.355593	0.0392717	3	2.80309e-05	13	0	0.5493	1.39647e-05	9054.69
2	1	0	1	0	0	40.9793	0.359811	0.359541	0.0230515	3	4.0353e-05	13	0	0.9488	8.28796e-06	15597.3
2	1	0	1	0	0	41.3787	0.363805	0.363537	0.0387998	3	5.27528e-05	13	0	1.3482	1.41051e-05	9369.55
2	1	0	1	0	0	41.7781	0.3678	0.367511	0.0240924	3	6.5105e-05	13	0	1.7476	8.85422e-06	15254.3
2	1	0	1	0	0	42.1776	0.371795	0.37157	0.0369714	3	7.73486e-05	13	0	2.1471	1.37375e-05	10050.2
2	1	0	1	0	0	42.577	0.375788	0.375549	0.0250177	3	8.94803e-05	13	0	2.5465	9.39539e-06	15011.3
2	1	0	1	0	0	42.9765	0.379783	0.379476	0.0343828	3	0.000101449	13	0	2.946	1.30474e-05	11036.8
2	1	0	1	0	0	43.3759	0.383778	0.383474	0.0262435	3	0.000113296	13	0	3.3454	1.00637e-05	14612.1
2	1	0	1	0	0	43.7753	0.387772	0.387511	0.0317734	3	0.00012496	13	0	3.7448	1.23126e-05	12196.1
2	1	0	1	0	0	44.1748	0.391766	0.391505	0.0279128	3	0.000136484	13	0	4.1443	1.0928e-05	14026
2	1	0	1	0	0	44.5743	0.395761	0.395539	0.0288743	3	0.000147839	13	0	4.5438	1.14209e-05	13698.6
2	1	0	1	0	0	44.9737	0.399755	0.399499	0.0284466	3	0.000159043	13	0	4.9432	1.13644e-05	14043.8
2	1	0	1	0	0	45.3731	0.40375	0.403556	0.0270186	3	0.000170081	13	0	5.3426	1.09035e-05	14936.2
2	1	0	1	0	0	45.7726	0.407745	0.407497	0.0293505	3	0.000181055	13	0	5.7421	1.19602e-05	13883.8
2	1	0	1	0	0	46.1721	0.411739	0.411598	0.0242121	3	0.000191818	13	0	6.1416	9.96565e-06	16999.7
2	1	0	1	0	0	46.5715	0.415733	0.415474	0.0304769	3	0.000202463	13	0	6.541	1.26624e-05	13632.4
2	1	0	1	0	0	46.9709	0.419728	0.419503	0.0216495	3	0.000212954	13	0	6.9404	9.08202e-06	19377.1
2	1	0	1	0	0	47.3704	0.423723	0.423469	0.0316188	3	0.000223331	13	0	7.3399	1.33896e-05	13393
2	1	0	1	0	0	47.7698	0.427716	0.427478	0.0198985	3	0.000233583	13	0	7.7393	8.50617e-06	21482.9
2	1	0	1	0	0	48.1693	0.431711	0.431506	0.031585	3	0.000243726	13	0	8.1388	1.36291e-05	13661.8
2	1	0	1	0	0	48.5687	0.435706	0.43547	0.0185009	3	0.000253761	13	0	8.5382	8.05658e-06	23537.8
2	1	0	1	0	0	48.9681	0.4397	0.439477	0.0318712	3	0.000263679	13	0	8.9376	1.40067e-05	13789.1
2	1	0	1	0	0	49.3676	0.443694	0.443457	0.0175124	3	0.000273517	13	0	9.3371	7.76599e-06	25322.5
2	1	0	1	0	0	49.7671	0.447689	0.447469	0.0319093	3	0.000283294	13	0	9.7366	1.42784e-05	14023.2
2	0	0	1	0	0	50.0733	0.449237	0.449002	-0.0242359	3	0.000288177	13	0	0.000000000000000E+000	-1.0882e-05	18526.3
2	0	0	1	0	0	50.4728	0.445242	0.44496	-0.013122	3	0.000280451	13	0	0.3995	-5.83874e-06	33909.5
2	0	0	1	0	0	50.8723	0.441248	0.441014	-0.0290736	3	0.000272086	13	0	0.799	-1.28219e-05	15168.9
2	0	0	1	0	0	51.2717	0.437253	0.436989	-0.0148777	3	0.000263358	13	0	1.1984	-6.5014e-06	29372.1
2	0	0	1	0	0	51.6711	0.433259	0.432965	-0.0306948	3	0.000254363	13	0	1.5978	-1.32898e-05	14105.5
2	0	0	1	0	0	52.0706	0.429264	0.429062	-0.0162258	3	0.000245119	13	0	1.9973	-6.96186e-06	26443.2
2	0	0	1	0	0	52.47	0.425271	0.425021	-0.0317109	3	0.000235669	13	0	2.3967	-1.34778e-05	13403
2	0	0	1	0	0	52.8695	0.421276	0.420987	-0.0174218	3	0.000225992	13	0	2.7962	-7.33434e-06	24164.4
2	0	0	1	0	0	53.2689	0.417281	0.417023	-0.0326002	3	0.000216109	13	0	3.1956	-1.3595e-05	12792.1
2	0	0	1	0	0	53.6684	0.413286	0.413035	-0.0186594	3	0.000206013	13	0	3.5951	-7.707e-06	22135.5
2	0	0	1	0	0	54.0678	0.409293	0.409079	-0.0331024	3	0.000195726	13	0	3.9945	-1.35415e-05	12358
2	0	0	1	0	0	54.4673	0.405298	0.405032	-0.0202592	3	0.000185163	13	0	4.394	-8.20564e-06	19992.5
2	0	0	1	0	0	54.8667	0.401303	0.400985	-0.0335911	3	0.000174452	13	0	4.7934	-1.34695e-05	11937.3
2	0	0	1	0	0	55.2661	0.397309	0.397051	-0.0217784	3	0.000163514	13	0	5.1928	-8.64712e-06	18231.4
2	0	0	1	0	0	55.6656	0.393314	0.393051	-0.0336089	3	0.000152365	13	0	5.5923	-1.321e-05	11694.8
2	0	0	1	0	0	56.0651	0.38932	0.389066	-0.0236803	3	0.000140971	13	0	5.9918	-9.2132e-06	16430
2	0	0	1	0	0	56.4645	0.385325	0.384997	-0.0333928	3	0.000129348	13	0	6.3912	-1.28561e-05	11529.4
2	0	0	1	0	0	56.8639	0.381331	0.381047	-0.0262945	3	0.000117466	13	0	6.7906	-1.00194e-05	14491.5
2	0	0	1	0	0	57.2634	0.377336	0.377079	-0.0328522	3	0.000105343	13	0	7.1901	-1.23879e-05	11478
2	0	0	1	0	0	57.6629	0.373342	0.373102	-0.0301493	3	9.29294e-05	13	0	7.5896	-1.12488e-05	12375.1
2	0	0	1	0	0	58.0623	0.369348	0.369061	-0.0321594	3	8.0264e-05	13	0	7.989	-1.18688e-05	11476
2	0	0	1	0	0	58.4617	0.365353	0.3651	-0.0332276	3	6.72792e-05	13	0	8.3884	-1.21314e-05	10987.8
2	0	0	1	0	0	58.8612	0.361358	0.361045	-0.0322179	3	5.40277e-05	13	0	8.7879	-1.16321e-05	11206.3
2	0	0	1	0	0	59.2606	0.357365	0.357075	-0.0361384	3	4.0461e-05	13	0	9.1873	-1.29041e-05	9880.74
2	0	0	1	0	0	59.6601	0.35337	0.353072	-0.0331241	3	2.6587e-05	13	0	9.5868	-1.16952e-05	10659.1
2	0	0	1	0	0	59.9946	0.35	0.34959	-0.0500527	3	1.45981e-05	13	0	9.9213	-1.74979e-05	6984.44
2	1	0	1	0	1	60.3867	0.353919	0.353714	0.0383668	4	2.42414e-05	13	0	0.3596	1.35709e-05	9219.28
2	1	0	1	0	1	60.7861	0.357913	0.357637	0.0224286	4	3.6458e-05	13	0	0.759	8.02129e-06	15945.6
2	1	0	1	0	1	61.1855	0.361908	0.361677	0.0393064	4	4.88362e-05	13	0	1.1584	1.42162e-05	9201.49
2	1	0	1	0	1	61.585	0.365903	0.365609	0.0229277	4	6.12304e-05	13	0	1.5579	8.3826e-06	15946.1
2	1	0	1	0	1	61.9845	0.369897	0.369669	0.0383029	4	7.35561e-05	13	0	1.9574	1.41594e-05	9651.21
2	1	0	1	0	1	62.3839	0.373891	0.373634	0.0230097	4	8.57803e-05	13	0	2.3568	8.5972e-06	16238.1
2	1	0	1	0	1	62.7833	0.377886	0.377676	0.036467	4	9.78392e-05	13	0	2.7562	1.37727e-05	10356.6
2	1	0	1	0	1	63.1828	0.381881	0.38163	0.0230313	4	0.000109768	13	0	3.1557	8.78943e-06	16570.1
2	1	0	1	0	1	63.5822	0.385874	0.385613	0.034897	4	0.000121511	13	0	3.5551	1.34567e-05	11050
2	1	0	1	0	1	63.9817	0.389869	0.389669	0.0233621	4	0.000133119	13	0	3.9546	9.10348e-06	16679.6
2	1	0	1	0	1	64.3811	0.393864	0.393629	0.0325429	4	0.00014454	13	0	4.354	1.28098e-05	12095.7
2	1	0	1	0	1	64.7805	0.397858	0.39757	0.0245002	4	0.000155829	13	0	4.7534	9.74054e-06	16227.2
2	1	0	1	0	1	65.18	0.401852	0.401595	0.0294415	4	0.000166948	13	0	5.1529	1.18235e-05	13640.4
2	1	0	1	0	1	65.5795	0.405847	0.405597	0.0261076	4	0.000177938	13	0	5.5524	1.05892e-05	15535.6
2	1	0	1	0	1	65.9789	0.409841	0.40967	0.0261908	4	0.00018881	13	0	5.9518	1.07296e-05	15641.8
2	1	0	1	0	1	66.3783	0.413836	0.413605	0.0275019	4	0.000199521	13	0	6.3512	1.13749e-05	15039.1
2	1	0	1	0	1	66.7778	0.417831	0.417632	0.0236667	4	0.000210066	13	0	6.7507	9.88397e-06	17646.4
2	1	0	1	0	1	67.1773	0.421825	0.421549	0.0289686	4	0.000220516	13	0	7.1502	1.22117e-05	14551.9
2	1	0	1	0	1	67.5767	0.425819	0.425601	0.021025	4	0.000230818	13	0	7.5496	8.94826e-06	20242.6
2	1	0	1	0	1	67.9761	0.429814	0.4296	0.0304655	4	0.000241024	13	0	7.949	1.3088e-05	14101.2
2	1	0	1	0	1	68.3756	0.433809	0.433598	0.0188109	4	0.000251121	13	0	8.3485	8.15638e-06	23050.3
2	1	0	1	0	1	68.775	0.437802	0.437563	0.0311168	4	0.000261124	13	0	8.7479	1.36155e-05	14062
2	1	0	1	0	1	69.1745	0.441797	0.441561	0.0176201	4	0.000271032	13	0	9.1474	7.78033e-06	25060.1
2	1	0	1	0	1	69.5739	0.445792	0.445513	0.0311549	4	0.000280854	13	0	9.5468	1.38799e-05	14300
2	1	0	1	0	1	69.9708	0.449761	0.449563	0.0167323	4	0.000290534	13	0	9.9437	7.52222e-06	26868
2	0	0	1	0	1	70.3795	0.446141	0.445872	-0.0130249	4	0.000284299	13	0	0.2946	-5.80743e-06	34232.2
2	0	0	1	0	1	70.779	0.442146	0.44186	-0.0287587	4	0.000275969	13	0	0.6941	-1.27073e-05	15364.4
2	0	0	1	0	1	71.1784	0.438153	0.437907	-0.0152956	4	0.000267254	13	0	1.0935	-6.69804e-06	28629.6
2	0	0	1	0	1	71.5779	0.434158	0.433903	-0.029514	4	0.000258268	13	0	1.493	-1.28062e-05	14701.6
2	0	0	1	0	1	71.9773	0.430163	0.429866	-0.0169517	4	0.000249031	13	0	1.8924	-7.28698e-06	25358.3
2	0	0	1	0	1	72.3767	0.426169	0.425911	-0.0299554	4	0.000239591	13	0	2.2918	-1.27583e-05	14218.2
2	0	0	1	0	1	72.7762	0.422174	0.42194	-0.0185748	4	0.000229932	13	0	2.6913	-7.83748e-06	22715.7
2	0	0	1	0	1	73.1757	0.41818	0.41794	-0.029849	4	0.000220081	13	0	3.0908	-1.24751e-05	14001.8
2	0	0	1	0	1	73.5751	0.414185	0.413992	-0.0204133	4	0.000210015	13	0	3.4902	-8.45095e-06	20280.5
2	0	0	1	0	1	73.9745	0.410191	0.409947	-0.0293501	4	0.000199763	13	0	3.8896	-1.2032e-05	13967.5
2	0	0	1	0	1	74.374	0.406196	0.405943	-0.0234542	4	0.000189287	13	0	4.2891	-9.52106e-06	17308
2	0	0	1	0	1	74.7735	0.402202	0.401911	-0.0282707	4	0.00017857	13	0	4.6886	-1.13623e-05	14216.5
2	0	0	1	0	1	75.1729	0.398208	0.397908	-0.0267035	4	0.000167665	13	0	5.088	-1.06255e-05	14901
2	0	0	1	0	1	75.5723	0.394213	0.393914	-0.0273783	4	0.000156544	13	0	5.4874	-1.07847e-05	14387.8
2	0	0	1	0	1	75.9718	0.390218	0.389994	-0.02941	4	0.000145178	13	0	5.8869	-1.14697e-05	13260.6
2	0	0	1	0	1	76.3712	0.386225	0.385918	-0.0278167	4	0.000133617	13	0	6.2863	-1.07349e-05	13873.6
2	0	0	1	0	1	76.7707	0.38223	0.381946	-0.0308707	4	0.000121793	13	0	6.6858	-1.17909e-05	12372.4
2	0	0	1	0	1	77.1701	0.378235	0.377963	-0.0296656	4	0.000109722	13	0	7.0852	-1.12125e-05	12740.8
2	0	0	1	0	1	77.5695	0.374241	0.374029	-0.0317772	4	9.73747e-05	13	0	7.4846	-1.18856e-05	11770.4
2	0	0	1	0	1	77.969	0.370246	0.36993	-0.0314651	4	8.47633e-05	13	0	7.8841	-1.16399e-05	11756.8
2	0	0	1	0	1	78.3685	0.366252	0.365939	-0.0328296	4	7.18496e-05	13	0	8.2836	-1.20136e-05	11146.6
2	0	0	1	0	1	78.7679	0.362257	0.361952	-0.0325116	4	5.86587e-05	13	0	8.683	-1.17676e-05	11133
2	0	0	1	0	1	79.1673	0.358263	0.358	-0.0349597	4	4.51564e-05	13	0	9.0824	-1.25156e-05	10240.4
2	0	0	1	0	1	79.5668	0.354268	0.353968	-0.034082	4	3.13521e-05	13	0	9.4819	-1.20639e-05	10385.8
2	0	0	1	0	1	79.9663	0.350274	0.350027	-0.0366608	4	1.72222e-05	13	0	9.8814	-1.28323e-05	9547.7
2	1	0	1	0	0	80.3333	0.35342	0.35316	0.0227136	5	2.44223e-05	13	0	0.3096	8.02155e-06	15548.4
2	1	0	1	0	0	80.7327	0.357414	0.357112	0.0387564	5	3.66057e-05	13	0	0.709	1.38404e-05	9214.27
2	1	0	1	0	0	81.1322	0.361408	0.361173	0.023719	5	4.90007e-05	13	0	1.1085	8.56666e-06	15227.2
2	1	0	1	0	0	81.5317	0.365403	0.365142	0.0389682	5	6.14092e-05	13	0	1.508	1.42289e-05	9370.26
2	1	0	1	0	0	81.9311	0.369398	0.369168	0.0232994	5	7.37357e-05	13	0	1.9074	8.60141e-06	15844.5
2	1	0	1	0	0	82.3305	0.373392	0.373125	0.0382352	5	8.59533e-05	13	0	2.3068	1.42665e-05	9758.66
2	1	0	1	0	0	82.73	0.377386	0.377115	0.0226876	5	9.80436e-05	13	0	2.7063	8.55583e-06	16622.1
2	1	0	1	0	0	83.1295	0.381381	0.381111	0.0374006	5	0.000109991	13	0	3.1058	1.42538e-05	10190
2	1	0	1	0	0	83.5289	0.385375	0.385128	0.0220993	5	0.000121783	13	0	3.5052	8.51104e-06	17427.2
2	1	0	1	0	0	83.9283	0.38937	0.389121	0.0369736	5	0.000133418	13	0	3.9046	1.43872e-05	10524.3
2	1	0	1	0	0	84.3278	0.393365	0.393088	0.0209662	5	0.000144885	13	0	4.3041	8.24157e-06	18748.7
2	1	0	1	0	0	84.7272	0.397358	0.397105	0.036463	5	0.000156191	13	0	4.7035	1.44797e-05	10890.6
2	1	0	1	0	0	85.1267	0.401353	0.401152	0.0201726	5	0.000167347	13	0	5.103	8.09229e-06	19885.9
2	1	0	1	0	0	85.5261	0.405348	0.405124	0.0355467	5	0.00017834	13	0	5.5024	1.44008e-05	11397
2	1	0	1	0	0	85.9256	0.409343	0.409138	0.0194467	5	0.00018925	13	0	5.9019	7.9564e-06	21038.9
2	1	0	1	0	0	86.325	0.413336	0.413125	0.0349688	5	0.000199951	13	0	6.3013	1.44465e-05	11814.1
2	1	0	1	0	0	86.7245	0.417331	0.417118	0.0188805	5	0.000210523	13	0	6.7008	7.8754e-06	22092.5
2	1	0	1	0	0	87.1239	0.421326	0.421093	0.0341075	5	0.000220968	13	0	7.1002	1.43625e-05	12346.1
2	1	0	1	0	0	87.5233	0.42532	0.425065	0.0183281	5	0.000231293	13	0	7.4996	7.79062e-06	23192
2	1	0	1	0	0	87.9228	0.429314	0.429122	0.0335071	5	0.000241498	13	0	7.8991	1.43786e-05	12806.9
2	1	0	1	0	0	88.3223	0.433309	0.433111	0.01783	5	0.000251602	13	0	8.2986	7.72236e-06	24291.2
2	1	0	1	0	0	88.7217	0.437303	0.437065	0.0326796	5	0.000261589	13	0	8.698	1.42831e-05	13374.2
2	1	0	1	0	0	89.1211	0.441298	0.44107	0.0173909	5	0.000271488	13	0	9.0974	7.67062e-06	25362.1
2	1	0	1	0	0	89.5206	0.445293	0.445029	0.0321224	5	0.000281305	13	0	9.4969	1.42954e-05	13854.2
2	1	0	1	0	0	89.9201	0.449287	0.449111	0.017123	5	0.000291045	13	0	9.8964	7.69013e-06	26228.5
2	0	0	1	0	0	90.3262	0.44664	0.4464	-0.0142332	5	0.000287171	13	0	0.3096	-6.35372e-06	31363.2
2	0	0	1	0	0	90.7257	0.442646	0.442398	-0.0275869	5	0.000278916	13	0	0.7091	-1.22044e-05	16036.5
2	0	0	1	0	0	91.1251	0.438652	0.438395	-0.0159832	5	0.000270252	13	0	1.1085	-7.00693e-06	27428.5
2	0	0	1	0	0	91.5245	0.434657	0.434375	-0.029641	5	0.000261303	13	0	1.5079	-1.28753e-05	14654.6
2	0	0	1	0	0	91.924	0.430662	0.430405	-0.0171199	5	0.000252112	13	0	1.9074	-7.36849e-06	25140.6
2	0	0	1	0	0	92.3234	0.426669	0.426319	-0.0311084	5	0.0002427	13	0	2.3068	-1.32621e-05	13704.3
2	0	0	1	0	0	92.7229	0.422674	0.422404	-0.0180561	5	0.000233064	13	0	2.7063	-7.62698e-06	23394
2	0	0	1	0	0	93.1223	0.418679	0.418387	-0.0323084	5	0.000223239	13	0	3.1057	-1.35174e-05	12949.8
2	0	0	1	0	0	93.5217	0.414685	0.41444	-0.0188301	5	0.000213201	13	0	3.5051	-7.80394e-06	22009.5
2	0	0	1	0	0	93.9212	0.41069	0.410436	-0.0336488	5	0.000202967	13	0	3.9046	-1.38107e-05	12197.6
2	0	0	1	0	0	94.3207	0.406696	0.406419	-0.0196224	5	0.000192514	13	0	4.3041	-7.97492e-06	20711.9
2	0	0	1	0	0	94.7201	0.402701	0.402399	-0.0344	5	0.000181791	13	0	4.7035	-1.38425e-05	11697.7
2	0	0	1	0	0	95.1195	0.398707	0.398448	-0.0205687	5	0.000170921	13	0	5.1029	-8.19556e-06	19371.5
2	0	0	1	0	0	95.519	0.394712	0.3944	-0.0357947	5	0.000159823	13	0	5.5024	-1.41174e-05	11018.4
2	0	0	1	0	0	95.9185	0.390718	0.390439	-0.0215613	5	0.00014849	13	0	5.9019	-8.41837e-06	18108.3
2	0	0	1	0	0	96.3179	0.386724	0.386431	-0.0367634	5	0.000136931	13	0	6.3013	-1.42065e-05	10511.3
2	0	0	1	0	0	96.7173	0.382729	0.382481	-0.0230036	5	0.000125123	13	0	6.7007	-8.79844e-06	16627
2	0	0	1	0	0	97.1168	0.378734	0.378411	-0.0377175	5	0.000113058	13	0	7.1002	-1.42727e-05	10032.8
2	0	0	1	0	0	97.5162	0.374741	0.374482	-0.0246595	5	0.000100728	13	0	7.4996	-9.23453e-06	15186.1
2	0	0	1	0	0	97.9157	0.370746	0.370454	-0.0386243	5	8.81402e-05	13	0	7.8991	-1.43085e-05	9591.2
2	0	0	1	0	0	98.3151	0.366751	0.366433	-0.0264192	5	7.52496e-05	13	0	8.2985	-9.68087e-06	13870
2	0	0	1	0	0	98.7145	0.362757	0.362454	-0.0398089	5	6.20919e-05	13	0	8.6979	-1.44289e-05	9104.86
2	0	0	1	0	0	99.114	0.358762	0.358501	-0.0284665	5	4.86068e-05	13	0	9.0974	-1.02053e-05	12593.8
2	0	0	1	0	0	99.5135	0.354768	0.35448	-0.0405805	5	3.48279e-05	13	0	9.4969	-1.4385e-05	8735.23
2	0	0	1	0	0	99.9129	0.350773	0.350524	-0.030805	5	2.07268e-05	13	0	9.8963	-1.07979e-05	11378.8
2	1	0	1	0	1	100.28	0.352921	0.352711	0.0279828	6	2.48342e-05	13	0	0.2597	9.86985e-06	12604.5
2	1	0	1	0	1	100.679	0.356915	0.356643	0.0341794	6	3.69839e-05	13	0	0.6592	1.21898e-05	10434.4
2	1	0	1	0	1	101.079	0.360909	0.360674	0.0273842	6	4.93607e-05	13	0	1.0586	9.87676e-06	13170.9
2	1	0	1	0	1	101.478	0.364904	0.364594	0.0356674	6	6.1786e-05	13	0	1.458	1.30041e-05	10222.1
2	1	0	1	0	1	101.878	0.368899	0.368631	0.0254049	6	7.41347e-05	13	0	1.8575	9.36503e-06	14510.2
2	1	0	1	0	1	102.277	0.372892	0.372664	0.0371476	6	8.63728e-05	13	0	2.2569	1.38436e-05	10032
2	1	0	1	0	1	102.677	0.376887	0.376699	0.0229436	6	9.84806e-05	13	0	2.6564	8.64285e-06	16418.4
2	1	0	1	0	1	103.076	0.380882	0.380623	0.0372652	6	0.000110431	13	0	3.0558	1.4184e-05	10213.9
2	1	0	1	0	1	103.475	0.384876	0.384641	0.0214351	6	0.00012222	13	0	3.4552	8.24483e-06	17944.4
2	1	0	1	0	1	103.875	0.38887	0.388648	0.0367758	6	0.00013386	13	0	3.8547	1.42928e-05	10568
2	1	0	1	0	1	104.274	0.392865	0.392639	0.0202513	6	0.000145336	13	0	4.2542	7.95147e-06	19388.3
2	1	0	1	0	1	104.674	0.396859	0.396624	0.0358508	6	0.000156653	13	0	4.6536	1.42193e-05	11063.2
2	1	0	1	0	1	105.073	0.400854	0.400612	0.0194738	6	0.000167815	13	0	5.053	7.80144e-06	20571.8
2	1	0	1	0	1	105.473	0.404849	0.404622	0.0351385	6	0.000178832	13	0	5.4525	1.42178e-05	11515.1
2	1	0	1	0	1	105.872	0.408843	0.408656	0.0187271	6	0.000189769	13	0	5.852	7.65294e-06	21821.6
2	1	0	1	0	1	106.272	0.412837	0.412659	0.0342292	6	0.000200495	13	0	6.2514	1.4125e-05	12055.8
2	1	0	1	0	1	106.671	0.416832	0.416626	0.0183265	6	0.000211091	13	0	6.6508	7.63529e-06	22733.5
2	1	0	1	0	1	107.071	0.420827	0.420613	0.0337178	6	0.000221562	13	0	7.0503	1.41822e-05	12474.5
2	1	0	1	0	1	107.47	0.42482	0.424558	0.0180296	6	0.000231909	13	0	7.4497	7.65461e-06	23547.8
2	1	0	1	0	1	107.869	0.428815	0.428605	0.033008	6	0.000242145	13	0	7.8492	1.41474e-05	12984.9
2	1	0	1	0	1	108.269	0.43281	0.432622	0.0178813	6	0.000252294	13	0	8.2486	7.73584e-06	24194.1
2	1	0	1	0	1	108.668	0.436804	0.436583	0.0321569	6	0.000262325	13	0	8.648	1.40391e-05	13576.7
2	1	0	1	0	1	109.068	0.440798	0.44054	0.0183842	6	0.000272284	13	0	9.0475	8.09898e-06	23962.9
2	1	0	1	0	1	109.467	0.444793	0.444576	0.0305474	6	0.000282131	13	0	9.447	1.35807e-05	14553.6
2	1	0	1	0	1	109.867	0.448787	0.448545	0.0190185	6	0.0002919	13	0	9.8464	8.53064e-06	23584.7
2	0	0	1	0	1	110.273	0.44714	0.446902	-0.017831	6	0.000290141	13	0	0.2597	-7.9687e-06	25063.2
2	0	0	1	0	1	110.672	0.443145	0.44288	-0.0224961	6	0.000281935	13	0	0.6591	-9.96309e-06	19687
2	0	0	1	0	1	111.072	0.439151	0.438917	-0.0209907	6	0.000273283	13	0	1.0585	-9.21316e-06	20910.1
2	0	0	1	0	1	111.471	0.435156	0.434896	-0.0228129	6	0.000264346	13	0	1.458	-9.92125e-06	19063.6
2	0	0	1	0	1	111.871	0.431162	0.430929	-0.0231862	6	0.00025516	13	0	1.8575	-9.99158e-06	18585.6
2	0	0	1	0	1	112.27	0.427167	0.426908	-0.0229802	6	0.000245777	13	0	2.2569	-9.81044e-06	18577.2
2	0	0	1	0	1	112.669	0.423173	0.422911	-0.0246055	6	0.00023616	13	0	2.6563	-1.0406e-05	17187.7
2	0	0	1	0	1	113.069	0.419178	0.418885	-0.0232555	6	0.000226363	13	0	3.0558	-9.74137e-06	18012.3
2	0	0	1	0	1	113.468	0.415185	0.414979	-0.0268349	6	0.000216351	13	0	3.4552	-1.11359e-05	15464.1
2	0	0	1	0	1	113.868	0.41119	0.41091	-0.0231884	6	0.000206146	13	0	3.8547	-9.52836e-06	17720.5
2	0	0	1	0	1	114.267	0.407195	0.406969	-0.0288331	6	0.000195725	13	0	4.2541	-1.17342e-05	14114.6
2	0	0	1	0	1	114.667	0.4032	0.402919	-0.0231789	6	0.000185034	13	0	4.6536	-9.33923e-06	17383
2	0	0	1	0	1	115.066	0.399207	0.398972	-0.0310534	6	0.000174188	13	0	5.053	-1.23895e-05	12847.9
2	0	0	1	0	1	115.466	0.395212	0.394967	-0.0231594	6	0.000163126	13	0	5.4525	-9.14719e-06	17054.3
2	0	0	1	0	1	115.865	0.391217	0.390958	-0.0338012	6	0.000151809	13	0	5.8519	-1.32148e-05	11566.4
2	0	0	1	0	1	116.264	0.387223	0.386962	-0.0233693	6	0.000140282	13	0	6.2513	-9.04302e-06	16558.6
2	0	0	1	0	1	116.664	0.383229	0.382988	-0.0362225	6	0.000128498	13	0	6.6508	-1.38728e-05	10573.2
2	0	0	1	0	1	117.063	0.379234	0.378966	-0.0236274	6	0.000116462	13	0	7.0503	-8.95398e-06	16039.3
2	0	0	1	0	1	117.463	0.375239	0.374972	-0.0385404	6	0.00010416	13	0	7.4497	-1.44516e-05	9729.32
2	0	0	1	0	1	117.862	0.371245	0.370985	-0.0242688	6	9.15943e-05	13	0	7.8491	-9.00335e-06	15286.5
2	0	0	1	0	1	118.262	0.36725	0.366959	-0.0406294	6	7.87596e-05	13	0	8.2486	-1.49093e-05	9031.84
2	0	0	1	0	1	118.661	0.363256	0.362987	-0.0249801	6	6.56369e-05	13	0	8.6481	-9.06747e-06	14531
2	0	0	1	0	1	119.061	0.359262	0.358985	-0.0421988	6	5.22092e-05	13	0	9.0475	-1.51488e-05	8506.99
2	0	0	1	0	1	119.46	0.355267	0.354952	-0.0266511	6	3.84787e-05	13	0	9.4469	-9.45987e-06	13318.5
2	0	0	1	0	1	119.86	0.351272	0.350984	-0.0437096	6	2.4425e-05	13	0	9.8464	-1.53414e-05	8029.92
2	1	0	1	0	0	120.167	0.351822	0.351558	0.0357327	7	2.34521e-05	13	0	0.1498	1.25621e-05	9838.57
2	1	0	1	0	0	120.566	0.355817	0.355565	0.0235462	7	3.53718e-05	13	0	0.5493	8.37221e-06	15100.7
2	1	0	1	0	0	120.966	0.359811	0.359535	0.0389851	7	4.77373e-05	13	0	0.9488	1.40165e-05	9222.38
2	1	0	1	0	0	121.365	0.363805	0.363573	0.0232817	7	6.01671e-05	13	0	1.3482	8.46458e-06	15616.3
2	1	0	1	0	0	121.764	0.3678	0.367544	0.0392691	7	7.25488e-05	13	0	1.7476	1.44331e-05	9359.63
2	1	0	1	0	0	122.164	0.371795	0.371556	0.0223632	7	8.4831e-05	13	0	2.1471	8.30918e-06	16614.6
2	1	0	1	0	0	122.563	0.375788	0.375589	0.0386924	7	9.69834e-05	13	0	2.5465	1.45325e-05	9707.06
2	1	0	1	0	0	122.963	0.379783	0.379531	0.0219777	7	0.000108991	13	0	2.946	8.34122e-06	17268.9
2	1	0	1	0	0	123.362	0.383778	0.383526	0.0375063	7	0.000120839	13	0	3.3454	1.43846e-05	10225.6
2	1	0	1	0	0	123.762	0.387772	0.387485	0.021457	7	0.000132529	13	0	3.7448	8.31425e-06	18058.7
2	1	0	1	0	0	124.161	0.391766	0.391584	0.0365781	7	0.00014406	13	0	4.1443	1.43234e-05	10705.4
2	1	0	1	0	0	124.561	0.395761	0.395459	0.0208516	7	0.000155437	13	0	4.5438	8.24596e-06	18965.4
2	1	0	1	0	0	124.96	0.399755	0.399545	0.0352174	7	0.000166637	13	0	4.9432	1.40709e-05	11345.1
2	1	0	1	0	0	125.359	0.40375	0.403503	0.0207815	7	0.000177696	13	0	5.3426	8.38538e-06	19416.5
2	1	0	1	0	0	125.759	0.407745	0.407525	0.0335477	7	0.000188669	13	0	5.7421	1.36715e-05	12147.6
2	1	0	1	0	0	126.158	0.411739	0.411521	0.0211158	7	0.000199448	13	0	6.1416	8.6896e-06	19488.8
2	1	0	1	0	0	126.558	0.415733	0.415562	0.0317789	7	0.000210074	13	0	6.541	1.32061e-05	13076.7
2	1	0	1	0	0	126.957	0.419728	0.419461	0.0212402	7	0.000220591	13	0	6.9404	8.90942e-06	19748.5
2	1	0	1	0	0	127.357	0.423723	0.423497	0.03042	7	0.000230975	13	0	7.3399	1.28828e-05	13921.7
2	1	0	1	0	0	127.756	0.427716	0.42747	0.0222822	7	0.000241259	13	0	7.7393	9.52497e-06	19184.4
2	1	0	1	0	0	128.156	0.431711	0.431505	0.0282916	7	0.00025142	13	0	8.1388	1.2208e-05	15252.1
2	1	0	1	0	0	128.555	0.435706	0.435469	0.0237007	7	0.000261507	13	0	8.5382	1.03209e-05	18373.7
2	1	0	1	0	0	128.954	0.4397	0.439495	0.0265494	7	0.000271475	13	0	8.9376	1.16683e-05	16553.9
2	1	0	1	0	0	129.354	0.443694	0.443448	0.024525	7	0.000281355	13	0	9.3371	1.08756e-05	18081.4
2	1	0	1	0	0	129.753	0.447689	0.447514	0.0241374	7	0.000291126	13	0	9.7366	1.08018e-05	18540.3
2	0	0	1	0	0	130.06	0.449237	0.448953	-0.0188087	7	0.00029599	13	0	0.000000000000000E+000	-8.44421e-06	23869.4
2	0	0	1	0	0	130.459	0.445242	0.444958	-0.0201727	7	0.0002882	13	0	0.3995	-8.976e-06	22057.4
2	0	0	1	0	0	130.859	0.441248	0.440963	-0.0219007	7	0.000279755	13	0	0.799	-9.65738e-06	20134.7
2	0	0	1	0	0	131.258	0.437253	0.436978	-0.0229757	7	0.000270951	13	0	1.1984	-1.00398e-05	19019.2
2	0	0	1	0	0	131.657	0.433259	0.432964	-0.022111	7	0.000261897	13	0	1.5978	-9.57324e-06	19581.4
2	0	0	1	0	0	132.057	0.429264	0.428972	-0.0256698	7	0.000252589	13	0	1.9973	-1.10116e-05	16711.2
2	0	0	1	0	0	132.456	0.425271	0.425007	-0.0220146	7	0.000243089	13	0	2.3967	-9.35637e-06	19305.7
2	0	0	1	0	0	132.856	0.421276	0.421005	-0.0276766	7	0.000233369	13	0	2.7962	-1.1652e-05	15211.6
2	0	0	1	0	0	133.255	0.417281	0.417014	-0.0216971	7	0.000223457	13	0	3.1956	-9.04797e-06	19219.8
2	0	0	1	0	0	133.655	0.413286	0.412998	-0.0302779	7	0.000213336	13	0	3.5951	-1.25047e-05	13640.2
2	0	0	1	0	0	134.054	0.409293	0.40903	-0.0210262	7	0.000203016	13	0	3.9945	-8.60034e-06	19453.3
2	0	0	1	0	0	134.454	0.405298	0.405048	-0.0326524	7	0.000192431	13	0	4.394	-1.32258e-05	12404.9
2	0	0	1	0	0	134.853	0.401303	0.401029	-0.0207527	7	0.000181697	13	0	4.7934	-8.32242e-06	19324.2
2	0	0	1	0	0	135.252	0.397309	0.397066	-0.0351714	7	0.00017073	13	0	5.1928	-1.39653e-05	11289.5
2	0	0	1	0	0	135.652	0.393314	0.393042	-0.020761	7	0.000159539	13	0	5.5923	-8.15993e-06	18931.8
2	0	0	1	0	0	136.051	0.38932	0.389033	-0.0369172	7	0.00014812	13	0	5.9918	-1.4362e-05	10538
2	0	0	1	0	0	136.451	0.385325	0.385049	-0.0214862	7	0.000136457	13	0	6.3912	-8.27324e-06	17920.8
2	0	0	1	0	0	136.85	0.381331	0.381052	-0.0385025	7	0.000124555	13	0	6.7906	-1.46714e-05	9896.82
2	0	0	1	0	0	137.25	0.377336	0.377049	-0.0226073	7	0.000112391	13	0	7.1901	-8.52407e-06	16678.2
2	0	0	1	0	0	137.649	0.373342	0.373061	-0.0397934	7	9.99743e-05	13	0	7.5896	-1.48454e-05	9374.95
2	0	0	1	0	0	138.049	0.369348	0.369096	-0.0242227	7	8.72702e-05	13	0	7.989	-8.94049e-06	15237.6
2	0	0	1	0	0	138.448	0.365353	0.365032	-0.0405727	7	7.42888e-05	13	0	8.3884	-1.48103e-05	8996.98
2	0	0	1	0	0	138.848	0.361358	0.361074	-0.0264433	7	6.10133e-05	13	0	8.7879	-9.54798e-06	13654.7
2	0	0	1	0	0	139.247	0.357365	0.35708	-0.0409473	7	4.74443e-05	13	0	9.1873	-1.46215e-05	8720.48
2	0	0	1	0	0	139.646	0.35337	0.353109	-0.0292694	7	3.35365e-05	13	0	9.5868	-1.03353e-05	12064.1
2	0	0	1	0	0	139.981	0.35	0.349762	-0.022328	7	2.15977e-05	13	0	9.9213	-7.80948e-06	15664.7
2	1	0	1	0	1	140.373	0.353919	0.353688	0.0245134	8	3.12854e-05	13	0	0.3596	8.6701e-06	14428.3
2	1	0	1	0	1	140.772	0.357913	0.357617	0.0366381	8	4.3528e-05	13	0	0.759	1.31024e-05	9760.78
2	1	0	1	0	1	141.172	0.361908	0.361667	0.0237183	8	5.59274e-05	13	0	1.1584	8.57813e-06	15248.4
2	1	0	1	0	1	141.571	0.365903	0.36561	0.0382243	8	6.83513e-05	13	0	1.5579	1.39752e-05	9564.86
2	1	0	1	0	1	141.971	0.369897	0.369678	0.0223038	8	8.06886e-05	13	0	1.9574	8.24522e-06	16574.7
2	1	0	1	0	1	142.37	0.373891	0.373623	0.0384609	8	9.2901e-05	13	0	2.3568	1.43699e-05	9714.35
2	1	0	1	0	1	142.77	0.377886	0.377653	0.0214415	8	0.000104983	13	0	2.7562	8.09744e-06	17613.2
2	1	0	1	0	1	143.169	0.381881	0.381647	0.0375161	8	0.000116906	13	0	3.1557	1.43179e-05	10172.9
2	1	0	1	0	1	143.569	0.385874	0.385609	0.0212258	8	0.000128671	13	0	3.5551	8.18488e-06	18167
2	1	0	1	0	1	143.968	0.389869	0.389623	0.0356913	8	0.000140271	13	0	3.9546	1.39061e-05	10916.5
2	1	0	1	0	1	144.367	0.393864	0.393618	0.0214036	8	0.000151716	13	0	4.354	8.42483e-06	18390.3
2	1	0	1	0	1	144.767	0.397858	0.397626	0.0338814	8	0.00016299	13	0	4.7534	1.34721e-05	11735.8
2	1	0	1	0	1	145.166	0.401852	0.40161	0.0222985	8	0.00017413	13	0	5.1529	8.95529e-06	18010.6
2	1	0	1	0	1	145.566	0.405847	0.405606	0.0312595	8	0.000185102	13	0	5.5524	1.2679e-05	12975.4
2	1	0	1	0	1	145.965	0.409841	0.409685	0.023336	8	0.000195999	13	0	5.9518	9.56042e-06	17555.9
2	1	0	1	0	1	146.365	0.413836	0.413659	0.0285542	8	0.000206688	13	0	6.3512	1.18117e-05	14486.8
2	1	0	1	0	1	146.764	0.417831	0.417595	0.024585	8	0.000217256	13	0	6.7507	1.02666e-05	16985.8
2	1	0	1	0	1	147.164	0.421825	0.421605	0.0258593	8	0.000227678	13	0	7.1502	1.09024e-05	16303.8
2	1	0	1	0	1	147.563	0.425819	0.42552	0.0255754	8	0.000237993	13	0	7.5496	1.08829e-05	16637.8
2	1	0	1	0	1	147.962	0.429814	0.429599	0.0236006	8	0.000248176	13	0	7.949	1.01388e-05	18202.9
2	1	0	1	0	1	148.362	0.433809	0.433611	0.0274447	8	0.000258285	13	0	8.3485	1.19003e-05	15799.4
2	1	0	1	0	1	148.761	0.437802	0.437602	0.0210863	8	0.000268275	13	0	8.7479	9.22739e-06	20753
2	1	0	1	0	1	149.161	0.441797	0.441568	0.0288598	8	0.000278184	13	0	9.1474	1.27436e-05	15300.5
2	1	0	1	0	1	149.56	0.445792	0.445577	0.0190207	8	0.000287997	13	0	9.5468	8.47517e-06	23425.9
2	1	0	1	0	1	149.957	0.449761	0.449524	0.0290159	8	0.000297639	13	0	9.9437	1.30433e-05	15492.4
2	0	0	1	0	1	150.366	0.446141	0.445871	-0.02737	8	0.000291512	13	0	0.3595	-1.22035e-05	16290.5
2	0	0	1	0	1	150.765	0.442146	0.441883	-0.0138318	8	0.000283163	13	0	0.759	-6.11204e-06	31946.9
2	0	0	1	0	1	151.165	0.438153	0.437902	-0.0296811	8	0.00027444	13	0	1.1584	-1.29974e-05	14753.6
2	0	0	1	0	1	151.564	0.434158	0.433909	-0.0152852	8	0.00026544	13	0	1.5579	-6.6324e-06	28387.5
2	0	0	1	0	1	151.964	0.430163	0.429889	-0.0302062	8	0.000256206	13	0	1.9573	-1.29853e-05	14231.8
2	0	0	1	0	1	152.363	0.426169	0.425921	-0.0171964	8	0.000246747	13	0	2.3567	-7.3243e-06	24768.1
2	0	0	1	0	1	152.763	0.422174	0.421878	-0.030043	8	0.000237097	13	0	2.7562	-1.26745e-05	14042.5
2	0	0	1	0	1	153.162	0.41818	0.417903	-0.0195802	8	0.000227231	13	0	3.1557	-8.18264e-06	21343.1
2	0	0	1	0	1	153.561	0.414185	0.413949	-0.0289693	8	0.000217181	13	0	3.5551	-1.19918e-05	14289.2
2	0	0	1	0	1	153.961	0.410191	0.409985	-0.0232922	8	0.0002069	13	0	3.9545	-9.54946e-06	17601.8
2	0	0	1	0	1	154.36	0.406196	0.405925	-0.0276663	8	0.000196436	13	0	4.354	-1.12304e-05	14672.2
2	0	0	1	0	1	154.76	0.402202	0.401981	-0.027375	8	0.00018569	13	0	4.7535	-1.10042e-05	14684.2
2	0	0	1	0	1	155.159	0.398208	0.397933	-0.0259405	8	0.000174799	13	0	5.1529	-1.03226e-05	15340.2
2	0	0	1	0	1	155.559	0.394213	0.393968	-0.0306135	8	0.000163665	13	0	5.5523	-1.20608e-05	12869.1
2	0	0	1	0	1	155.958	0.390218	0.389939	-0.0252725	8	0.000152314	13	0	5.9518	-9.85475e-06	15429.3
2	0	0	1	0	1	156.358	0.386225	0.385941	-0.0336273	8	0.000140726	13	0	6.3512	-1.29781e-05	11477
2	0	0	1	0	1	156.757	0.38223	0.381918	-0.0244775	8	0.000128897	13	0	6.7507	-9.3484e-06	15602.8
2	0	0	1	0	1	157.156	0.378235	0.377974	-0.0365993	8	0.000116802	13	0	7.1501	-1.38336e-05	10327.4
2	0	0	1	0	1	157.556	0.374241	0.373975	-0.0241732	8	0.000104459	13	0	7.5495	-9.04016e-06	15470.6
2	0	0	1	0	1	157.955	0.370246	0.370015	-0.039535	8	9.18255e-05	13	0	7.949	-1.46285e-05	9359.17
2	0	0	1	0	1	158.355	0.366252	0.365968	-0.0241287	8	7.89071e-05	13	0	8.3485	-8.83034e-06	15167.3
2	0	0	1	0	1	158.754	0.362257	0.361972	-0.0416367	8	6.57059e-05	13	0	8.7479	-1.50713e-05	8693.58
2	0	0	1	0	1	159.154	0.358263	0.357983	-0.025445	8	5.21938e-05	13	0	9.1473	-9.10889e-06	14068.9
2	0	0	1	0	1	159.553	0.354268	0.35398	-0.0433369	8	3.83784e-05	13	0	9.5468	-1.53404e-05	8168.09
2	0	0	1	0	1	159.953	0.350274	0.350021	-0.0274222	8	2.42419e-05	13	0	9.9463	-9.59835e-06	12764.2
2	1	0	1	0	0	160.32	0.35342	0.353188	0.0331479	9	3.16027e-05	13	0	0.2446	1.17075e-05	10654.9
2	1	0	1	0	0	160.719	0.357414	0.357133	0.030708	9	4.38039e-05	13	0	0.644	1.09668e-05	11630
2	1	0	1	0	0	161.119	0.361408	0.361195	0.0309221	9	5.62045e-05	13	0	1.0435	1.11689e-05	11680.8
2	1	0	1	0	0	161.518	0.365403	0.365112	0.0338854	9	6.86425e-05	13	0	1.443	1.23719e-05	10774.9
2	1	0	1	0	0	161.917	0.369398	0.369158	0.0271855	9	8.09866e-05	13	0	1.8424	1.00358e-05	13579.2
2	1	0	1	0	0	162.317	0.373392	0.37319	0.0363483	9	9.32318e-05	13	0	2.2418	1.35648e-05	10267.1
2	1	0	1	0	0	162.716	0.377386	0.377177	0.0239451	9	0.000105319	13	0	2.6413	9.03152e-06	15751.8
2	1	0	1	0	0	163.116	0.381381	0.381117	0.0369458	9	0.000117274	13	0	3.0408	1.40807e-05	10315.6
2	1	0	1	0	0	163.515	0.385375	0.385139	0.0222265	9	0.000129065	13	0	3.4402	8.56029e-06	17327.9
2	1	0	1	0	0	163.915	0.38937	0.389117	0.0373188	9	0.000140704	13	0	3.8396	1.45214e-05	10426.8
2	1	0	1	0	0	164.314	0.393365	0.393111	0.0209565	9	0.000152179	13	0	4.2391	8.23821e-06	18758.5
2	1	0	1	0	0	164.714	0.397358	0.397153	0.0367025	9	0.000163482	13	0	4.6385	1.45765e-05	10820.9
2	1	0	1	0	0	165.113	0.401353	0.401102	0.0204506	9	0.000174651	13	0	5.038	8.20279e-06	19613.2
2	1	0	1	0	0	165.512	0.405348	0.4051	0.0351673	9	0.000185646	13	0	5.4374	1.42463e-05	11519.2
2	1	0	1	0	0	165.912	0.409343	0.409185	0.0208439	9	0.000196568	13	0	5.8369	8.52903e-06	19630.9
2	1	0	1	0	0	166.311	0.413336	0.413169	0.0326016	9	0.000207269	13	0	6.2363	1.347e-05	12673.3
2	1	0	1	0	0	166.711	0.417331	0.417098	0.0224388	9	0.000217863	13	0	6.6358	9.35919e-06	18588.3
2	1	0	1	0	0	167.11	0.421326	0.421077	0.0292192	9	0.000228302	13	0	7.0352	1.23036e-05	14411
2	1	0	1	0	0	167.51	0.42532	0.425054	0.0246196	9	0.000238637	13	0	7.4346	1.04647e-05	17264.9
2	1	0	1	0	0	167.909	0.429314	0.429065	0.025438	9	0.000248833	13	0	7.8341	1.09145e-05	16867.1
2	1	0	1	0	0	168.309	0.433309	0.433087	0.0277526	9	0.000258955	13	0	8.2336	1.20193e-05	15605.3
2	1	0	1	0	0	168.708	0.437303	0.437054	0.0215145	9	0.000268951	13	0	8.633	9.40302e-06	20314.3
2	1	0	1	0	0	169.107	0.441298	0.441051	0.0300332	9	0.000278884	13	0	9.0324	1.32462e-05	14685.4
2	1	0	1	0	0	169.507	0.445293	0.445097	0.0188296	9	0.000288717	13	0	9.4319	8.38102e-06	23638.1
2	1	0	1	0	0	169.906	0.449287	0.449064	0.0315223	9	0.000298465	13	0	9.8314	1.41555e-05	14245.9
2	0	0	1	0	0	170.313	0.44664	0.446356	-0.0277598	9	0.000294376	13	0	0.2447	-1.23908e-05	16079.2
2	0	0	1	0	0	170.712	0.442646	0.442384	-0.0147354	9	0.00028608	13	0	0.6442	-6.51873e-06	30021.8
2	0	0	1	0	0	171.111	0.438652	0.438361	-0.0286603	9	0.000277402	13	0	1.0436	-1.25636e-05	15295.1
2	0	0	1	0	0	171.511	0.434657	0.43438	-0.0176532	9	0.000268425	13	0	1.443	-7.66817e-06	24606.4
2	0	0	1	0	0	171.91	0.430662	0.430394	-0.0282193	9	0.000259231	13	0	1.8425	-1.21454e-05	15251.8
2	0	0	1	0	0	172.31	0.426669	0.426399	-0.0208341	9	0.000249793	13	0	2.2419	-8.88362e-06	20466.4
2	0	0	1	0	0	172.709	0.422674	0.422361	-0.0264487	9	0.000240163	13	0	2.6414	-1.11709e-05	15969.1
2	0	0	1	0	0	173.109	0.418679	0.41847	-0.0247312	9	0.000230315	13	0	3.0408	-1.03492e-05	16920.8
2	0	0	1	0	0	173.508	0.414685	0.414453	-0.0249982	9	0.000220291	13	0	3.4402	-1.03606e-05	16579.3
2	0	0	1	0	0	173.908	0.41069	0.410492	-0.0289635	9	0.000210038	13	0	3.8397	-1.18893e-05	14172.7
2	0	0	1	0	0	174.307	0.406696	0.40639	-0.0225383	9	0.000199594	13	0	4.2392	-9.15935e-06	18031.1
2	0	0	1	0	0	174.706	0.402701	0.402425	-0.0331056	9	0.000188857	13	0	4.6386	-1.33225e-05	12155.8
2	0	0	1	0	0	175.106	0.398707	0.398396	-0.0212576	9	0.000177982	13	0	5.038	-8.46895e-06	18741.3
2	0	0	1	0	0	175.505	0.394712	0.394429	-0.0360835	9	0.000166872	13	0	5.4375	-1.42324e-05	10931
2	0	0	1	0	0	175.905	0.390718	0.390437	-0.0209618	9	0.000155527	13	0	5.837	-8.18426e-06	18626.1
2	0	0	1	0	0	176.304	0.386724	0.386451	-0.0375514	9	0.000143952	13	0	6.2364	-1.45118e-05	10291.3
2	0	0	1	0	0	176.704	0.382729	0.382429	-0.0221621	9	0.00013212	13	0	6.6358	-8.47543e-06	17256
2	0	0	1	0	0	177.103	0.378734	0.378399	-0.0386539	9	0.000120046	13	0	7.0353	-1.46266e-05	9789.42
2	0	0	1	0	0	177.503	0.374741	0.374452	-0.0243982	9	0.000107711	13	0	7.4347	-9.13598e-06	15347.5
2	0	0	1	0	0	177.902	0.370746	0.370453	-0.038465	9	9.51226e-05	13	0	7.8342	-1.42495e-05	9630.9
2	0	0	1	0	0	178.301	0.366751	0.366448	-0.0278289	9	8.22391e-05	13	0	8.2336	-1.01978e-05	13167.9
2	0	0	1	0	0	178.701	0.362757	0.36247	-0.0378714	9	6.90884e-05	13	0	8.633	-1.37273e-05	9571.08
2	0	0	1	0	0	179.1	0.358762	0.358449	-0.0326796	9	5.56048e-05	13	0	9.0325	-1.1714e-05	10968.6
2	0	0	1	0	0	179.5	0.354768	0.354448	-0.0350993	9	4.18413e-05	13	0	9.432	-1.24409e-05	10098.4
2	0	0	1	0	0	179.899	0.350773	0.3505	-0.0379632	9	2.77359e-05	13	0	9.8314	-1.33061e-05	9232.63
2	1	0	1	0	1	180.266	0.352921	0.352683	0.0216109	10	3.18665e-05	13	0	0.1947	7.62178e-06	16319.7
2	1	0	1	0	1	180.666	0.356915	0.356648	0.0389829	10	4.40177e-05	13	0	0.5942	1.39032e-05	9148.84
2	1	0	1	0	1	181.065	0.360909	0.360629	0.0226269	10	5.64245e-05	13	0	0.9936	8.1599e-06	15938.1
2	1	0	1	0	1	181.465	0.364904	0.36469	0.0383984	10	6.88398e-05	13	0	1.393	1.40035e-05	9497.52
2	1	0	1	0	1	181.864	0.368899	0.368644	0.0239886	10	8.12049e-05	13	0	1.7925	8.84325e-06	15367.5
2	1	0	1	0	1	182.264	0.372892	0.372673	0.0361982	10	9.34404e-05	13	0	2.1919	1.34901e-05	10295.3
2	1	0	1	0	1	182.663	0.376887	0.376623	0.0255275	10	0.000105578	13	0	2.5914	9.61423e-06	14753.6
2	1	0	1	0	1	183.062	0.380882	0.380642	0.0321325	10	0.000117521	13	0	2.9908	1.2231e-05	11846
2	1	0	1	0	1	183.462	0.384876	0.384577	0.0278574	10	0.000129329	13	0	3.3902	1.07133e-05	13805.2
2	1	0	1	0	1	183.861	0.38887	0.388653	0.0288807	10	0.000140969	13	0	3.7897	1.12246e-05	13457.2
2	1	0	1	0	1	184.261	0.392865	0.392599	0.0294393	10	0.000152459	13	0	4.1892	1.15578e-05	13335.9
2	1	0	1	0	1	184.66	0.396859	0.396606	0.025553	10	0.00016377	13	0	4.5886	1.01344e-05	15520.9
2	1	0	1	0	1	185.06	0.400854	0.40062	0.0313217	10	0.000174951	13	0	4.988	1.25481e-05	12790.5
2	1	0	1	0	1	185.459	0.404849	0.404634	0.0220865	10	0.000185956	13	0	5.3875	8.93698e-06	18320.4
2	1	0	1	0	1	185.859	0.408843	0.408652	0.0327652	10	0.000196891	13	0	5.787	1.33895e-05	12472.1
2	1	0	1	0	1	186.258	0.412837	0.412666	0.0197156	10	0.000207613	13	0	6.1864	8.13593e-06	20931
2	1	0	1	0	1	186.657	0.416832	0.416654	0.033543	10	0.000218203	13	0	6.5858	1.39758e-05	12421.5
2	1	0	1	0	1	187.057	0.420827	0.420545	0.018211	10	0.000228676	13	0	6.9853	7.65856e-06	23092.9
2	1	0	1	0	1	187.456	0.42482	0.42457	0.0334638	10	0.000239025	13	0	7.3847	1.42077e-05	12687.4
2	1	0	1	0	1	187.856	0.428815	0.42858	0.0178956	10	0.000249266	13	0	7.7842	7.66971e-06	23948.8
2	1	0	1	0	1	188.255	0.43281	0.432607	0.031776	10	0.00025938	13	0	8.1836	1.37465e-05	13614.3
2	1	0	1	0	1	188.655	0.436804	0.43655	0.0191352	10	0.000269415	13	0	8.583	8.35347e-06	22814
2	1	0	1	0	1	189.054	0.440798	0.440581	0.0295765	10	0.000279337	13	0	8.9825	1.30308e-05	14896.3
2	1	0	1	0	1	189.454	0.444793	0.444569	0.0205231	10	0.000289178	13	0	9.382	9.12393e-06	21661.9
2	1	0	1	0	1	189.853	0.448787	0.448593	0.0268456	10	0.000298911	13	0	9.7814	1.20428e-05	16710.1
2	0	0	1	0	1	190.259	0.44714	0.446824	-0.0177413	10	0.000297115	13	0	0.1948	-7.92725e-06	25185.5
2	0	0	1	0	1	190.659	0.443145	0.442902	-0.0241609	10	0.000288882	13	0	0.5942	-1.07009e-05	18331.3
2	0	0	1	0	1	191.058	0.439151	0.438889	-0.0177125	10	0.000280243	13	0	0.9936	-7.7738e-06	24778.5
2	0	0	1	0	1	191.458	0.435156	0.434863	-0.0281492	10	0.000271291	13	0	1.3931	-1.22411e-05	15448.5
2	0	0	1	0	1	191.857	0.431162	0.430902	-0.0170048	10	0.000262116	13	0	1.7926	-7.32739e-06	25340.1
2	0	0	1	0	1	192.256	0.427167	0.426887	-0.0306136	10	0.00025271	13	0	2.192	-1.30686e-05	13944.3
2	0	0	1	0	1	192.656	0.423173	0.422897	-0.0171188	10	0.000243093	13	0	2.5914	-7.23951e-06	24703.6
2	0	0	1	0	1	193.055	0.419178	0.418914	-0.0326321	10	0.000233282	13	0	2.9909	-1.367e-05	12837.5
2	0	0	1	0	1	193.455	0.415185	0.414964	-0.0174724	10	0.000223273	13	0	3.3903	-7.25043e-06	23749.7
2	0	0	1	0	1	193.854	0.41119	0.410969	-0.03362	10	0.000213059	13	0	3.7898	-1.38168e-05	12223.9
2	0	0	1	0	1	194.254	0.407195	0.406899	-0.0189746	10	0.000202644	13	0	4.1892	-7.72074e-06	21444.4
2	0	0	1	0	1	194.653	0.4032	0.402904	-0.0337066	10	0.000191966	13	0	4.5887	-1.35805e-05	11953.2
2	0	0	1	0	1	195.053	0.399207	0.398928	-0.021767	10	0.000181126	13	0	4.9881	-8.68346e-06	18327.2
2	0	0	1	0	1	195.452	0.395212	0.3949	-0.0323846	10	0.000170073	13	0	5.3876	-1.27887e-05	12194.1
2	0	0	1	0	1	195.851	0.391217	0.390968	-0.0254225	10	0.000158766	13	0	5.787	-9.93939e-06	15378.8
2	0	0	1	0	1	196.251	0.387223	0.386854	-0.0303877	10	0.000147253	13	0	6.1864	-1.17556e-05	12730.6
2	0	0	1	0	1	196.65	0.383229	0.382975	-0.0299547	10	0.000135466	13	0	6.5859	-1.14719e-05	12785.1
2	0	0	1	0	1	197.05	0.379234	0.378906	-0.0283259	10	0.000123445	13	0	6.9854	-1.07329e-05	13376.6
2	0	0	1	0	1	197.449	0.375239	0.375016	-0.0340308	10	0.000111148	13	0	7.3848	-1.27621e-05	11019.9
2	0	0	1	0	1	197.849	0.371245	0.370977	-0.0270828	10	9.85944e-05	13	0	7.7842	-1.00471e-05	13697.9
2	0	0	1	0	1	198.248	0.36725	0.36697	-0.0383917	10	8.57446e-05	13	0	8.1837	-1.40886e-05	9558.56
2	0	0	1	0	1	198.648	0.363256	0.362974	-0.0259007	10	7.26248e-05	13	0	8.5832	-9.40129e-06	14014
2	0	0	1	0	1	199.047	0.359262	0.358994	-0.04175	10	5.91916e-05	13	0	8.9826	-1.4988e-05	8598.66
2	0	0	1	0	1	199.446	0.355267	0.354968	-0.0260621	10	4.54619e-05	13	0	9.382	-9.25122e-06	13620.1
2	0	0	1	0	1	199.846	0.351272	0.351002	-0.0438508	10	3.1422e-05	13	0	9.7815	-1.53917e-05	8004.45
2	0	0	0	0	1	199.971	0.35	0.349781	-0.0260971	10	2.68837e-05	13	0	9.9063	-9.12826e-06	13403.1