File: ACS_Catal_2026/Figures_Na_K/main_figures/data/EC/20251112_2-148_alpha_reproducibility/20251112_2-148_002_alpha_reproducibility_2_K1_03_CVA_C02.mpt
EC-Lab ASCII FILE
Nb header lines : 66

Cyclic Voltammetry Advanced

Run on channel : 2 (SN 69290)
User :
CE vs. WE compliance from -10 V to 10 V
Electrode connection : standard
Potential control : Ewe
Ewe ctrl range : min = -1.00 V, max = 1.00 V
Safety Limits :
	Do not start on E overload
Acquisition started on : 11/12/2025 13:25:42.107
Loaded Setting File :  C:\Users\User\Documents\EC-Lab\Data\Yatsuzuka\20251112_2-148_alpha_reproducibility\20251112_2-148_002_alpha_reproducibility_2_K1.mps
Saved on :
	File : 20251112_2-148_002_alpha_reproducibility_2_K1_03_CVA_C02.mpr
	Directory : C:\Users\User\Documents\EC-Lab\Data\Yatsuzuka\20251112_2-148_alpha_reproducibility\
	Host : 192.109.209.127
Device : SP-150e (SN .003883)
Address : 192.109.209.128
EC-LAB for windows v11.52 (software)
Internet server v11.52 (firmware)
Command interpretor v11.50 (firmware)
Electrode material :
Initial state :
Electrolyte :
Comments :
Electrode surface area : 0.001 cm2
Characteristic mass : 0.001 g
Equivalent Weight : 0.000 g/eq.
Density : 0.000 g/cm3
Volume (V) : 0.001 cm3
Cycle Definition : Charge/Discharge alternance
Ei (V)              0.450
vs.                 Ref
ti (h:m:s)          0:00:10.0000
dti (s)             0.0000
dE/dt               5.000
dE/dt unit          mV/s
E1 (V)              0.700
vs.                 Ref
t1 (h:m:s)          0:00:0.0000
dt1 (s)             0.1000
Step percent        50
N                   10
E range min (V)     -1.000
E range max (V)     1.000
I Range             10 mA
I Range min         Unset
I Range max         Unset
I Range init        Unset
Bandwidth           5
E2 (V)              0.450
vs.                 Ref
t2 (h:m:s)          0:00:0.0000
dt2 (s)             0.1000
nc cycles           14
nr                  1
Reverse Scan        0
Ef (V)              0.000
vs.                 Eoc
tf (h:m:s)          0:00:0.0000
dtf (s)             0.1000

mode	ox/red	error	control changes	Ns changes	counter inc.	time/s	control/V	Ewe/V	<I>/mA	cycle number	(Q-Qo)/C	I Range	Ns	step time/s	Pwe/W	Rwe/Ohm
2	1	0	0	0	0	231.719	0.450021	0.449592	0.0144042	1	0.0000000E+000	11	0	0.000000000000000E+000	6.47602e-06	31212.5
2	1	0	0	0	0	234.471	0.463779	0.463343	0.0196167	1	4.64756e-05	11	0	2.6968	9.08924e-06	23619.9
2	1	0	1	0	0	237.268	0.477762	0.477303	0.0200901	1	9.56211e-05	11	0	5.4935	9.58907e-06	23758.1
2	1	0	1	0	0	240.065	0.491746	0.491271	0.0204507	1	0.000146636	11	0	8.2902	1.00468e-05	24022.3
2	1	0	1	0	0	242.861	0.505729	0.505275	0.0224201	1	0.000201321	11	0	11.0869	1.13283e-05	22536.7
2	1	0	0	0	0	245.658	0.519713	0.519271	0.0252597	1	0.000260761	11	0	13.8836	1.31166e-05	20557.3
2	1	0	1	0	0	248.455	0.533697	0.533188	0.0271097	1	0.000327825	11	0	16.6803	1.44546e-05	19667.8
2	1	0	1	0	0	251.251	0.547679	0.547256	0.0298484	1	0.000406329	11	0	19.4769	1.63347e-05	18334.5
2	1	0	0	0	0	254.048	0.561663	0.561182	0.0407833	1	0.000501722	11	0	22.2736	2.28869e-05	13760.1
2	1	0	1	0	0	256.845	0.575646	0.575231	0.0484429	1	0.000622121	11	0	25.0703	2.78658e-05	11874.4
2	1	0	1	0	0	259.641	0.58963	0.589161	0.0670027	1	0.000783005	11	0	27.867	3.94754e-05	8793.1
2	1	0	1	0	0	262.438	0.603614	0.603148	0.0942306	1	0.00100916	11	0	30.6637	5.6835e-05	6400.76
2	1	0	0	0	0	265.235	0.617597	0.617157	0.150631	1	0.00134687	11	0	33.4604	9.29628e-05	4097.16
2	1	0	1	0	0	268.031	0.631581	0.631145	0.239402	1	0.0018809	11	0	36.2571	0.000151097	2636.35
2	1	0	1	0	0	270.828	0.645563	0.645148	0.39699	1	0.00275521	11	0	39.0537	0.000256117	1625.1
2	1	0	0	0	0	273.625	0.659547	0.659101	0.646123	1	0.00418492	11	0	41.8504	0.00042586	1020.09
2	1	0	1	0	0	276.421	0.67353	0.673038	1.00901	1	0.00647403	11	0	44.6471	0.000679101	667.028
2	1	0	1	0	0	279.218	0.687514	0.687039	1.47344	1	0.00992818	11	0	47.4438	0.00101231	466.283
2	1	0	1	0	0	281.765	0.699749	0.699296	1.92921	1	0.0143044	11	0	49.9911	0.00134909	362.478
2	1	0	1	0	0	284.562	0.685766	0.685322	1.24086	1	0.0186601	11	0	52.7878	0.00085039	552.296
2	1	0	1	0	0	287.359	0.671782	0.671269	0.81208	1	0.0215	11	0	55.5845	0.000545124	826.604
2	1	0	1	0	0	290.155	0.6578	0.657333	0.473153	1	0.0232644	11	0	58.3811	0.000311019	1389.26
2	1	0	1	0	0	292.952	0.643816	0.643369	0.268285	1	0.0242761	11	0	61.1778	0.000172606	2398.08
2	1	0	1	0	0	295.749	0.629833	0.629375	0.147724	1	0.0248384	11	0	63.9745	9.29738e-05	4260.49
2	1	0	0	0	0	298.546	0.615849	0.615417	0.07083	1	0.0251335	11	0	66.7712	4.359e-05	8688.65
2	1	0	1	0	0	301.342	0.601865	0.601392	0.0377115	1	0.0252793	11	0	69.5679	2.26794e-05	15947.2
2	1	0	1	0	0	304.139	0.587882	0.587417	0.0117986	1	0.0253449	11	0	72.3646	6.93067e-06	49787.1
2	1	0	1	0	0	306.936	0.573898	0.573414	0.00488652	1	0.0253682	11	0	75.1613	2.802e-06	117346
2	1	0	1	0	0	309.732	0.559916	0.559461	-0.00154203	1	0.0253682	11	0	0.2996	-8.62703e-07	362809
2	0	0	1	0	0	312.529	0.545932	0.545487	-0.0074681	1	0.0253559	11	0	3.0963	-4.07375e-06	73042.2
2	0	0	1	0	0	315.326	0.531948	0.531442	-0.00564241	1	0.0253361	11	0	5.893	-2.99861e-06	94187
2	0	0	0	0	0	318.122	0.517965	0.517491	-0.00811725	1	0.025312	11	0	8.6897	-4.20061e-06	63752.1
2	0	0	1	0	0	320.919	0.503981	0.503542	-0.00900669	1	0.025285	11	0	11.4864	-4.53525e-06	55907.5
2	0	0	1	0	0	323.716	0.489998	0.489515	-0.0136451	1	0.0252554	11	0	14.2831	-6.6795e-06	35874.7
2	1	0	1	0	0	326.512	0.476014	0.475541	-0.00915611	1	0.0252238	11	0	17.0798	-4.3541e-06	51937
2	0	0	1	0	0	329.309	0.462032	0.461552	-0.0150109	1	0.02519	11	0	19.8764	-6.92829e-06	30747.9
2	0	0	1	0	1	331.875	0.450844	0.450328	0.0111383	2	0.025161	11	0	0.1549	5.01589e-06	40430.6
2	1	0	1	0	1	334.672	0.464828	0.464368	0.0171804	2	0.0252018	11	0	2.9516	7.97801e-06	27028.9
2	0	0	1	0	1	337.469	0.478812	0.478359	0.0123133	2	0.0252441	11	0	5.7483	5.89016e-06	38849
2	1	0	1	0	1	340.265	0.492794	0.492314	0.0176263	2	0.0252867	11	0	8.5449	8.67766e-06	27930.7
2	1	0	1	0	1	343.062	0.506778	0.506306	0.0132196	2	0.0253293	11	0	11.3416	6.69316e-06	38299.7
2	0	0	1	0	1	345.859	0.520761	0.520273	0.0140674	2	0.0253723	11	0	14.1383	7.31889e-06	36984.4
2	1	0	0	0	1	348.655	0.534745	0.534299	0.0190582	2	0.0254172	11	0	16.935	1.01828e-05	28035.1
2	1	0	1	0	1	351.452	0.548729	0.548245	0.020627	2	0.025465	11	0	19.7317	1.13086e-05	26579.1
2	1	0	1	0	1	354.249	0.562712	0.562257	0.0184523	2	0.0255194	11	0	22.5284	1.0375e-05	30470.8
2	1	0	1	0	1	357.045	0.576696	0.576239	0.0258996	2	0.0255868	11	0	25.3251	1.49244e-05	22248.9
2	1	0	1	0	1	359.842	0.590678	0.590236	0.0397497	2	0.0256795	11	0	28.1217	2.34617e-05	14848.8
2	1	0	1	0	1	362.639	0.604662	0.604194	0.0625986	2	0.0258199	11	0	30.9184	3.78217e-05	9651.87
2	1	0	1	0	1	365.435	0.618645	0.618206	0.110859	2	0.0260537	11	0	33.7151	6.85339e-05	5576.5
2	1	0	0	0	1	368.232	0.632629	0.632164	0.188124	2	0.0264611	11	0	36.5118	0.000118925	3360.36
2	1	0	1	0	1	371.029	0.646612	0.64623	0.338896	2	0.0271809	11	0	39.3085	0.000219004	1906.87
2	1	0	1	0	1	373.826	0.660596	0.660116	0.574335	2	0.0284346	11	0	42.1052	0.000379128	1149.36
2	1	0	1	0	1	376.622	0.67458	0.674152	0.924098	2	0.0305051	11	0	44.9019	0.000622983	729.524
2	1	0	1	0	1	379.419	0.688562	0.688107	1.36552	2	0.0336966	11	0	47.6985	0.000939624	503.916
2	1	0	1	0	1	381.956	0.69875	0.698303	1.70332	2	0.0377328	11	0	50.2359	0.00118943	409.966
2	1	0	1	0	1	384.753	0.684768	0.684279	1.13545	2	0.0416329	11	0	53.0325	0.000776962	602.651
2	1	0	1	0	1	387.55	0.670784	0.670393	0.703905	2	0.044157	11	0	55.8292	0.000471893	952.39
2	1	0	1	0	1	390.346	0.6568	0.656373	0.425177	2	0.0456981	11	0	58.6259	0.000279075	1543.76
2	1	0	0	0	1	393.143	0.642817	0.642348	0.234816	2	0.0466002	11	0	61.4226	0.000150833	2735.54
2	1	0	1	0	1	395.94	0.628833	0.628375	0.127973	2	0.0470933	11	0	64.2193	8.04148e-05	4910.24
2	1	0	1	0	1	398.736	0.61485	0.614424	0.0606949	2	0.0473462	11	0	67.016	3.72924e-05	10123.2
2	1	0	1	0	1	401.533	0.600866	0.60038	0.0287531	2	0.0474671	11	0	69.8127	1.72628e-05	20880.5
2	1	0	1	0	1	404.33	0.586884	0.58639	0.012133	2	0.0475182	11	0	72.6093	7.11469e-06	48330.1
2	0	0	1	0	1	407.126	0.5729	0.572435	-0.00155692	2	0.047532	11	0	0.0999	-8.91233e-07	367672
2	0	0	1	0	1	409.923	0.558916	0.558455	-0.00534747	2	0.047526	11	0	1.7979	-2.98632e-06	104433
2	0	0	0	0	1	412.72	0.544933	0.544479	-0.0052681	2	0.0475096	11	0	4.5946	-2.86837e-06	103354
2	1	0	1	0	1	415.516	0.530949	0.530515	-0.00762441	2	0.0474873	11	0	7.3913	-4.04486e-06	69581.2
2	0	0	1	0	1	418.313	0.516966	0.516481	-0.0125643	2	0.0474608	11	0	10.188	-6.48925e-06	41106.9
2	0	0	1	0	1	421.11	0.502982	0.502525	-0.00902021	2	0.0474318	11	0	12.9847	-4.53288e-06	55711
2	0	0	1	0	1	423.906	0.489	0.488542	-0.0121176	2	0.0474011	11	0	15.7813	-5.91995e-06	40316.7
2	0	0	1	0	1	426.703	0.475016	0.474523	-0.0113311	2	0.0473683	11	0	18.578	-5.37686e-06	41878
2	0	0	1	0	1	429.5	0.461032	0.460615	-0.0128766	2	0.047334	11	0	21.3747	-5.93117e-06	35771.4
2	1	0	1	0	0	432.066	0.451844	0.451364	0.0108709	3	0.0473095	11	0	0.3547	4.90671e-06	41520.6
2	1	0	1	0	0	434.863	0.465826	0.465361	0.0123016	3	0.0473491	11	0	3.1513	5.72468e-06	37829.4
2	1	0	1	0	0	437.659	0.47981	0.479346	0.0122086	3	0.04739	11	0	5.948	5.85217e-06	39262.9
2	0	0	1	0	0	440.456	0.493793	0.493335	0.011773	3	0.0474306	11	0	8.7447	5.80804e-06	41903.8
2	0	0	0	0	0	443.253	0.507777	0.507337	0.0124219	3	0.0474714	11	0	11.5414	6.30209e-06	40842.2
2	1	0	1	0	0	446.049	0.521761	0.521294	0.0146247	3	0.0475128	11	0	14.3381	7.62375e-06	35644.9
2	1	0	1	0	0	448.846	0.535744	0.53528	0.0178571	3	0.0475555	11	0	17.1348	9.55856e-06	29975.7
2	1	0	1	0	0	451.643	0.549728	0.54923	0.0182037	3	0.0476012	11	0	19.9315	9.99804e-06	30171.3
2	1	0	1	0	0	454.439	0.56371	0.563218	0.0185407	3	0.047653	11	0	22.7281	1.04425e-05	30377.4
2	1	0	1	0	0	457.236	0.577694	0.577236	0.0235989	3	0.0477168	11	0	25.5248	1.36221e-05	24460.3
2	1	0	1	0	0	460.033	0.591677	0.591205	0.0370635	3	0.0478047	11	0	28.3215	2.19122e-05	15951.1
2	1	0	0	0	0	462.83	0.605661	0.605182	0.0606812	3	0.0479396	11	0	31.1182	3.67232e-05	9973.15
2	1	0	1	0	0	465.626	0.619645	0.619211	0.105961	3	0.0481645	11	0	33.9149	6.56125e-05	5843.73
2	1	0	1	0	0	468.423	0.633628	0.633213	0.188068	3	0.0485595	11	0	36.7116	0.000119087	3366.93
2	1	0	0	0	0	471.22	0.647611	0.647135	0.331613	3	0.0492628	11	0	39.5082	0.000214598	1951.48
2	1	0	1	0	0	474.016	0.661594	0.661181	0.566043	3	0.0504884	11	0	42.3049	0.000374257	1168.08
2	1	0	1	0	0	476.813	0.675578	0.675168	0.910489	3	0.0525175	11	0	45.1016	0.000614733	741.545
2	1	0	1	0	0	479.61	0.689561	0.689073	1.37264	3	0.0556927	11	0	47.8983	0.000945848	502.006
2	1	0	1	0	0	482.147	0.697752	0.697321	1.62999	3	0.0597253	11	0	50.4356	0.00113663	427.806
2	1	0	1	0	0	484.944	0.683768	0.683309	1.03046	3	0.0634012	11	0	53.2323	0.000704124	663.109
2	1	0	0	0	0	487.74	0.669785	0.669292	0.658475	3	0.0657286	11	0	56.029	0.000440712	1016.43
2	1	0	1	0	0	490.537	0.655801	0.655338	0.388028	3	0.0671611	11	0	58.8257	0.000254289	1688.89
2	1	0	1	0	0	493.334	0.641818	0.641374	0.218551	3	0.0679918	11	0	61.6224	0.000140173	2934.67
2	1	0	1	0	0	496.13	0.627834	0.627345	0.110929	3	0.0684391	11	0	64.4191	6.95909e-05	5655.37
2	1	0	1	0	0	498.927	0.613852	0.613371	0.0576514	3	0.0686662	11	0	67.2157	3.53617e-05	10639.3
2	1	0	1	0	0	501.724	0.599868	0.599406	0.022308	3	0.0687721	11	0	70.0124	1.33716e-05	26869.5
2	1	0	1	0	0	504.52	0.585884	0.585436	0.0108184	3	0.0688156	11	0	72.8091	6.33348e-06	54114.8
2	0	0	0	0	0	507.317	0.571901	0.571412	-0.00280136	3	0.0688251	11	0	0.000000000000000E+000	-1.60073e-06	203977
2	1	0	1	0	0	510.114	0.557917	0.557437	-0.0024674	3	0.0688171	11	0	1.7979	-1.37542e-06	225921
2	0	0	1	0	0	512.911	0.543934	0.543472	-0.00928863	3	0.0687995	11	0	4.5946	-5.04811e-06	58509.4
2	1	0	1	0	0	515.707	0.52995	0.529498	-0.0062029	3	0.0687761	11	0	7.3913	-3.28442e-06	85362.9
2	1	0	1	0	0	518.504	0.515968	0.515525	-0.00772512	3	0.0687495	11	0	10.1879	-3.98249e-06	66733.6
2	0	0	1	0	0	521.301	0.501984	0.501539	-0.013335	3	0.0687203	11	0	12.9846	-6.68801e-06	37610.8
2	0	0	1	0	0	524.097	0.488	0.48753	-0.0133165	3	0.0686894	11	0	15.7813	-6.4922e-06	36611
2	1	0	0	0	0	526.894	0.474017	0.473565	-0.00944801	3	0.0686565	11	0	18.578	-4.47424e-06	50123.2
2	1	0	1	0	0	529.691	0.460033	0.459511	-0.00990399	3	0.0686218	11	0	21.3747	-4.551e-06	46396.6
2	1	0	1	0	1	532.257	0.452842	0.452372	0.012622	4	0.0686025	11	0	0.4994	5.70982e-06	35840
2	1	0	1	0	1	535.053	0.466825	0.466379	0.014646	4	0.0686417	11	0	3.2961	6.83058e-06	31843.5
2	1	0	0	0	1	537.85	0.480809	0.480363	0.0159743	4	0.0686818	11	0	6.0928	7.67344e-06	30071
2	1	0	1	0	1	540.647	0.494793	0.49436	0.0171959	4	0.0687221	11	0	8.8895	8.50097e-06	28748.7
2	1	0	1	0	1	543.444	0.508776	0.50832	0.0169704	4	0.0687624	11	0	11.6862	8.62638e-06	29953.4
2	1	0	0	0	1	546.24	0.522759	0.522297	0.013441	4	0.0688029	11	0	14.4828	7.02018e-06	38858.5
2	1	0	1	0	1	549.037	0.536742	0.536285	0.0139426	4	0.0688447	11	0	17.2795	7.4772e-06	38463.8
2	1	0	1	0	1	551.834	0.550726	0.550245	0.0158535	4	0.0688895	11	0	20.0762	8.72329e-06	34708.2
2	1	0	1	0	1	554.63	0.564709	0.564248	0.0194635	4	0.0689402	11	0	22.8729	1.09823e-05	28990
2	1	0	0	0	1	557.427	0.578693	0.578281	0.0268635	4	0.0690031	11	0	25.6696	1.55347e-05	21526.6
2	1	0	1	0	1	560.224	0.592676	0.592213	0.0396037	4	0.0690901	11	0	28.4663	2.34538e-05	14953.5
2	1	0	1	0	1	563.02	0.60666	0.606227	0.0623887	4	0.0692236	11	0	31.263	3.78217e-05	9716.95
2	1	0	0	0	1	565.817	0.620643	0.62015	0.104747	4	0.0694469	11	0	34.0596	6.49588e-05	5920.47
2	1	0	1	0	1	568.614	0.634626	0.634194	0.183536	4	0.069841	11	0	36.8563	0.000116397	3455.42
2	1	0	1	0	1	571.41	0.64861	0.648147	0.329299	4	0.0705446	11	0	39.653	0.000213434	1968.26
2	1	0	1	0	1	574.207	0.662594	0.66219	0.569474	4	0.0717768	11	0	42.4497	0.0003771	1162.81
2	1	0	0	0	1	577.004	0.676577	0.67612	0.918884	4	0.0738293	11	0	45.2464	0.000621276	735.805
2	1	0	1	0	1	579.8	0.690561	0.690095	1.35194	4	0.0769973	11	0	48.0431	0.000932965	510.449
2	1	0	0	0	1	582.338	0.696753	0.696314	1.51882	4	0.0809111	11	0	50.5804	0.00105757	458.458
2	1	0	1	0	1	585.134	0.682769	0.682278	0.921677	4	0.0842782	11	0	53.3771	0.00062884	740.257
2	1	0	1	0	1	587.931	0.668786	0.668269	0.55136	4	0.086304	11	0	56.1738	0.000368457	1212.04
2	1	0	1	0	1	590.728	0.654802	0.654353	0.321654	4	0.0874909	11	0	58.9705	0.000210475	2034.34
2	1	0	1	0	1	593.524	0.64082	0.640368	0.189739	4	0.0881903	11	0	61.7671	0.000121503	3374.99
2	1	0	1	0	1	596.321	0.626836	0.626385	0.0988331	4	0.0885827	11	0	64.5638	6.19076e-05	6337.81
2	1	0	1	0	1	599.118	0.612852	0.612429	0.0496371	4	0.0887865	11	0	67.3605	3.03992e-05	12338.1
2	1	0	0	0	1	601.915	0.598869	0.598408	0.02342	4	0.0888823	11	0	70.1572	1.40147e-05	25551.1
2	1	0	1	0	1	604.711	0.584885	0.584451	0.00911725	4	0.0889196	11	0	72.9539	5.32859e-06	64103.9
2	1	0	1	0	1	607.508	0.570902	0.570392	0.00142976	4	0.0889263	11	0	0.000000000000000E+000	8.15526e-07	398941
2	1	0	0	0	1	610.305	0.556919	0.556438	-0.00350615	4	0.0889168	11	0	2.3971	-1.95095e-06	158703
2	0	0	1	0	1	613.101	0.542935	0.542496	-0.00724366	4	0.0888982	11	0	5.1938	-3.92966e-06	74892.6
2	0	0	1	0	1	615.898	0.528952	0.528492	-0.0103995	4	0.0888746	11	0	7.9905	-5.49607e-06	50818.9
2	0	0	1	0	1	618.695	0.514968	0.514471	-0.0116861	4	0.0888478	11	0	10.7872	-6.01214e-06	44024.3
2	0	0	0	0	1	621.491	0.500985	0.500553	-0.0133377	4	0.0888189	11	0	13.5839	-6.67623e-06	37529.2
2	0	0	1	0	1	624.288	0.487001	0.486581	-0.0129522	4	0.0887881	11	0	16.3806	-6.30229e-06	37567.5
2	1	0	1	0	1	627.085	0.473019	0.472523	-0.0104584	4	0.0887556	11	0	19.1772	-4.94182e-06	45181.3
2	1	0	0	0	1	629.881	0.459035	0.45856	-0.00978525	4	0.0887211	11	0	21.9739	-4.48712e-06	46862.3
2	0	0	0	0	0	632.448	0.453841	0.453416	0.0123354	5	0.0887069	11	0	0.6992	5.59308e-06	36757.3
2	0	0	1	0	0	635.244	0.467825	0.46735	0.0113006	5	0.0887458	11	0	3.4959	5.28133e-06	41356.3
2	0	0	1	0	0	638.041	0.481807	0.48138	0.0114879	5	0.0887856	11	0	6.2925	5.53003e-06	41903.3
2	0	0	0	0	0	640.838	0.495791	0.4953	0.0112483	5	0.0888253	11	0	9.0892	5.5713e-06	44033.2
2	0	0	1	0	0	643.634	0.509774	0.509335	0.0113578	5	0.0888648	11	0	11.8859	5.78492e-06	44844.5
2	0	0	1	0	0	646.431	0.523758	0.523265	0.0117446	5	0.0889046	11	0	14.6826	6.14555e-06	44553.6
2	0	0	1	0	0	649.228	0.537742	0.537235	0.0142107	5	0.0889459	11	0	17.4793	7.63449e-06	37804.9
2	1	0	0	0	0	652.024	0.551725	0.551318	0.0186774	5	0.0889902	11	0	20.276	1.02972e-05	29518
2	1	0	1	0	0	654.821	0.565709	0.565197	0.0188317	5	0.0890405	11	0	23.0727	1.06436e-05	30013
2	1	0	1	0	0	657.618	0.579691	0.579241	0.0250268	5	0.0891028	11	0	25.8693	1.44965e-05	23144.8
2	1	0	0	0	0	660.414	0.593675	0.593172	0.0398	5	0.0891895	11	0	28.666	2.36083e-05	14903.8
2	1	0	1	0	0	663.211	0.607658	0.607174	0.061077	5	0.0893233	11	0	31.4627	3.70844e-05	9941.12
2	1	0	1	0	0	666.008	0.621642	0.621181	0.10221	5	0.0895478	11	0	34.2594	6.34906e-05	6077.52
2	1	0	1	0	0	668.804	0.635626	0.635183	0.187856	5	0.0899452	11	0	37.0561	0.000119323	3381.22
2	1	0	0	0	0	671.601	0.649609	0.649177	0.332142	5	0.0906536	11	0	39.8528	0.000215619	1954.52
2	1	0	1	0	0	674.398	0.663593	0.663118	0.559418	5	0.0918797	11	0	42.6495	0.00037096	1185.37
2	1	0	1	0	0	677.194	0.677575	0.677128	0.906567	5	0.0939116	11	0	45.4461	0.000613862	746.915
2	1	0	0	0	0	679.991	0.691559	0.691108	1.3413	5	0.0970232	11	0	48.2428	0.000926981	515.253
2	1	0	1	0	0	682.529	0.695754	0.695297	1.42383	5	0.100869	11	0	50.7802	0.000989987	488.328
2	1	0	0	0	0	685.325	0.681771	0.681359	0.931741	5	0.104109	11	0	53.5768	0.000634851	731.275
2	1	0	1	0	0	688.122	0.667787	0.667345	0.570484	5	0.10618	11	0	56.3735	0.000380709	1169.79
2	1	0	1	0	0	690.919	0.653804	0.653353	0.328433	5	0.107414	11	0	59.1702	0.000214583	1989.3
2	1	0	1	0	0	693.715	0.63982	0.639307	0.181331	5	0.108112	11	0	61.9669	0.000115926	3525.63
2	1	0	0	0	0	696.512	0.625837	0.6254	0.0953837	5	0.108481	11	0	64.7636	5.96529e-05	6556.68
2	1	0	1	0	0	699.309	0.611853	0.611393	0.0477328	5	0.108668	11	0	67.5603	2.91835e-05	12808.6
2	1	0	1	0	0	702.105	0.59787	0.597457	0.0193433	5	0.108754	11	0	70.357	1.15568e-05	30887.1
2	1	0	0	0	0	704.902	0.583887	0.58346	0.00813717	5	0.108787	11	0	73.1536	4.74772e-06	71703.1
2	0	0	1	0	0	707.699	0.569903	0.569458	-0.00304182	5	0.108791	11	0	0.000000000000000E+000	-1.73219e-06	187210
2	0	0	1	0	0	710.495	0.55592	0.555498	-0.00695927	5	0.10878	11	0	2.5969	-3.86586e-06	79821.3
2	0	0	1	0	0	713.292	0.541936	0.54146	-0.0101067	5	0.10876	11	0	5.3936	-5.47236e-06	53574.5
2	1	0	0	0	0	716.089	0.527953	0.527509	-0.00847649	5	0.108736	11	0	8.1903	-4.47142e-06	62232
2	0	0	1	0	0	718.885	0.513969	0.513505	-0.00874935	5	0.108709	11	0	10.987	-4.49284e-06	58690.6
2	0	0	1	0	0	721.682	0.499987	0.499543	-0.0122071	5	0.10868	11	0	13.7836	-6.09798e-06	40922.2
2	0	0	0	0	0	724.479	0.486003	0.485571	-0.0135838	5	0.108648	11	0	16.5803	-6.59591e-06	35746.2
2	0	0	1	0	0	727.275	0.472019	0.47155	-0.0131072	5	0.108616	11	0	19.377	-6.18069e-06	35976.5
2	0	0	1	0	0	730.072	0.458036	0.457561	-0.0134148	5	0.108581	11	0	22.1737	-6.13811e-06	34108.7
2	1	0	1	0	1	732.638	0.454839	0.454363	0.0124636	6	0.108572	11	0	0.8989	5.663e-06	36455.2
2	1	0	0	0	1	735.435	0.468823	0.468331	0.0153056	6	0.108611	11	0	3.6956	7.16807e-06	30598.8
2	1	0	1	0	1	738.232	0.482806	0.482371	0.0163711	6	0.10865	11	0	6.4923	7.89696e-06	29464.7
2	1	0	1	0	1	741.028	0.49679	0.496321	0.0139317	6	0.108688	11	0	9.289	6.91459e-06	35625.4
2	1	0	1	0	1	743.825	0.510773	0.510303	0.0133619	6	0.108727	11	0	12.0857	6.81863e-06	38190.8
2	1	0	0	0	1	746.622	0.524757	0.524276	0.0158336	6	0.108767	11	0	14.8824	8.30118e-06	33111.7
2	1	0	1	0	1	749.418	0.538741	0.538277	0.0175654	6	0.108808	11	0	17.6791	9.45504e-06	30644.2
2	1	0	1	0	1	752.215	0.552723	0.55227	0.0186493	6	0.108851	11	0	20.4757	1.02995e-05	29613.4
2	1	0	0	0	1	755.012	0.566707	0.566235	0.0206014	6	0.108901	11	0	23.2724	1.16652e-05	27485.3
2	1	0	1	0	1	757.808	0.58069	0.580259	0.0230417	6	0.108964	11	0	26.0691	1.33701e-05	25183
2	1	0	1	0	1	760.605	0.594674	0.594229	0.0379808	6	0.109051	11	0	28.8658	2.25693e-05	15645.5
2	1	0	1	0	1	763.402	0.608658	0.608174	0.0606939	6	0.109186	11	0	31.6625	3.69124e-05	10020.3
2	1	0	0	0	1	766.199	0.622641	0.622203	0.10544	6	0.109414	11	0	34.4592	6.56052e-05	5901.01
2	1	0	1	0	1	768.995	0.636625	0.636189	0.18822	6	0.109818	11	0	37.2559	0.000119743	3380.04
2	1	0	1	0	1	771.792	0.650607	0.650178	0.33605	6	0.110538	11	0	40.0525	0.000218493	1934.76
2	1	0	0	0	1	774.589	0.664591	0.664123	0.576764	6	0.111797	11	0	42.8492	0.000383042	1151.46
2	1	0	1	0	1	777.385	0.678574	0.678085	0.910999	6	0.113857	11	0	45.6459	0.000617734	744.331
2	1	0	1	0	1	780.182	0.692558	0.692102	1.34652	6	0.116989	11	0	48.4426	0.000931926	513.995
2	1	0	1	0	1	782.719	0.694755	0.694327	1.33303	6	0.120705	11	0	50.9799	0.000925558	520.864
2	1	0	1	0	1	785.516	0.680772	0.68031	0.818225	6	0.123645	11	0	53.7766	0.000556647	831.447
2	1	0	1	0	1	788.313	0.666788	0.66629	0.503805	6	0.125461	11	0	56.5733	0.00033568	1322.52
2	1	0	0	0	1	791.109	0.652805	0.652317	0.291129	6	0.126553	11	0	59.37	0.000189908	2240.65
2	1	0	1	0	1	793.906	0.638821	0.638372	0.159353	6	0.127168	11	0	62.1667	0.000101727	4006.03
2	1	0	1	0	1	796.703	0.624839	0.624432	0.0828347	6	0.127502	11	0	64.9633	5.17247e-05	7538.3
2	1	0	0	0	1	799.499	0.610855	0.61041	0.0439388	6	0.127673	11	0	67.76	2.68207e-05	13892.3
2	1	0	1	0	1	802.296	0.596871	0.596393	0.0151238	6	0.127751	11	0	70.5567	9.01971e-06	39434.2
2	1	0	1	0	1	805.093	0.582888	0.582469	0.00515434	6	0.12778	11	0	73.3534	3.00225e-06	113006
2	0	0	1	0	1	807.889	0.568904	0.568394	-0.00306404	6	0.127781	11	0	0.2997	-1.74158e-06	185504
2	0	0	0	0	1	810.686	0.554921	0.554458	-0.00712593	6	0.127769	11	0	3.0964	-3.95103e-06	77808.5
2	0	0	1	0	1	813.483	0.540937	0.540464	-0.00975692	6	0.12775	11	0	5.8931	-5.27326e-06	55392.9
2	1	0	1	0	1	816.279	0.526955	0.526501	-0.00789605	6	0.127725	11	0	8.6897	-4.15728e-06	66679.1
2	1	0	0	0	1	819.076	0.512971	0.512503	-0.00764198	6	0.127698	11	0	11.4864	-3.91653e-06	67064.2
2	0	0	1	0	1	821.873	0.498988	0.498495	-0.00954829	6	0.127669	11	0	14.2831	-4.75978e-06	52207.8
2	0	0	1	0	1	824.67	0.485004	0.484574	-0.0134295	6	0.127637	11	0	17.0798	-6.50757e-06	36082.9
2	0	0	1	0	1	827.466	0.47102	0.470528	-0.0144762	6	0.127605	11	0	19.8765	-6.81146e-06	32503.6
2	0	0	0	0	1	830.263	0.457037	0.456525	-0.0150554	6	0.12757	11	0	22.6732	-6.87315e-06	30323.1
2	1	0	1	0	0	832.829	0.455838	0.45538	0.014451	7	0.127567	11	0	1.0987	6.58068e-06	31512.1
2	1	0	1	0	0	835.626	0.469822	0.469333	0.0144954	7	0.127605	11	0	3.8954	6.80317e-06	32378.1
2	1	0	1	0	0	838.422	0.483806	0.483354	0.0136366	7	0.127644	11	0	6.6921	6.5913e-06	35445.4
2	1	0	0	0	0	841.219	0.497789	0.497315	0.0147212	7	0.127683	11	0	9.4888	7.32104e-06	33782.3
2	1	0	1	0	0	844.016	0.511772	0.511298	0.0149494	7	0.127722	11	0	12.2854	7.64357e-06	34202
2	1	0	1	0	0	846.812	0.525755	0.525255	0.0157585	7	0.127761	11	0	15.0821	8.27724e-06	33331.6
2	1	0	0	0	0	849.609	0.539739	0.539249	0.0160673	7	0.127801	11	0	17.8788	8.66426e-06	33561.9
2	1	0	1	0	0	852.406	0.553722	0.553274	0.0154359	7	0.127845	11	0	20.6755	8.54026e-06	35843.4
2	1	0	1	0	0	855.203	0.567706	0.567227	0.0173979	7	0.127895	11	0	23.4722	9.86856e-06	32603.2
2	1	0	1	0	0	857.999	0.58169	0.581191	0.0278332	7	0.127958	11	0	26.2689	1.61764e-05	20881.2
2	1	0	0	0	0	860.796	0.595673	0.595162	0.0383949	7	0.128046	11	0	29.0656	2.28512e-05	15501.1
2	1	0	1	0	0	863.593	0.609656	0.609184	0.0607507	7	0.128183	11	0	31.8622	3.70084e-05	10027.6
2	1	0	1	0	0	866.389	0.623639	0.623162	0.108013	7	0.128416	11	0	34.6589	6.73094e-05	5769.34
2	1	0	0	0	0	869.186	0.637623	0.637153	0.195819	7	0.12883	11	0	37.4556	0.000124767	3253.79
2	1	0	1	0	0	871.983	0.651606	0.651141	0.348493	7	0.12957	11	0	40.2523	0.000226918	1868.45
2	1	0	1	0	0	874.779	0.66559	0.665125	0.592542	7	0.130861	11	0	43.049	0.000394114	1122.49
2	1	0	1	0	0	877.576	0.679574	0.679136	0.928172	7	0.132967	11	0	45.8457	0.000630355	731.692
2	1	0	0	0	0	880.373	0.693557	0.693063	1.37596	7	0.13617	11	0	48.6424	0.000953629	503.694
2	1	0	1	0	0	882.91	0.693756	0.693296	1.26341	7	0.139853	11	0	51.1797	0.000875916	548.751
2	1	0	0	0	0	885.707	0.679773	0.67932	0.816054	7	0.142725	11	0	53.9764	0.000554362	832.445
2	1	0	1	0	0	888.503	0.665789	0.665323	0.508188	7	0.144552	11	0	56.7731	0.000338109	1309.21
2	1	0	1	0	0	891.3	0.651807	0.651342	0.285009	7	0.145634	11	0	59.5697	0.000185638	2285.34
2	1	0	0	0	0	894.097	0.637823	0.637344	0.155454	7	0.146227	11	0	62.3664	9.90778e-05	4099.88
2	1	0	1	0	0	896.893	0.623839	0.623362	0.0808985	7	0.146544	11	0	65.1631	5.0429e-05	7705.48
2	1	0	1	0	0	899.69	0.609856	0.609395	0.0369557	7	0.1467	11	0	67.9598	2.25206e-05	16489.9
2	1	0	1	0	0	902.487	0.595872	0.595378	0.013333	7	0.14677	11	0	70.7565	7.93815e-06	44654.6
2	0	0	0	0	0	905.284	0.581889	0.581415	0.00188179	7	0.146794	11	0	73.5532	1.0941e-06	308969
2	1	0	1	0	0	908.08	0.567906	0.567403	-5.89731e-05	7	0.146795	11	0	0.5992	-3.34615e-08	9.62138e+06
2	0	0	1	0	0	910.877	0.553923	0.553476	-0.00817874	7	0.146782	11	0	3.3959	-4.52673e-06	67672.5
2	0	0	0	0	0	913.674	0.539939	0.539514	-0.00816126	7	0.146762	11	0	6.1926	-4.40311e-06	66106.7
2	0	0	1	0	0	916.47	0.525955	0.525518	-0.00695014	7	0.146737	11	0	8.9893	-3.65242e-06	75612.5
2	0	0	1	0	0	919.267	0.511972	0.511472	-0.00955662	7	0.14671	11	0	11.786	-4.88794e-06	53520.1
2	0	0	1	0	0	922.064	0.497988	0.497542	-0.010553	7	0.146681	11	0	14.5827	-5.25058e-06	47146.8
2	0	0	0	0	0	924.86	0.484005	0.483544	-0.0118911	7	0.14665	11	0	17.3794	-5.74985e-06	40664.5
2	0	0	1	0	0	927.657	0.470022	0.46954	-0.0124126	7	0.146617	11	0	20.176	-5.82823e-06	37827.5
2	1	0	1	0	0	930.454	0.456039	0.455595	-0.0100403	7	0.146583	11	0	22.9727	-4.5743e-06	45376.6
2	1	0	1	0	1	933.02	0.456838	0.456347	0.0121806	8	0.146585	11	0	1.2985	5.5586e-06	37465
2	1	0	0	0	1	935.817	0.470821	0.470297	0.0146512	8	0.146623	11	0	4.0952	6.89044e-06	32099.5
2	1	0	1	0	1	938.613	0.484804	0.484334	0.0117822	8	0.146662	11	0	6.8918	5.70652e-06	41107.2
2	1	0	1	0	1	941.41	0.498787	0.498335	0.0161138	8	0.1467	11	0	9.6885	8.03009e-06	30925.9
2	1	0	0	0	1	944.207	0.512771	0.512283	0.0112057	8	0.146739	11	0	12.4852	5.74049e-06	45716.3
2	1	0	1	0	1	947.003	0.526755	0.526305	0.0165491	8	0.146778	11	0	15.2819	8.7099e-06	31802.5
2	1	0	1	0	1	949.8	0.540738	0.540259	0.0124643	8	0.146819	11	0	18.0786	6.73393e-06	43344.6
2	1	0	1	0	1	952.597	0.554722	0.554297	0.019018	8	0.146863	11	0	20.8753	1.05416e-05	29146
2	1	0	1	0	1	955.393	0.568704	0.568234	0.0169183	8	0.146912	11	0	23.6719	9.61356e-06	33587
2	1	0	1	0	1	958.19	0.582688	0.582244	0.0287186	8	0.146976	11	0	26.4686	1.67212e-05	20274.1
2	1	0	1	0	1	960.987	0.596671	0.596214	0.0363632	8	0.147065	11	0	29.2653	2.16803e-05	16396.1
2	1	0	0	0	1	963.783	0.610655	0.610209	0.0659235	8	0.147205	11	0	32.062	4.02271e-05	9256.33
2	1	0	1	0	1	966.58	0.624638	0.624163	0.109976	8	0.147444	11	0	34.8587	6.86432e-05	5675.43
2	1	0	1	0	1	969.377	0.638622	0.638191	0.202337	8	0.14787	11	0	37.6554	0.00012913	3154.09
2	1	0	1	0	1	972.173	0.652606	0.652184	0.357502	8	0.148635	11	0	40.4521	0.000233157	1824.28
2	1	0	1	0	1	974.97	0.666588	0.666124	0.611372	8	0.149968	11	0	43.2487	0.000407249	1089.56
2	1	0	1	0	1	977.767	0.680572	0.680115	0.952717	8	0.152135	11	0	46.0454	0.000647957	713.87
2	1	0	1	0	1	980.563	0.694555	0.694091	1.39182	8	0.155389	11	0	48.8421	0.00096605	498.693
2	1	0	1	0	1	983.101	0.692758	0.692309	1.2652	8	0.159055	11	0	51.3794	0.000875911	547.192
2	1	0	1	0	1	985.897	0.678774	0.678303	0.779559	8	0.161852	11	0	54.1761	0.000528778	870.111
2	1	0	0	0	1	988.694	0.664791	0.664309	0.48301	8	0.163604	11	0	56.9728	0.000320868	1375.35
2	1	0	1	0	1	991.491	0.650807	0.650378	0.271516	8	0.164633	11	0	59.7695	0.000176588	2395.36
2	1	0	1	0	1	994.288	0.636824	0.636366	0.153855	8	0.165211	11	0	62.5662	9.79083e-05	4136.13
2	1	0	1	0	1	997.084	0.62284	0.622393	0.0781283	8	0.16552	11	0	65.3629	4.86265e-05	7966.29
2	1	0	0	0	1	999.881	0.608857	0.608408	0.0336002	8	0.165671	11	0	68.1596	2.04426e-05	18107.3
2	1	0	1	0	1	1002.68	0.594874	0.594399	0.0166613	8	0.165738	11	0	70.9562	9.90344e-06	35675.5
2	1	0	1	0	1	1005.47	0.58089	0.580419	0.00198764	8	0.165761	11	0	73.7529	1.15366e-06	292014
2	0	0	0	0	1	1008.27	0.566907	0.56642	-0.00514087	8	0.165759	11	0	0.4994	-2.9119e-06	110180
2	1	0	1	0	1	1011.07	0.552923	0.552453	-0.00438258	8	0.165746	11	0	3.2961	-2.42117e-06	126057
2	0	0	1	0	1	1013.86	0.53894	0.538465	-0.0102281	8	0.165725	11	0	6.0928	-5.5075e-06	52645.5
2	0	0	1	0	1	1016.66	0.524956	0.524479	-0.00816224	8	0.165701	11	0	8.8895	-4.28092e-06	64256.7
2	1	0	1	0	1	1019.46	0.510974	0.510519	-0.00861451	8	0.165674	11	0	11.6861	-4.39787e-06	59262.7
2	0	0	1	0	1	1022.25	0.49699	0.496523	-0.0132106	8	0.165644	11	0	14.4828	-6.55938e-06	37585.1
2	1	0	1	0	1	1025.05	0.483006	0.482599	-0.00893933	8	0.165613	11	0	17.2795	-4.31411e-06	53986
2	0	0	0	0	1	1027.85	0.469023	0.468558	-0.0136065	8	0.16558	11	0	20.0762	-6.37544e-06	34436.3
2	1	0	1	0	1	1030.64	0.455039	0.454595	-0.0110079	8	0.165546	11	0	22.8729	-5.00416e-06	41297
2	1	0	1	0	0	1033.21	0.457836	0.457316	0.0118415	9	0.165553	11	0	1.5532	5.41531e-06	38619.6
2	1	0	1	0	0	1036.01	0.471819	0.471337	0.015833	9	0.165591	11	0	4.3499	7.46266e-06	29769.3
2	1	0	0	0	0	1038.8	0.485803	0.485353	0.0112375	9	0.165629	11	0	7.1466	5.45415e-06	43190.6
2	1	0	1	0	0	1041.6	0.499787	0.499321	0.015994	9	0.165668	11	0	9.9433	7.98616e-06	31219.2
2	1	0	1	0	0	1044.4	0.51377	0.513327	0.0159455	9	0.165706	11	0	12.74	8.18526e-06	32192.6
2	1	0	1	0	0	1047.19	0.527754	0.527284	0.0156971	9	0.165745	11	0	15.5367	8.27682e-06	33591.1
2	1	0	1	0	0	1049.99	0.541736	0.541265	0.0142385	9	0.165786	11	0	18.3333	7.7068e-06	38014.2
2	1	0	1	0	0	1052.79	0.55572	0.555284	0.0161066	9	0.165829	11	0	21.13	8.94372e-06	34475.6
2	1	0	1	0	0	1055.58	0.569703	0.569208	0.0181683	9	0.16588	11	0	23.9267	1.03416e-05	31329.6
2	1	0	0	0	0	1058.38	0.583687	0.583237	0.0281203	9	0.165944	11	0	26.7234	1.64008e-05	20740.8
2	1	0	1	0	0	1061.18	0.597671	0.597217	0.0383949	9	0.166034	11	0	29.5201	2.29301e-05	15554.6
2	1	0	1	0	0	1063.97	0.611654	0.611167	0.0647077	9	0.166177	11	0	32.3168	3.95472e-05	9445.05
2	1	0	1	0	0	1066.77	0.625638	0.625228	0.115199	9	0.166421	11	0	35.1135	7.20254e-05	5427.4
2	1	0	1	0	0	1069.57	0.63962	0.63916	0.203565	9	0.166855	11	0	37.9101	0.00013011	3139.84
2	1	0	1	0	0	1072.36	0.653604	0.653211	0.363244	9	0.167631	11	0	40.7068	0.000237275	1798.27
2	1	0	1	0	0	1075.16	0.667587	0.667167	0.61079	9	0.16897	11	0	43.5035	0.000407499	1092.3
2	1	0	0	0	0	1077.96	0.681571	0.681153	0.966477	9	0.171157	11	0	46.3002	0.000658319	704.779
2	1	0	1	0	0	1080.75	0.695555	0.695103	1.40185	9	0.174459	11	0	49.0969	0.00097443	495.848
2	1	0	0	0	0	1083.29	0.691759	0.691311	1.17364	9	0.177992	11	0	51.6342	0.000811353	589.03
2	1	0	1	0	0	1086.09	0.677775	0.677306	0.738615	9	0.180606	11	0	54.4309	0.000500268	916.994
2	1	0	1	0	0	1088.88	0.663792	0.663317	0.450617	9	0.182236	11	0	57.2276	0.000298902	1472.02
2	1	0	1	0	0	1091.68	0.649808	0.649328	0.256908	9	0.183206	11	0	60.0243	0.000166818	2527.47
2	1	0	1	0	0	1094.48	0.635826	0.635353	0.141613	9	0.183746	11	0	62.8209	8.99745e-05	4486.53
2	1	0	1	0	0	1097.27	0.621842	0.621408	0.0698601	9	0.184032	11	0	65.6176	4.34116e-05	8895.05
2	1	0	1	0	0	1100.07	0.607859	0.607388	0.0328128	9	0.184173	11	0	68.4143	1.99301e-05	18510.7
2	1	0	0	0	0	1102.87	0.593875	0.593401	0.0152763	9	0.184234	11	0	71.211	9.065e-06	38844.5
2	0	0	1	0	0	1105.67	0.579891	0.579397	0.00252631	9	0.184253	11	0	74.0077	1.46373e-06	229345
2	0	0	1	0	0	1108.46	0.565908	0.565461	-0.00584904	9	0.18425	11	0	1.1986	-3.30741e-06	96675.9
2	0	0	1	0	0	1111.26	0.551924	0.551458	-0.00819742	9	0.184236	11	0	3.9953	-4.52054e-06	67272.1
2	0	0	1	0	0	1114.06	0.537942	0.537478	-0.00861403	9	0.184215	11	0	6.7919	-4.62985e-06	62395.6
2	0	0	1	0	0	1116.85	0.523958	0.523487	-0.0110675	9	0.18419	11	0	9.5886	-5.79369e-06	47299.4
2	0	0	1	0	0	1119.65	0.509974	0.509521	-0.0098937	9	0.184163	11	0	12.3853	-5.04104e-06	51499.5
2	0	0	0	0	0	1122.45	0.495991	0.495523	-0.0105498	9	0.184133	11	0	15.182	-5.22766e-06	46970
2	0	0	1	0	0	1125.24	0.482007	0.481553	-0.0138206	9	0.184102	11	0	17.9787	-6.65536e-06	34843.1
2	1	0	1	0	0	1128.04	0.468024	0.467524	-0.0100987	9	0.184069	11	0	20.7754	-4.72139e-06	46295.4
2	0	0	1	0	0	1130.84	0.45404	0.453536	-0.0102736	9	0.184034	11	0	23.5721	-4.65946e-06	44145.6
2	1	0	0	0	1	1133.4	0.458835	0.458397	0.0133886	10	0.184046	11	0	1.753	6.13727e-06	34237.9
2	1	0	1	0	1	1136.2	0.472818	0.472346	0.0158737	10	0.184084	11	0	4.5497	7.49788e-06	29756.5
2	1	0	1	0	1	1138.99	0.486802	0.486371	0.0157204	10	0.184123	11	0	7.3464	7.64595e-06	30938.8
2	1	0	1	0	1	1141.79	0.500786	0.500277	0.0158747	10	0.184161	11	0	10.1431	7.94173e-06	31514.2
2	1	0	1	0	1	1144.59	0.514768	0.514305	0.0162113	10	0.184199	11	0	12.9397	8.33755e-06	31725.1
2	1	0	1	0	1	1147.38	0.528752	0.5283	0.0156369	10	0.184238	11	0	15.7364	8.26096e-06	33785.4
2	1	0	1	0	1	1150.18	0.542735	0.542293	0.013108	10	0.184278	11	0	18.5331	7.10837e-06	41371.3
2	1	0	0	0	1	1152.98	0.556719	0.55625	0.0184853	10	0.184322	11	0	21.3298	1.02825e-05	30091.5
2	1	0	1	0	1	1155.77	0.570703	0.570222	0.0179195	10	0.184372	11	0	24.1265	1.02181e-05	31821.3
2	1	0	1	0	1	1158.57	0.584686	0.584232	0.0266021	10	0.184437	11	0	26.9232	1.55418e-05	21961.9
2	1	0	1	0	1	1161.37	0.59867	0.598197	0.0420145	10	0.184528	11	0	29.7199	2.51329e-05	14237.9
2	1	0	1	0	1	1164.16	0.612652	0.612209	0.0645774	10	0.184674	11	0	32.5165	3.95349e-05	9480.24
2	1	0	1	0	1	1166.96	0.626636	0.626196	0.118856	10	0.184925	11	0	35.3132	7.44272e-05	5268.52
2	1	0	1	0	1	1169.76	0.640619	0.640167	0.213421	10	0.185373	11	0	38.1099	0.000136625	2999.55
2	1	0	0	0	1	1172.55	0.654603	0.654141	0.374223	10	0.186173	11	0	40.9066	0.000244795	1748
2	1	0	1	0	1	1175.35	0.668587	0.668135	0.635904	10	0.187562	11	0	43.7033	0.00042487	1050.69
2	1	0	1	0	1	1178.15	0.68257	0.682145	1.00134	10	0.189833	11	0	46.5	0.000683057	681.234
2	1	0	1	0	1	1180.95	0.696554	0.696111	1.45035	10	0.193261	11	0	49.2967	0.00100961	479.96
2	1	0	1	0	1	1183.48	0.69076	0.690303	1.14771	10	0.196768	11	0	51.834	0.000792267	601.463
2	1	0	1	0	1	1186.28	0.676776	0.676359	0.739373	10	0.199375	11	0	54.6307	0.000500081	914.774
2	1	0	1	0	1	1189.08	0.662794	0.662381	0.440307	10	0.200995	11	0	57.4273	0.000291651	1504.36
2	1	0	1	0	1	1191.87	0.64881	0.648347	0.250681	10	0.201944	11	0	60.224	0.000162528	2586.34
2	1	0	1	0	1	1194.67	0.634826	0.634361	0.137331	10	0.202469	11	0	63.0207	8.71172e-05	4619.22
2	1	0	0	0	1	1197.47	0.620843	0.62044	0.0656073	10	0.202742	11	0	65.8174	4.07054e-05	9456.87
2	1	0	1	0	1	1200.26	0.606859	0.606411	0.0286152	10	0.202873	11	0	68.6141	1.73526e-05	21191.9
2	1	0	1	0	1	1203.06	0.592876	0.592415	0.0136966	10	0.202929	11	0	71.4108	8.11405e-06	43252.8
2	0	0	1	0	1	1205.86	0.578892	0.578451	0.000601518	10	0.202946	11	0	0.000000000000000E+000	3.47949e-07	961652
2	0	0	1	0	1	1208.65	0.56491	0.564427	-0.00588448	10	0.202942	11	0	1.3983	-3.32136e-06	95918
2	1	0	1	0	1	1211.45	0.550926	0.550383	-0.00581527	10	0.202927	11	0	4.195	-3.20062e-06	94644.5
2	1	0	1	0	1	1214.25	0.536942	0.53643	-0.00584617	10	0.202905	11	0	6.9917	-3.13606e-06	91757.5
2	0	0	0	0	1	1217.04	0.522959	0.522483	-0.00772454	10	0.20288	11	0	9.7884	-4.03594e-06	67639.4
2	0	0	1	0	1	1219.84	0.508975	0.508532	-0.00989891	10	0.202852	11	0	12.5851	-5.03392e-06	51372.6
2	0	0	1	0	1	1222.64	0.494992	0.494507	-0.0115021	10	0.202823	11	0	15.3818	-5.68787e-06	42992.8
2	0	0	0	0	1	1225.43	0.481009	0.480566	-0.0136608	10	0.202792	11	0	18.1784	-6.56494e-06	35178.4
2	0	0	1	0	1	1228.23	0.467025	0.466584	-0.0146132	10	0.202759	11	0	20.9751	-6.81828e-06	31929
2	0	0	1	0	1	1231.03	0.453042	0.452541	-0.0140047	10	0.202724	11	0	23.7718	-6.33769e-06	32313.6
2	1	0	1	0	0	1233.59	0.459834	0.459344	0.0154861	11	0.202742	11	0	1.8978	7.11343e-06	29661.8
2	1	0	1	0	0	1236.39	0.473818	0.473329	0.0126532	11	0.20278	11	0	4.6945	5.98912e-06	37407.9
2	0	0	1	0	0	1239.19	0.4878	0.487325	0.0107375	11	0.202818	11	0	7.4911	5.23264e-06	45385.5
2	1	0	1	0	0	1241.98	0.501784	0.501365	0.0117891	11	0.202856	11	0	10.2878	5.91063e-06	42528
2	1	0	1	0	0	1244.78	0.515768	0.515329	0.0148129	11	0.202895	11	0	13.0845	7.63355e-06	34789.1
2	1	0	0	0	0	1247.58	0.529751	0.529316	0.0165134	11	0.202933	11	0	15.8812	8.74082e-06	32053.7
2	1	0	1	0	0	1250.37	0.543735	0.54329	0.0151181	11	0.202973	11	0	18.6779	8.21353e-06	35936.3
2	0	0	1	0	0	1253.17	0.557717	0.557238	0.014359	11	0.203017	11	0	21.4745	8.00139e-06	38807.5
2	1	0	1	0	0	1255.97	0.571702	0.571224	0.0226446	11	0.203068	11	0	24.2713	1.29352e-05	25225.6
2	1	0	1	0	0	1258.76	0.585684	0.585227	0.0288282	11	0.203134	11	0	27.0679	1.68711e-05	20300.5
2	1	0	1	0	0	1261.56	0.599668	0.599207	0.0398841	11	0.203228	11	0	29.8646	2.38988e-05	15023.7
2	1	0	1	0	0	1264.36	0.613651	0.613213	0.0698362	11	0.203377	11	0	32.6613	4.28245e-05	8780.73
2	1	0	0	0	0	1267.15	0.627635	0.627146	0.120196	11	0.203636	11	0	35.458	7.53807e-05	5217.68
2	1	0	1	0	0	1269.95	0.641619	0.641166	0.220525	11	0.204098	11	0	38.2547	0.000141393	2907.46
2	1	0	1	0	0	1272.75	0.655601	0.655107	0.384987	11	0.204927	11	0	41.0513	0.000252208	1701.63
2	1	0	0	0	0	1275.54	0.669585	0.669158	0.650759	11	0.206354	11	0	43.848	0.00043546	1028.27
2	1	0	1	0	0	1278.34	0.683568	0.683101	1.01499	11	0.208665	11	0	46.6447	0.000693338	673.016
2	1	0	1	0	0	1281.14	0.697552	0.697043	1.45585	11	0.212104	11	0	49.4414	0.00101479	478.789
2	1	0	1	0	0	1283.67	0.689761	0.689277	1.08569	11	0.21546	11	0	51.9787	0.000748344	634.872
2	1	0	1	0	0	1286.47	0.675778	0.675306	0.656774	11	0.217857	11	0	54.7754	0.000443524	1028.22
2	1	0	1	0	0	1289.27	0.661794	0.661361	0.392917	11	0.219283	11	0	57.5721	0.00025986	1683.21
2	1	0	0	0	0	1292.06	0.647811	0.647294	0.225825	11	0.220137	11	0	60.3688	0.000146175	2866.35
2	1	0	1	0	0	1294.86	0.633827	0.633372	0.119939	11	0.220613	11	0	63.1655	7.59661e-05	5280.77
2	1	0	1	0	0	1297.66	0.619844	0.619387	0.0627515	11	0.22086	11	0	65.9622	3.88675e-05	9870.47
2	1	0	0	0	0	1300.45	0.605861	0.605419	0.0254538	11	0.220979	11	0	68.7588	1.54102e-05	23785
2	1	0	1	0	0	1303.25	0.591877	0.591375	0.0123171	11	0.221029	11	0	71.5555	7.28405e-06	48012.4
2	1	0	1	0	0	1306.05	0.577894	0.577431	0.00145191	11	0.221043	11	0	0.000000000000000E+000	8.3838e-07	397703
2	0	0	1	0	0	1308.84	0.56391	0.563429	-0.0063008	11	0.221038	11	0	1.8978	-3.55005e-06	89421.8
2	1	0	0	0	0	1311.64	0.549927	0.54946	-0.00584558	11	0.221023	11	0	4.6945	-3.21191e-06	93995.8
2	1	0	1	0	0	1314.44	0.535943	0.535472	-0.00574911	11	0.221002	11	0	7.4912	-3.07849e-06	93140
2	1	0	1	0	0	1317.23	0.52196	0.521489	-0.00769657	11	0.220976	11	0	10.2879	-4.01368e-06	67756
2	0	0	0	0	0	1320.03	0.507977	0.50753	-0.0108546	11	0.220949	11	0	13.0845	-5.50905e-06	46757
2	0	0	1	0	0	1322.83	0.493994	0.493514	-0.0113455	11	0.22092	11	0	15.8812	-5.59917e-06	43498.6
2	1	0	1	0	0	1325.62	0.48001	0.479557	-0.00956935	11	0.22089	11	0	18.6779	-4.58905e-06	50113.9
2	0	0	1	0	0	1328.42	0.466026	0.465556	-0.0141746	11	0.220857	11	0	21.4746	-6.59906e-06	32844.4
2	1	0	0	0	0	1331.22	0.452043	0.451553	-0.011134	11	0.220824	11	0	24.2713	-5.02757e-06	40556.4
2	0	0	1	0	1	1333.78	0.460832	0.460368	0.0115411	12	0.220846	11	0	2.0975	5.31315e-06	39889.4
2	1	0	1	0	1	1336.58	0.474816	0.474364	0.0121294	12	0.220885	11	0	4.8942	5.75375e-06	39108.6
2	1	0	1	0	1	1339.38	0.488799	0.488309	0.0131335	12	0.220924	11	0	7.6909	6.41319e-06	37180.5
2	0	0	0	0	1	1342.17	0.502783	0.502316	0.011573	12	0.220962	11	0	10.4876	5.81332e-06	43404
2	0	0	1	0	1	1344.97	0.516767	0.516341	0.0113436	12	0.221	11	0	13.2843	5.85716e-06	45518.2
2	1	0	1	0	1	1347.77	0.530749	0.53036	0.0149663	12	0.221039	11	0	16.0809	7.93752e-06	35437.1
2	1	0	0	0	1	1350.56	0.544733	0.544339	0.0173472	12	0.221081	11	0	18.8776	9.44275e-06	31379.1
2	1	0	1	0	1	1353.36	0.558716	0.558258	0.0168317	12	0.221125	11	0	21.6743	9.39645e-06	33166.9
2	1	0	1	0	1	1356.16	0.5727	0.57222	0.0179715	12	0.221177	11	0	24.471	1.02836e-05	31840.4
2	1	0	1	0	1	1358.95	0.586684	0.58622	0.0298042	12	0.221244	11	0	27.2677	1.74718e-05	19669
2	1	0	0	0	1	1361.75	0.600667	0.60021	0.0411468	12	0.221341	11	0	30.0644	2.46967e-05	14587
2	1	0	1	0	1	1364.55	0.614651	0.614196	0.0691605	12	0.221497	11	0	32.8611	4.24781e-05	8880.73
2	1	0	1	0	1	1367.34	0.628633	0.628156	0.126729	12	0.221767	11	0	35.6577	7.96056e-05	4956.69
2	1	0	0	0	1	1370.14	0.642617	0.642117	0.233793	12	0.222255	11	0	38.4544	0.000150123	2746.52
2	1	0	1	0	1	1372.94	0.6566	0.656161	0.414829	12	0.223137	11	0	41.2511	0.000272195	1581.76
2	1	0	1	0	1	1375.73	0.670584	0.670123	0.70848	12	0.224679	11	0	44.0478	0.000474769	945.86
2	1	0	1	0	1	1378.53	0.684568	0.684101	1.13032	12	0.227218	11	0	46.8445	0.000773256	605.226
2	1	0	0	0	1	1381.33	0.698551	0.698104	1.6557	12	0.23109	11	0	49.6412	0.00115585	421.637
2	1	0	1	0	1	1383.86	0.688762	0.688275	1.24945	12	0.234869	11	0	52.1785	0.000859962	550.864
2	1	0	0	0	1	1386.66	0.674779	0.674316	0.780845	12	0.237659	11	0	54.9752	0.000526536	863.572
2	1	0	1	0	1	1389.46	0.660795	0.66035	0.45716	12	0.239352	11	0	57.7719	0.000301886	1444.46
2	1	0	1	0	1	1392.25	0.646813	0.646396	0.250245	12	0.240315	11	0	60.5685	0.000161758	2583.05
2	1	0	0	0	1	1395.05	0.632829	0.632421	0.126294	12	0.240828	11	0	63.3652	7.9871e-05	5007.53
2	1	0	1	0	1	1397.85	0.618846	0.618408	0.0617476	12	0.241084	11	0	66.1619	3.81852e-05	10015.1
2	1	0	1	0	1	1400.64	0.604862	0.604407	0.0291434	12	0.241205	11	0	68.9586	1.76144e-05	20739.1
2	1	0	1	0	1	1403.44	0.590878	0.590404	0.0118813	12	0.241255	11	0	71.7553	7.01475e-06	49692.1
2	1	0	0	0	1	1406.24	0.576895	0.57644	0.000994004	12	0.241268	11	0	0.2997	5.72983e-07	579917
2	0	0	1	0	1	1409.03	0.562911	0.562457	-0.00593101	12	0.241262	11	0	1.698	-3.33594e-06	94833.3
2	0	0	1	0	1	1411.83	0.548929	0.548481	-0.00883577	12	0.241246	11	0	4.4946	-4.84625e-06	62075.1
2	0	0	0	0	1	1414.63	0.534945	0.534517	-0.0105975	12	0.241224	11	0	7.2913	-5.66455e-06	50437.8
2	0	0	1	0	1	1417.42	0.520961	0.520527	-0.0112065	12	0.241199	11	0	10.088	-5.83326e-06	46448.8
2	0	0	1	0	1	1420.22	0.506978	0.506484	-0.0109158	12	0.241172	11	0	12.8847	-5.52867e-06	46399.3
2	1	0	1	0	1	1423.02	0.492994	0.492524	-0.00907281	12	0.241143	11	0	15.6814	-4.46857e-06	54285.7
2	1	0	0	0	1	1425.81	0.479011	0.478549	-0.00875816	12	0.241112	11	0	18.4781	-4.19121e-06	54640.4
2	0	0	1	0	1	1428.61	0.465027	0.464569	-0.0115476	12	0.241079	11	0	21.2748	-5.36466e-06	40230.7
2	1	0	1	0	1	1431.41	0.451045	0.450566	-0.0102805	12	0.241045	11	0	24.0714	-4.63204e-06	43827.3
2	1	0	1	0	0	1433.97	0.461832	0.461357	0.0140278	13	0.241073	11	0	2.2973	6.47184e-06	32888.6
2	1	0	0	0	0	1436.77	0.475815	0.47536	0.0157871	13	0.241111	11	0	5.094	7.50455e-06	30110.7
2	1	0	1	0	0	1439.57	0.489799	0.489325	0.015401	13	0.24115	11	0	7.8907	7.5361e-06	31772.2
2	1	0	1	0	0	1442.36	0.503781	0.503309	0.0129321	13	0.241188	11	0	10.6873	6.50884e-06	38919.4
2	1	0	0	0	0	1445.16	0.517765	0.517291	0.0156249	13	0.241226	11	0	13.484	8.08262e-06	33106.8
2	0	0	1	0	0	1447.96	0.531748	0.531338	0.0121143	13	0.241265	11	0	16.2807	6.4368e-06	43860.3
2	0	0	1	0	0	1450.75	0.545732	0.545251	0.0133916	13	0.241305	11	0	19.0774	7.30181e-06	40715.8
2	1	0	1	0	0	1453.55	0.559716	0.55928	0.0187947	13	0.24135	11	0	21.8741	1.05115e-05	29757.3
2	1	0	0	0	0	1456.35	0.573699	0.573264	0.0203172	13	0.241402	11	0	24.6708	1.16471e-05	28215.6
2	1	0	1	0	0	1459.14	0.587683	0.587246	0.0270802	13	0.24147	11	0	27.4675	1.59027e-05	21685.5
2	1	0	1	0	0	1461.94	0.601665	0.601215	0.0455582	13	0.241569	11	0	30.2641	2.73903e-05	13196.6
2	1	0	0	0	0	1464.74	0.615649	0.615196	0.0727557	13	0.241729	11	0	33.0608	4.4759e-05	8455.63
2	1	0	1	0	0	1467.53	0.629632	0.629208	0.129919	13	0.242008	11	0	35.8575	8.1746e-05	4843.08
2	1	0	1	0	0	1470.33	0.643616	0.643174	0.238361	13	0.242514	11	0	38.6542	0.000153307	2698.32
2	1	0	1	0	0	1473.13	0.657599	0.657191	0.429398	13	0.243429	11	0	41.4509	0.000282196	1530.5
2	1	0	0	0	0	1475.92	0.671583	0.671149	0.723409	13	0.245022	11	0	44.2476	0.000485515	927.759
2	1	0	1	0	0	1478.72	0.685567	0.685122	1.14513	13	0.24762	11	0	47.0443	0.000784554	598.293
2	1	0	1	0	0	1481.52	0.699549	0.699118	1.70459	13	0.251572	11	0	49.8409	0.00119171	410.137
2	1	0	1	0	0	1484.05	0.687763	0.687304	1.20179	13	0.255244	11	0	52.3783	0.000825995	571.9
2	1	0	1	0	0	1486.85	0.673781	0.673301	0.759087	13	0.257962	11	0	55.1749	0.000511094	886.988
2	1	0	0	0	0	1489.65	0.659797	0.659374	0.439576	13	0.259601	11	0	57.9716	0.000289845	1500.02
2	1	0	1	0	0	1492.44	0.645813	0.645419	0.240218	13	0.260525	11	0	60.7683	0.000155042	2686.8
2	1	0	1	0	0	1495.24	0.63183	0.631379	0.12302	13	0.261013	11	0	63.565	7.76724e-05	5132.32
2	1	0	1	0	0	1498.04	0.617846	0.61742	0.0572673	13	0.261256	11	0	66.3617	3.5358e-05	10781.4
2	1	0	0	0	0	1500.83	0.603863	0.603398	0.0245539	13	0.261369	11	0	69.1584	1.48158e-05	24574.4
2	1	0	1	0	0	1503.63	0.589879	0.589399	0.0100424	13	0.261415	11	0	71.9551	5.91896e-06	58691.3
2	0	0	1	0	0	1506.43	0.575897	0.575424	-0.000663239	13	0.261426	11	0	0.000000000000000E+000	-3.81644e-07	867597
2	0	0	0	0	0	1509.22	0.561913	0.561452	-0.00630261	13	0.261419	11	0	1.698	-3.53861e-06	89082.5
2	0	0	1	0	0	1512.02	0.547929	0.54745	-0.0070716	13	0.261403	11	0	4.4947	-3.87134e-06	77415.3
2	1	0	1	0	0	1514.82	0.533946	0.533492	-0.00626457	13	0.261381	11	0	7.2914	-3.34209e-06	85160.2
2	0	0	1	0	0	1517.61	0.519962	0.519549	-0.00834666	13	0.261356	11	0	10.0881	-4.3365e-06	62246.4
2	0	0	0	0	0	1520.41	0.505979	0.505525	-0.011359	13	0.261329	11	0	12.8848	-5.74224e-06	44504.5
2	0	0	1	0	0	1523.21	0.491995	0.491507	-0.0124022	13	0.2613	11	0	15.6815	-6.09576e-06	39630.7
2	0	0	1	0	0	1526	0.478013	0.477531	-0.0107405	13	0.261269	11	0	18.4781	-5.1289e-06	44461
2	0	0	0	0	0	1528.8	0.464029	0.463556	-0.0108398	13	0.261237	11	0	21.2748	-5.02484e-06	42764.4
2	0	0	0	0	0	1531.57	0.45017	0.449675	-0.02024	13	0.261203	11	0	24.0466	-9.10141e-06	22217.2
2	1	0	1	0	1	1534.16	0.462831	0.462377	0.0144911	14	0.261236	11	0	2.5521	6.70037e-06	31907.6
2	1	0	1	0	1	1536.96	0.476813	0.476338	0.0148075	14	0.261275	11	0	5.3487	7.05338e-06	32168.7
2	1	0	0	0	1	1539.76	0.490797	0.49033	0.015306	14	0.261313	11	0	8.1454	7.50499e-06	32035.2
2	1	0	1	0	1	1542.55	0.504781	0.504299	0.014551	14	0.261351	11	0	10.9421	7.33807e-06	34657.2
2	1	0	1	0	1	1545.35	0.518764	0.518316	0.013955	14	0.261389	11	0	13.7388	7.2331e-06	37142
2	1	0	1	0	1	1548.15	0.532748	0.532274	0.0137178	14	0.261428	11	0	16.5355	7.30162e-06	38801.8
2	1	0	0	0	1	1550.94	0.546731	0.546274	0.0136409	14	0.261469	11	0	19.3322	7.45166e-06	40046.9
2	0	0	1	0	1	1553.74	0.560715	0.560243	0.0148359	14	0.261513	11	0	22.1289	8.3117e-06	37762.7
2	1	0	1	0	1	1556.54	0.574697	0.574223	0.0223044	14	0.261566	11	0	24.9255	1.28077e-05	25744.8
2	1	0	0	0	1	1559.33	0.588681	0.58825	0.0305703	14	0.261635	11	0	27.7222	1.7983e-05	19242.5
2	1	0	1	0	1	1562.13	0.602664	0.602191	0.0439331	14	0.261737	11	0	30.5189	2.64561e-05	13707
2	1	0	1	0	1	1564.93	0.616648	0.616226	0.0744471	14	0.261902	11	0	33.3156	4.58762e-05	8277.37
2	1	0	1	0	1	1567.72	0.630632	0.630198	0.138553	14	0.262192	11	0	36.1123	8.7316e-05	4548.41
2	1	0	0	0	1	1570.52	0.644615	0.644154	0.25039	14	0.262718	11	0	38.909	0.00016129	2572.6
2	1	0	1	0	1	1573.32	0.658598	0.658158	0.448303	14	0.263674	11	0	41.7056	0.000295054	1468.11
2	1	0	1	0	1	1576.11	0.672581	0.672183	0.766828	14	0.265344	11	0	44.5023	0.000515449	876.577
2	1	0	0	0	1	1578.91	0.686565	0.686144	1.20657	14	0.268076	11	0	47.299	0.00082788	568.673
2	1	0	0	0	1	1581.59	0.699974	0.699461	1.74682	14	0.272005	11	0	49.9808	0.00122183	400.419
2	1	0	0	0	1	1584.25	0.686765	0.686305	1.172	14	0.275816	11	0	52.633	0.000804352	585.582
2	1	0	1	0	1	1587.04	0.672781	0.672336	0.722186	14	0.278428	11	0	55.4297	0.000485552	930.974
2	1	0	1	0	1	1589.84	0.658798	0.658342	0.421514	14	0.280002	11	0	58.2264	0.000277501	1561.85
2	1	0	1	0	1	1592.64	0.644814	0.644365	0.22633	14	0.280887	11	0	61.0231	0.000145839	2847.01
2	1	0	0	0	1	1595.43	0.630831	0.630391	0.114785	14	0.281351	11	0	63.8198	7.23596e-05	5491.93
2	1	0	1	0	1	1598.23	0.616848	0.616399	0.05596	14	0.281581	11	0	66.6164	3.44936e-05	11015
2	1	0	1	0	1	1601.03	0.602865	0.602371	0.0260522	14	0.281686	11	0	69.4131	1.56931e-05	23121.7
2	1	0	0	0	1	1603.82	0.588881	0.588434	0.00952167	14	0.281728	11	0	72.2098	5.60287e-06	61799.5
2	1	0	1	0	1	1606.62	0.574897	0.574446	0.000306288	14	0.281737	11	0	0.000000000000000E+000	1.75946e-07	1.87551e+06
2	1	0	1	0	1	1609.42	0.560914	0.56042	-0.00228377	14	0.281729	11	0	1.8978	-1.27987e-06	245392
2	0	0	1	0	1	1612.21	0.54693	0.546455	-0.00897043	14	0.281712	11	0	4.6945	-4.90194e-06	60917.4
2	0	0	0	0	1	1615.01	0.532947	0.532475	-0.00658929	14	0.28169	11	0	7.4912	-3.50863e-06	80809.2
2	0	0	1	0	1	1617.81	0.518964	0.518484	-0.00866116	14	0.281665	11	0	10.2878	-4.49067e-06	59863.2
2	1	0	1	0	1	1620.6	0.504981	0.504521	-0.00782157	14	0.281638	11	0	13.0845	-3.94614e-06	64503.8
2	1	0	0	0	1	1623.4	0.490997	0.490523	-0.00884602	14	0.281609	11	0	15.8812	-4.33918e-06	55451.3
2	0	0	1	0	1	1626.2	0.477013	0.476596	-0.012497	14	0.281578	11	0	18.6779	-5.956e-06	38136.9
2	0	0	1	0	1	1628.99	0.46303	0.462533	-0.011881	14	0.281545	11	0	21.4746	-5.49534e-06	38930.6
2	0	0	0	0	0	1631.6	0.450071	0.449535	-0.00802192	15	0.281513	11	0	24.0856	-3.60613e-06	56038.3
2	1	0	0	0	0	1634.36	0.463829	0.463394	0.0153174	15	0.281549	11	0	2.6968	7.09799e-06	30252.8
2	1	0	1	0	0	1637.15	0.477812	0.47734	0.0111331	15	0.281587	11	0	5.4935	5.31426e-06	42875.9
2	1	0	1	0	0	1639.95	0.491796	0.491325	0.014216	15	0.281625	11	0	8.2902	6.98468e-06	34561.4
2	1	0	1	0	0	1642.75	0.50578	0.505338	0.0148429	15	0.281663	11	0	11.0869	7.50066e-06	34045.8
2	0	0	0	0	0	1645.54	0.519763	0.519293	0.0113412	15	0.281702	11	0	13.8836	5.88939e-06	45788.3
2	1	0	1	0	0	1648.34	0.533746	0.533294	0.0141472	15	0.281741	11	0	16.6802	7.5446e-06	37696.2
2	1	0	1	0	0	1651.14	0.547729	0.547268	0.0170723	15	0.281781	11	0	19.4769	9.34313e-06	32055.9
2	0	0	0	0	0	1653.93	0.561713	0.561296	0.0151702	15	0.281826	11	0	22.2736	8.51499e-06	36999.8
2	1	0	1	0	0	1656.73	0.575696	0.575246	0.0194949	15	0.28188	11	0	25.0703	1.12144e-05	29507.4
2	1	0	1	0	0	1659.53	0.58968	0.589234	0.0312819	15	0.28195	11	0	27.867	1.84323e-05	18836.3
2	1	0	1	0	0	1662.32	0.603664	0.603208	0.0461156	15	0.282054	11	0	30.6637	2.78173e-05	13080.3
2	1	0	0	0	0	1665.12	0.617647	0.617224	0.0771064	15	0.282224	11	0	33.4604	4.75919e-05	8004.84
2	1	0	1	0	0	1667.92	0.63163	0.631225	0.143908	15	0.282524	11	0	36.257	9.08385e-05	4386.29
2	1	0	1	0	0	1670.71	0.645613	0.645167	0.261551	15	0.283071	11	0	39.0537	0.000168744	2466.7
2	1	0	0	0	0	1673.51	0.659597	0.65919	0.463384	15	0.284061	11	0	41.8504	0.000305458	1422.56
2	1	0	1	0	0	1676.31	0.673581	0.673144	0.787554	15	0.285785	11	0	44.6471	0.000530137	854.728
2	1	0	1	0	0	1679.1	0.687564	0.687093	1.23547	15	0.288585	11	0	47.4438	0.000848884	556.139
2	1	0	1	0	0	1681.64	0.699749	0.699332	1.72047	15	0.292366	11	0	49.9811	0.00120318	406.478
2	1	0	1	0	0	1684.44	0.685766	0.68529	1.1321	15	0.296284	11	0	52.7778	0.00077582	605.324
2	1	0	1	0	0	1687.23	0.671782	0.671323	0.696204	15	0.298818	11	0	55.5745	0.000467377	964.262
2	1	0	1	0	0	1690.03	0.6578	0.657345	0.404056	15	0.300333	11	0	58.3711	0.000265605	1626.87
2	1	0	1	0	0	1692.83	0.643816	0.643387	0.217413	15	0.301179	11	0	61.1678	0.000139881	2959.28
2	1	0	1	0	0	1695.62	0.629833	0.629394	0.107662	15	0.30162	11	0	63.9645	6.7762e-05	5845.99
2	1	0	0	0	0	1698.42	0.615849	0.615406	0.0538969	15	0.301836	11	0	66.7612	3.31684e-05	11418.2
2	1	0	1	0	0	1701.22	0.601865	0.601405	0.0229376	15	0.301935	11	0	69.5579	1.37948e-05	26219.2
2	0	0	1	0	0	1704.01	0.587882	0.587426	0.00668215	15	0.301973	11	0	72.3546	3.92527e-06	87909.7
2	1	0	1	0	0	1706.81	0.573898	0.573456	0.000890943	15	0.301981	11	0	0.0999	5.10917e-07	643651
2	1	0	1	0	0	1709.61	0.559916	0.559435	-0.00277683	15	0.301972	11	0	2.3971	-1.55346e-06	201466
2	1	0	1	0	0	1712.4	0.545932	0.545471	-0.00479761	15	0.301955	11	0	5.1938	-2.61695e-06	113696
2	0	0	1	0	0	1715.2	0.531948	0.531463	-0.00872385	15	0.301932	11	0	7.9905	-4.63641e-06	60920.7
2	0	0	0	0	0	1718	0.517965	0.517473	-0.0113982	15	0.301907	11	0	10.7872	-5.89826e-06	45399.6
2	0	0	1	0	0	1720.79	0.503981	0.503534	-0.0125398	15	0.301879	11	0	13.5839	-6.3142e-06	40154.9
2	0	0	1	0	0	1723.59	0.489998	0.489529	-0.0125674	15	0.30185	11	0	16.3806	-6.15212e-06	38952.2
2	0	0	1	0	0	1726.39	0.476014	0.475562	-0.0133626	15	0.301819	11	0	19.1773	-6.35474e-06	35589.1
2	0	0	1	0	0	1729.18	0.462032	0.461585	-0.011336	15	0.301786	11	0	21.9739	-5.23252e-06	40718.5
2	0	0	1	0	0	1731.58	0.450021	0.449496	-0.0103062	15	0.301757	11	0	24.3752	-4.6326e-06	43614.2