File: ACS_Catal_2026/Figures_Na_K/main_figures/data/EC/20251112_2-148_alpha_reproducibility/20251112_2-148_002_alpha_reproducibility_2_Na1_01_CVA_C02.mpt
EC-Lab ASCII FILE
Nb header lines : 66

Cyclic Voltammetry Advanced

Run on channel : 2 (SN 69290)
User :
CE vs. WE compliance from -10 V to 10 V
Electrode connection : standard
Potential control : Ewe
Ewe ctrl range : min = -1.00 V, max = 1.00 V
Safety Limits :
	Do not start on E overload
Acquisition started on : 11/12/2025 13:57:42.969
Loaded Setting File :  C:\Users\User\Documents\EC-Lab\Data\Yatsuzuka\20251112_2-148_alpha_reproducibility\20251112_2-148_002_alpha_reproducibility_2_K1.mps
Saved on :
	File : 20251112_2-148_002_alpha_reproducibility_2_Na1_01_CVA_C02.mpr
	Directory : C:\Users\User\Documents\EC-Lab\Data\Yatsuzuka\20251112_2-148_alpha_reproducibility\
	Host : 192.109.209.127
Device : SP-150e (SN .003883)
Address : 192.109.209.128
EC-LAB for windows v11.52 (software)
Internet server v11.52 (firmware)
Command interpretor v11.50 (firmware)
Electrode material :
Initial state :
Electrolyte :
Comments :
Electrode surface area : 0.001 cm2
Characteristic mass : 0.001 g
Equivalent Weight : 0.000 g/eq.
Density : 0.000 g/cm3
Volume (V) : 0.001 cm3
Cycle Definition : Charge/Discharge alternance
Ei (V)              0.350
vs.                 Ref
ti (h:m:s)          0:00:10.0000
dti (s)             0.0000
dE/dt               10.000
dE/dt unit          mV/s
E1 (V)              0.450
vs.                 Ref
t1 (h:m:s)          0:00:0.0000
dt1 (s)             0.1000
Step percent        50
N                   10
E range min (V)     -1.000
E range max (V)     1.000
I Range             Auto
I Range min         Unset
I Range max         Unset
I Range init        Unset
Bandwidth           5
E2 (V)              0.350
vs.                 Ref
t2 (h:m:s)          0:00:0.0000
dt2 (s)             0.1000
nc cycles           9
nr                  1
Reverse Scan        0
Ef (V)              0.000
vs.                 Eoc
tf (h:m:s)          0:00:0.0000
dtf (s)             0.1000

mode	ox/red	error	control changes	Ns changes	counter inc.	time/s	control/V	Ewe/V	<I>/mA	cycle number	(Q-Qo)/C	I Range	Ns	step time/s	Pwe/W	Rwe/Ohm
2	0	0	1	0	0	0.000000000000000E+000	0.349989	0.349495	-0.00690457	1	0.0000000E+000	13	0	0.000000000000000E+000	-2.41312e-06	50618
2	1	0	1	0	0	0.4371	0.354359	0.353902	0.0273045	1	1.41828e-05	13	0	0.4096	9.66313e-06	12961.3
2	1	0	1	0	0	0.8366	0.358354	0.357904	0.0428313	1	2.82114e-05	13	0	0.8091	1.53295e-05	8356.15
2	1	0	1	0	0	1.2361	0.362349	0.361938	0.02933	1	4.22703e-05	13	0	1.2086	1.06156e-05	12340.2
2	1	0	1	0	0	1.6357	0.366345	0.365923	0.0386077	1	5.62538e-05	13	0	1.6082	1.41274e-05	9477.97
2	1	0	1	0	0	2.0352	0.370341	0.36988	0.0332688	1	7.01235e-05	13	0	2.0077	1.23055e-05	11117.9
2	1	0	1	0	0	2.4347	0.374335	0.373881	0.0336234	1	8.38501e-05	13	0	2.4072	1.25712e-05	11119.6
2	1	0	1	0	0	2.8343	0.37833	0.377942	0.0371695	1	9.74454e-05	13	0	2.8068	1.40479e-05	10168.1
2	1	0	1	0	0	3.2337	0.382326	0.381844	0.0281914	1	0.000110845	13	0	3.2062	1.07647e-05	13544.7
2	1	0	1	0	0	3.6333	0.386321	0.385915	0.0397624	1	0.000124103	13	0	3.6058	1.53449e-05	9705.53
2	1	0	1	0	0	4.0328	0.390316	0.389868	0.0258595	1	0.000137237	13	0	4.0053	1.00818e-05	15076.4
2	1	0	1	0	0	4.4323	0.394312	0.393875	0.0400652	1	0.000150191	13	0	4.4048	1.57807e-05	9830.86
2	1	0	1	0	0	4.8319	0.398307	0.397934	0.0245867	1	0.000163008	13	0	4.8044	9.78387e-06	16184.9
2	1	0	1	0	0	5.2314	0.402302	0.401888	0.0389729	1	0.000175682	13	0	5.2039	1.56627e-05	10312
2	1	0	1	0	0	5.6309	0.406297	0.405863	0.0251633	1	0.000188216	13	0	5.6034	1.02129e-05	16129.2
2	1	0	1	0	0	6.0305	0.410293	0.409812	0.0369036	1	0.00020053	13	0	6.003	1.51236e-05	11104.9
2	1	0	1	0	0	6.43	0.414289	0.413824	0.02595	1	0.000212782	13	0	6.4025	1.07387e-05	15947
2	1	0	1	0	0	6.8295	0.418283	0.417824	0.0346015	1	0.00022491	13	0	6.802	1.44574e-05	12075.3
2	1	0	1	0	0	7.2291	0.422278	0.421786	0.0268129	1	0.000236926	13	0	7.2016	1.13093e-05	15730.7
2	1	0	1	0	0	7.6285	0.426274	0.425836	0.0324153	1	0.000248806	13	0	7.601	1.38036e-05	13136.9
2	1	0	1	0	0	8.0281	0.430269	0.4298	0.0275452	1	0.000260567	13	0	8.0006	1.18389e-05	15603.5
2	1	0	1	0	0	8.4276	0.434264	0.433756	0.0296908	1	0.000272204	13	0	8.4001	1.28786e-05	14609.1
2	1	0	1	0	0	8.8271	0.438259	0.437834	0.029403	1	0.000283751	13	0	8.7996	1.28736e-05	14890.8
2	1	0	1	0	0	9.2267	0.442255	0.441783	0.0274249	1	0.000295214	13	0	9.1992	1.21159e-05	16108.8
2	1	0	1	0	0	9.6262	0.44625	0.445829	0.0305296	1	0.000306558	13	0	9.5987	1.3611e-05	14603.2
2	1	0	0	0	0	9.999	0.450021	0.449515	0.0168045	1	0.000317149	13	0	9.9715	7.55387e-06	26749.8
2	0	0	1	0	0	10.4359	0.445651	0.445174	-0.0248393	1	0.0003087	13	0	0.3945	-1.10578e-05	17922.2
2	0	0	1	0	0	10.8355	0.441655	0.441152	-0.02415	1	0.000299124	13	0	0.7941	-1.06538e-05	18267.2
2	0	0	1	0	0	11.235	0.43766	0.437187	-0.025007	1	0.000289098	13	0	1.1936	-1.09327e-05	17482.6
2	0	0	1	0	0	11.6345	0.433665	0.433184	-0.0273765	1	0.000278794	13	0	1.5931	-1.18591e-05	15823.2
2	0	0	1	0	0	12.0341	0.42967	0.429199	-0.0244145	1	0.000268228	13	0	1.9927	-1.04787e-05	17579.7
2	0	0	1	0	0	12.4335	0.425674	0.425169	-0.029944	1	0.000257416	13	0	2.3921	-1.27313e-05	14198.8
2	0	0	1	0	0	12.8331	0.421679	0.421204	-0.0250951	1	0.000246371	13	0	2.7917	-1.05702e-05	16784.3
2	0	0	1	0	0	13.2326	0.417685	0.417194	-0.031308	1	0.000235108	13	0	3.1912	-1.30615e-05	13325.5
2	0	0	1	0	0	13.6321	0.413688	0.413234	-0.0260988	1	0.00022364	13	0	3.5907	-1.07849e-05	15833.5
2	0	0	1	0	0	14.0317	0.409693	0.40921	-0.0322245	1	0.000211968	13	0	3.9903	-1.31866e-05	12698.7
2	0	0	1	0	0	14.4312	0.405698	0.405241	-0.0273269	1	0.000200141	13	0	4.3898	-1.1074e-05	14829.4
2	0	0	1	0	0	14.8307	0.401703	0.401184	-0.033512	1	0.000188047	13	0	4.7893	-1.34445e-05	11971.4
2	0	0	1	0	0	15.2303	0.397707	0.397232	-0.0278091	1	0.000175712	13	0	5.1889	-1.10467e-05	14284.3
2	0	0	1	0	0	15.6298	0.393712	0.393195	-0.0352977	1	0.000163164	13	0	5.5884	-1.38789e-05	11139.4
2	0	0	1	0	0	16.0293	0.389717	0.389265	-0.028745	1	0.000150374	13	0	5.9879	-1.11894e-05	13542
2	0	0	1	0	0	16.4289	0.385722	0.385247	-0.0369966	1	0.000137341	13	0	6.3875	-1.42528e-05	10413.1
2	0	0	1	0	0	16.8283	0.381726	0.381286	-0.0287974	1	0.00012409	13	0	6.7869	-1.09801e-05	13240.3
2	0	0	1	0	0	17.2279	0.377731	0.377203	-0.03936	1	0.000110578	13	0	7.1865	-1.48467e-05	9583.42
2	0	0	1	0	0	17.6274	0.373737	0.373276	-0.0296533	1	9.67638e-05	13	0	7.586	-1.10689e-05	12588
2	0	0	1	0	0	18.0269	0.369741	0.36929	-0.0415903	1	8.26995e-05	13	0	7.9855	-1.53589e-05	8879.24
2	0	0	1	0	0	18.4265	0.365745	0.365305	-0.0303281	1	6.83341e-05	13	0	8.3851	-1.1079e-05	12045.1
2	0	0	1	0	0	18.826	0.36175	0.361242	-0.0436216	1	5.36629e-05	13	0	8.7846	-1.5758e-05	8281.27
2	0	0	1	0	0	19.2255	0.357755	0.357284	-0.0320998	1	3.86776e-05	13	0	9.1841	-1.14687e-05	11130.4
2	0	0	1	0	0	19.6251	0.35376	0.35327	-0.0456143	1	2.33969e-05	13	0	9.5837	-1.61142e-05	7744.73
2	0	0	0	0	0	19.9986	0.349989	0.34961	-0.0372839	1	8.63515e-06	13	0	9.9572	-1.30348e-05	9376.98
2	1	0	1	0	1	20.3907	0.353909	0.353503	0.0361791	2	1.85928e-05	13	0	0.3446	1.27894e-05	9770.92
2	1	0	1	0	1	20.7903	0.357905	0.357427	0.0288996	2	3.18241e-05	13	0	0.7442	1.03295e-05	12367.9
2	1	0	1	0	1	21.1898	0.361901	0.361433	0.0390514	2	4.53021e-05	13	0	1.1437	1.41145e-05	9255.31
2	1	0	1	0	1	21.5893	0.365895	0.365464	0.0281072	2	5.88496e-05	13	0	1.5432	1.02722e-05	13002.5
2	1	0	1	0	1	21.9889	0.36989	0.369491	0.0393237	2	7.23307e-05	13	0	1.9428	1.45298e-05	9396.14
2	1	0	1	0	1	22.3883	0.373886	0.373444	0.0271956	2	8.57294e-05	13	0	2.3422	1.0156e-05	13731.8
2	1	0	1	0	1	22.7879	0.377881	0.377446	0.0390215	2	9.90395e-05	13	0	2.7418	1.47285e-05	9672.78
2	1	0	1	0	1	23.1874	0.381876	0.381404	0.0263448	2	0.000112209	13	0	3.1413	1.0048e-05	14477.4
2	1	0	1	0	1	23.5869	0.385871	0.385426	0.0382254	2	0.000125219	13	0	3.5408	1.47331e-05	10083
2	1	0	1	0	1	23.9865	0.389867	0.389409	0.025857	2	0.000138141	13	0	3.9404	1.0069e-05	15060.1
2	1	0	1	0	1	24.386	0.393862	0.39342	0.0374227	2	0.000150906	13	0	4.3399	1.47228e-05	10512.9
2	1	0	1	0	1	24.7855	0.397857	0.397391	0.0270179	2	0.000163565	13	0	4.7394	1.07367e-05	14708.4
2	1	0	1	0	1	25.1851	0.401853	0.401372	0.0319137	2	0.00017605	13	0	5.139	1.28093e-05	12576.8
2	1	0	1	0	1	25.5845	0.405848	0.405364	0.0317368	2	0.000188429	13	0	5.5384	1.2865e-05	12772.7
2	1	0	1	0	1	25.9841	0.409843	0.409388	0.0279461	2	0.000200597	13	0	5.938	1.14408e-05	14649.2
2	1	0	1	0	1	26.3837	0.413838	0.413411	0.034385	2	0.000212725	13	0	6.3376	1.42151e-05	12023
2	1	0	1	0	1	26.7831	0.417834	0.417397	0.0238133	2	0.000224717	13	0	6.737	9.93962e-06	17527.9
2	1	0	1	0	1	27.1827	0.421829	0.42138	0.0364985	2	0.000236626	13	0	7.1366	1.53798e-05	11545.1
2	1	0	1	0	1	27.5822	0.425824	0.425308	0.0221849	2	0.000248399	13	0	7.5361	9.43541e-06	19171
2	1	0	1	0	1	27.9817	0.429819	0.429382	0.0350417	2	0.00026008	13	0	7.9356	1.50463e-05	12253.4
2	1	0	1	0	1	28.3813	0.433815	0.433339	0.0227259	2	0.000271629	13	0	8.3352	9.84804e-06	19068
2	1	0	1	0	1	28.7808	0.437811	0.437365	0.0339959	2	0.000283088	13	0	8.7347	1.48686e-05	12865.2
2	1	0	1	0	1	29.1803	0.441805	0.441345	0.0232438	2	0.000294479	13	0	9.1342	1.02585e-05	18987.6
2	1	0	1	0	1	29.5799	0.4458	0.445355	0.0326455	2	0.000305756	13	0	9.5338	1.45388e-05	13642.2
2	1	0	1	0	1	29.9768	0.449771	0.449311	0.0223908	2	0.000316863	13	0	9.9307	1.00605e-05	20066.7
2	0	0	1	0	1	30.3846	0.44615	0.445705	-0.0227706	2	0.000310159	13	0	0.3097	-1.0149e-05	19573.7
2	0	0	1	0	1	30.7841	0.442155	0.441653	-0.0244269	2	0.000300638	13	0	0.7092	-1.07882e-05	18080.7
2	0	0	1	0	1	31.1837	0.438159	0.437716	-0.0261184	2	0.000290648	13	0	1.1088	-1.14324e-05	16758.9
2	0	0	1	0	1	31.5832	0.434163	0.43367	-0.0248393	2	0.000280384	13	0	1.5083	-1.07721e-05	17459
2	0	0	1	0	1	31.9827	0.430169	0.429653	-0.0282771	2	0.000269852	13	0	1.9078	-1.21493e-05	15194.4
2	0	0	1	0	1	32.3823	0.426174	0.425663	-0.025328	2	0.000259103	13	0	2.3074	-1.07812e-05	16806
2	0	0	1	0	1	32.7817	0.422178	0.421722	-0.0291501	2	0.000248121	13	0	2.7068	-1.22932e-05	14467.3
2	0	0	1	0	1	33.1813	0.418183	0.417673	-0.0270841	2	0.000236919	13	0	3.1064	-1.13123e-05	15421.3
2	0	0	1	0	1	33.5808	0.414188	0.413718	-0.0299435	2	0.000225508	13	0	3.5059	-1.23882e-05	13816.6
2	0	0	1	0	1	33.9803	0.410193	0.409635	-0.0278601	2	0.000213911	13	0	3.9054	-1.14125e-05	14703.3
2	0	0	1	0	1	34.3799	0.406197	0.405715	-0.031075	2	0.000202163	13	0	4.305	-1.26076e-05	13056
2	0	0	1	0	1	34.7794	0.402202	0.401717	-0.0284788	2	0.00019015	13	0	4.7045	-1.14404e-05	14105.8
2	0	0	1	0	1	35.1789	0.398207	0.397746	-0.0327701	2	0.000177891	13	0	5.104	-1.30342e-05	12137.4
2	0	0	1	0	1	35.5785	0.394212	0.393766	-0.0282348	2	0.000165435	13	0	5.5036	-1.11179e-05	13946.1
2	0	0	1	0	1	35.9779	0.390216	0.389765	-0.0355934	2	0.00015274	13	0	5.903	-1.38731e-05	10950.5
2	0	0	1	0	1	36.3775	0.386221	0.385765	-0.0279745	2	0.000139791	13	0	6.3026	-1.07916e-05	13789.9
2	0	0	1	0	1	36.777	0.382227	0.38176	-0.0383798	2	0.000126612	13	0	6.7021	-1.46519e-05	9946.91
2	0	0	1	0	1	37.1765	0.378231	0.377776	-0.0274234	2	0.000113208	13	0	7.1016	-1.03599e-05	13775.7
2	0	0	1	0	1	37.5761	0.374235	0.37375	-0.0409634	2	9.94877e-05	13	0	7.5012	-1.53101e-05	9124.02
2	0	0	1	0	1	37.9756	0.37024	0.369746	-0.0279414	2	8.55218e-05	13	0	7.9007	-1.03312e-05	13232.9
2	0	0	1	0	1	38.3751	0.366245	0.365754	-0.0429275	2	7.12414e-05	13	0	8.3002	-1.57009e-05	8520.28
2	0	0	1	0	1	38.7747	0.362249	0.361787	-0.0287693	2	5.66877e-05	13	0	8.6998	-1.04083e-05	12575.5
2	0	0	1	0	1	39.1742	0.358254	0.357762	-0.0451184	2	4.18132e-05	13	0	9.0993	-1.61417e-05	7929.4
2	0	0	1	0	1	39.5737	0.354259	0.353796	-0.0303479	2	2.66364e-05	13	0	9.4988	-1.0737e-05	11658
2	0	0	1	0	1	39.9733	0.350264	0.349823	-0.0464887	2	1.10934e-05	13	0	9.8984	-1.62628e-05	7524.9
2	1	0	1	0	0	40.3444	0.353461	0.353064	0.0304074	3	1.84915e-05	13	0	0.2997	1.07358e-05	11611.1
2	1	0	1	0	0	40.7439	0.357455	0.357004	0.0340599	3	3.16249e-05	13	0	0.6992	1.21595e-05	10481.7
2	1	0	1	0	0	41.1435	0.36145	0.360981	0.0344414	3	4.50897e-05	13	0	1.0988	1.24327e-05	10481
2	1	0	1	0	0	41.5429	0.365446	0.36504	0.0322222	3	5.86056e-05	13	0	1.4982	1.17624e-05	11328.8
2	1	0	1	0	0	41.9425	0.369441	0.369011	0.0368199	3	7.20813e-05	13	0	1.8978	1.3587e-05	10022
2	1	0	1	0	0	42.342	0.373436	0.372982	0.0291977	3	8.54591e-05	13	0	2.2973	1.08902e-05	12774.4
2	1	0	1	0	0	42.7415	0.377431	0.376991	0.0386002	3	9.87606e-05	13	0	2.6968	1.45519e-05	9766.57
2	1	0	1	0	0	43.1411	0.381427	0.380982	0.0271022	3	0.0001119	13	0	3.0964	1.03254e-05	14057.2
2	1	0	1	0	0	43.5406	0.385422	0.384954	0.0387224	3	0.000124906	13	0	3.4959	1.49064e-05	9941.39
2	1	0	1	0	0	43.9401	0.389417	0.388988	0.0257118	3	0.0001378	13	0	3.8954	1.00016e-05	15128.8
2	1	0	1	0	0	44.3397	0.393413	0.392954	0.0396036	3	0.000150544	13	0	4.295	1.55624e-05	9922.2
2	1	0	1	0	0	44.7391	0.397408	0.397001	0.0251028	3	0.000163176	13	0	4.6944	9.96585e-06	15815
2	1	0	1	0	0	45.1387	0.401403	0.40099	0.0357989	3	0.000175645	13	0	5.094	1.4355e-05	11201.2
2	1	0	1	0	0	45.5382	0.405397	0.404959	0.0306476	3	0.000188005	13	0	5.4935	1.2411e-05	13213.4
2	1	0	1	0	0	45.9377	0.409394	0.408923	0.0275186	3	0.000200154	13	0	5.893	1.1253e-05	14859.9
2	1	0	1	0	0	46.3373	0.413389	0.412969	0.0369482	3	0.000212262	13	0	6.2926	1.52585e-05	11177
2	1	0	1	0	0	46.7368	0.417384	0.41689	0.0225261	3	0.000224252	13	0	6.6921	9.39089e-06	18507
2	1	0	1	0	0	47.1363	0.421379	0.420908	0.0365253	3	0.000236118	13	0	7.0916	1.53738e-05	11523.8
2	1	0	1	0	0	47.5359	0.425375	0.424892	0.0257733	3	0.000247891	13	0	7.4912	1.09509e-05	16485.8
2	1	0	1	0	0	47.9354	0.42937	0.428975	0.0300784	3	0.00025954	13	0	7.8907	1.29029e-05	14261.9
2	1	0	1	0	0	48.3349	0.433365	0.432879	0.0314141	3	0.000271098	13	0	8.2902	1.35985e-05	13779.8
2	1	0	1	0	0	48.7345	0.43736	0.436914	0.0234617	3	0.000282534	13	0	8.6898	1.02508e-05	18622.4
2	1	0	1	0	0	49.1339	0.441356	0.440891	0.0356644	3	0.000293917	13	0	9.0892	1.57241e-05	12362.2
2	1	0	1	0	0	49.5335	0.445351	0.444857	0.021459	3	0.000305198	13	0	9.4888	9.54618e-06	20730.6
2	1	0	1	0	0	49.933	0.449346	0.448921	0.0334126	3	0.000316392	13	0	9.8883	1.49996e-05	13435.7
2	0	0	1	0	0	50.3333	0.446649	0.446138	-0.0260846	3	0.000311939	13	0	0.2598	-1.16373e-05	17103.5
2	0	0	1	0	0	50.7328	0.442653	0.442173	-0.0245749	3	0.000302464	13	0	0.6593	-1.08664e-05	17992.9
2	0	0	1	0	0	51.1323	0.438659	0.43814	-0.0222602	3	0.000292566	13	0	1.0588	-9.7531e-06	19682.7
2	0	0	1	0	0	51.5319	0.434664	0.434145	-0.0324016	3	0.000282333	13	0	1.4584	-1.4067e-05	13398.9
2	0	0	1	0	0	51.9313	0.430668	0.430153	-0.0199071	3	0.000271857	13	0	1.8578	-8.56312e-06	21608
2	0	0	1	0	0	52.3309	0.426673	0.426185	-0.0341919	3	0.000261146	13	0	2.2574	-1.45721e-05	12464.5
2	0	0	1	0	0	52.7304	0.422678	0.422184	-0.0232321	3	0.000250208	13	0	2.6569	-9.80823e-06	18172.4
2	0	0	1	0	0	53.1299	0.418683	0.418142	-0.0305417	3	0.000239064	13	0	3.0564	-1.27708e-05	13690.9
2	0	0	1	0	0	53.5295	0.414687	0.414192	-0.0307991	3	0.000227698	13	0	3.456	-1.27568e-05	13448.2
2	0	0	1	0	0	53.929	0.410692	0.410211	-0.0243427	3	0.000216155	13	0	3.8555	-9.98566e-06	16851.5
2	0	0	1	0	0	54.3285	0.406697	0.406199	-0.0370399	3	0.000204466	13	0	4.255	-1.50456e-05	10966.5
2	0	0	1	0	0	54.7281	0.402701	0.402261	-0.0232904	3	0.000192503	13	0	4.6546	-9.36882e-06	17271.5
2	0	0	1	0	0	55.1276	0.398705	0.398194	-0.0369487	3	0.000180318	13	0	5.0541	-1.47128e-05	10776.9
2	0	0	1	0	0	55.5271	0.394711	0.394254	-0.0282495	3	0.000167904	13	0	5.4536	-1.11375e-05	13956.1
2	0	0	1	0	0	55.9267	0.390716	0.390205	-0.0313429	3	0.000155299	13	0	5.8532	-1.22302e-05	12449.6
2	0	0	1	0	0	56.3261	0.38672	0.386241	-0.0369334	3	0.000142411	13	0	6.2526	-1.42652e-05	10457.8
2	0	0	1	0	0	56.7257	0.382725	0.382235	-0.0264824	3	0.000129317	13	0	6.6522	-1.01225e-05	14433.6
2	0	0	1	0	0	57.1252	0.37873	0.378273	-0.040982	3	0.000115978	13	0	7.0517	-1.55024e-05	9230.22
2	0	0	1	0	0	57.5247	0.374735	0.374269	-0.027473	3	0.000102352	13	0	7.4512	-1.02823e-05	13623.1
2	0	0	1	0	0	57.9243	0.370739	0.370266	-0.0396193	3	8.84754e-05	13	0	7.8508	-1.46697e-05	9345.6
2	0	0	1	0	0	58.3238	0.366744	0.366288	-0.0347141	3	7.42664e-05	13	0	8.2503	-1.27154e-05	10551.5
2	0	0	1	0	0	58.7233	0.362749	0.362279	-0.034571	3	5.98158e-05	13	0	8.6498	-1.25243e-05	10479.3
2	0	0	1	0	0	59.1229	0.358754	0.358245	-0.0426307	3	4.50169e-05	13	0	9.0494	-1.52722e-05	8403.46
2	0	0	1	0	0	59.5223	0.354758	0.354301	-0.0311183	3	2.99494e-05	13	0	9.4488	-1.10252e-05	11385.6
2	0	0	1	0	0	59.9219	0.350763	0.350301	-0.0469074	3	1.45139e-05	13	0	9.8484	-1.64317e-05	7467.92
2	1	0	1	0	1	60.2281	0.352311	0.351895	0.03895	4	1.67101e-05	13	0	0.1498	1.37063e-05	9034.53
2	1	0	1	0	1	60.6277	0.356307	0.355877	0.0268614	4	2.97173e-05	13	0	0.5494	9.55935e-06	13248.6
2	1	0	1	0	1	61.0271	0.360302	0.359916	0.0365105	4	4.30651e-05	13	0	0.9488	1.31407e-05	9857.86
2	1	0	1	0	1	61.4267	0.364297	0.363896	0.0356871	4	5.65779e-05	13	0	1.3484	1.29864e-05	10196.9
2	1	0	1	0	1	61.8262	0.368291	0.367838	0.0277301	4	7.0025e-05	13	0	1.7479	1.02002e-05	13265
2	1	0	1	0	1	62.2257	0.372288	0.371856	0.04097	4	8.34229e-05	13	0	2.1474	1.52349e-05	9076.29
2	1	0	1	0	1	62.6253	0.376283	0.375827	0.026731	4	9.67068e-05	13	0	2.547	1.00462e-05	14059.6
2	1	0	1	0	1	63.0248	0.380278	0.379867	0.035641	4	0.000109841	13	0	2.9465	1.35388e-05	10658.2
2	1	0	1	0	1	63.4243	0.384273	0.383835	0.033798	4	0.000122876	13	0	3.346	1.29728e-05	11356.7
2	1	0	1	0	1	63.8239	0.388269	0.387827	0.0266843	4	0.000135746	13	0	3.7456	1.03489e-05	14533.9
2	1	0	1	0	1	64.2234	0.392265	0.391822	0.0390967	4	0.000148498	13	0	4.1451	1.53189e-05	10021.9
2	1	0	1	0	1	64.6229	0.396259	0.395799	0.0245854	4	0.000161137	13	0	4.5446	9.73089e-06	16098.9
2	1	0	1	0	1	65.0225	0.400254	0.39975	0.034627	4	0.000173614	13	0	4.9442	1.38422e-05	11544.4
2	1	0	1	0	1	65.4219	0.40425	0.403819	0.0312304	4	0.000185994	13	0	5.3436	1.26114e-05	12930.3
2	1	0	1	0	1	65.8215	0.408245	0.407797	0.0251711	4	0.000198136	13	0	5.7432	1.02647e-05	16201
2	1	0	1	0	1	66.221	0.41224	0.411771	0.0369409	4	0.000210237	13	0	6.1427	1.52112e-05	11146.8
2	1	0	1	0	1	66.6205	0.416236	0.415764	0.0226027	4	0.000222252	13	0	6.5422	9.39741e-06	18394.4
2	1	0	1	0	1	67.0201	0.420231	0.41978	0.034085	4	0.000234109	13	0	6.9418	1.43082e-05	12315.7
2	1	0	1	0	1	67.4196	0.424226	0.423783	0.0275622	4	0.000245891	13	0	7.3413	1.16804e-05	15375.5
2	1	0	1	0	1	67.8191	0.428221	0.427755	0.0258667	4	0.000257554	13	0	7.7408	1.10646e-05	16536.9
2	1	0	1	0	1	68.2187	0.432217	0.431762	0.0346642	4	0.000269122	13	0	8.1404	1.49667e-05	12455.6
2	1	0	1	0	1	68.6182	0.436213	0.435718	0.0210839	4	0.000280572	13	0	8.5399	9.18662e-06	20665.9
2	1	0	1	0	1	69.0177	0.440207	0.439754	0.0338728	4	0.000291936	13	0	8.9394	1.48957e-05	12982.5
2	1	0	1	0	1	69.4173	0.444202	0.443733	0.0251037	4	0.000303234	13	0	9.339	1.11393e-05	17676
2	1	0	1	0	1	69.8167	0.448198	0.447715	0.0265777	4	0.00031444	13	0	9.7384	1.18992e-05	16845.5
2	0	0	1	0	1	70.1671	0.448297	0.447838	-0.0203965	4	0.000316725	12	0	0.1299	-9.13434e-06	21956.6
2	0	0	1	0	1	70.5815	0.444152	0.443683	-0.0180809	4	0.000307357	13	0	0.5443	-8.02219e-06	24538.8
2	0	0	1	0	1	70.9811	0.440157	0.439646	-0.0290744	4	0.000297622	13	0	0.9439	-1.27824e-05	15121.4
2	0	0	1	0	1	71.3806	0.436162	0.435687	-0.02597	4	0.000287503	13	0	1.3434	-1.13148e-05	16776.5
2	0	0	1	0	1	71.7801	0.432167	0.431679	-0.0225832	4	0.000277163	13	0	1.7429	-9.74872e-06	19115
2	0	0	1	0	1	72.1797	0.428171	0.42769	-0.0339703	4	0.000266551	13	0	2.1425	-1.45288e-05	12590.1
2	0	0	1	0	1	72.5792	0.424176	0.423689	-0.0206152	4	0.000255701	13	0	2.542	-8.73442e-06	20552.3
2	0	0	1	0	1	72.9787	0.420181	0.419701	-0.0337807	4	0.000244673	13	0	2.9415	-1.41778e-05	12424.3
2	0	0	1	0	1	73.3783	0.416186	0.415679	-0.0261944	4	0.000233411	13	0	3.3411	-1.08885e-05	15869
2	0	0	1	0	1	73.7777	0.41219	0.411671	-0.0277049	4	0.000221959	13	0	3.7405	-1.14053e-05	14859.2
2	0	0	1	0	1	74.1773	0.408195	0.407718	-0.0348461	4	0.000210284	13	0	4.1401	-1.42074e-05	11700.5
2	0	0	1	0	1	74.5769	0.4042	0.403732	-0.0224376	4	0.000198506	13	0	4.5397	-9.05877e-06	17993.6
2	0	0	1	0	1	74.9763	0.400204	0.399732	-0.0376519	4	0.000186434	13	0	4.9391	-1.50507e-05	10616.5
2	0	0	1	0	1	75.3759	0.396209	0.395755	-0.0266996	4	0.000174135	13	0	5.3387	-1.05665e-05	14822.5
2	0	0	1	0	1	75.7754	0.392214	0.3917	-0.0319733	4	0.000161624	13	0	5.7382	-1.25239e-05	12250.9
2	0	0	1	0	1	76.1749	0.388219	0.387731	-0.0361249	4	0.000148867	13	0	6.1377	-1.40067e-05	10733.1
2	0	0	1	0	1	76.5745	0.384223	0.383783	-0.0259857	4	0.000135906	13	0	6.5373	-9.97285e-06	14769
2	0	0	1	0	1	76.974	0.380228	0.379758	-0.0411815	4	0.000122688	13	0	6.9368	-1.5639e-05	9221.57
2	0	0	1	0	1	77.3735	0.376233	0.375782	-0.0285921	4	0.000109201	13	0	7.3363	-1.07444e-05	13142.9
2	0	0	1	0	1	77.7731	0.372238	0.371748	-0.0365565	4	9.54611e-05	13	0	7.7359	-1.35898e-05	10169.1
2	0	0	1	0	1	78.1725	0.368242	0.367815	-0.0383542	4	8.14148e-05	13	0	8.1353	-1.41073e-05	9589.96
2	0	0	1	0	1	78.5721	0.364247	0.363768	-0.0304253	4	6.71081e-05	13	0	8.5349	-1.10677e-05	11956.1
2	0	0	1	0	1	78.9716	0.360253	0.359767	-0.0450735	4	5.2469e-05	13	0	8.9344	-1.6216e-05	7981.78
2	0	0	1	0	1	79.3711	0.356257	0.355802	-0.0310143	4	3.75408e-05	13	0	9.3339	-1.10349e-05	11472.2
2	0	0	1	0	1	79.7707	0.352261	0.351797	-0.0418027	4	2.2322e-05	13	0	9.7335	-1.47061e-05	8415.66
2	1	0	1	0	0	80.0919	0.350963	0.350548	0.0267996	5	1.47768e-05	13	0	0.000000000000000E+000	9.39456e-06	13080.3
2	1	0	1	0	0	80.5363	0.355408	0.354976	0.0253618	5	2.86524e-05	13	0	0.4444	9.00282e-06	13996.5
2	1	0	1	0	0	80.9359	0.359403	0.359002	0.0391306	5	4.19528e-05	13	0	0.844	1.4048e-05	9174.46
2	1	0	1	0	0	81.3354	0.363398	0.362945	0.0326121	5	5.54245e-05	13	0	1.2435	1.18364e-05	11129.1
2	1	0	1	0	0	81.7349	0.367393	0.366987	0.0290948	5	6.88579e-05	13	0	1.643	1.06774e-05	12613.5
2	1	0	1	0	0	82.1345	0.371389	0.370918	0.0405966	5	8.22627e-05	13	0	2.0426	1.5058e-05	9136.67
2	1	0	1	0	0	82.534	0.375385	0.3749	0.0261545	5	9.55377e-05	13	0	2.4421	9.80532e-06	14334.1
2	1	0	1	0	0	82.9335	0.379379	0.378955	0.0353314	5	0.000108683	13	0	2.8416	1.3389e-05	10725.8
2	1	0	1	0	0	83.3331	0.383374	0.38287	0.0338428	5	0.00012172	13	0	3.2412	1.29574e-05	11313.2
2	1	0	1	0	0	83.7325	0.38737	0.386977	0.0261978	5	0.000134599	13	0	3.6406	1.01379e-05	14771.4
2	1	0	1	0	0	84.1321	0.391365	0.390938	0.0387106	5	0.000147385	13	0	4.0402	1.51334e-05	10099
2	1	0	1	0	0	84.5316	0.39536	0.394898	0.0240644	5	0.000160005	13	0	4.4397	9.50299e-06	16410
2	1	0	1	0	0	84.9311	0.399355	0.398926	0.0365061	5	0.000172495	13	0	4.8392	1.45632e-05	10927.6
2	1	0	1	0	0	85.3307	0.403351	0.402902	0.0269671	5	0.000184892	13	0	5.2388	1.08651e-05	14940.5
2	1	0	1	0	0	85.7302	0.407346	0.406927	0.0310218	5	0.000197108	13	0	5.6383	1.26236e-05	13117.5
2	1	0	1	0	0	86.1297	0.411341	0.410822	0.0323149	5	0.000209151	13	0	6.0378	1.32757e-05	12713.1
2	1	0	1	0	0	86.5293	0.415337	0.414867	0.0243926	5	0.000221144	13	0	6.4374	1.01197e-05	17008
2	1	0	1	0	0	86.9288	0.419333	0.418902	0.0367379	5	0.000233031	13	0	6.8369	1.53896e-05	11402.5
2	1	0	1	0	0	87.3283	0.423327	0.422859	0.0222817	5	0.00024482	13	0	7.2364	9.42201e-06	18977.8
2	1	0	1	0	0	87.7279	0.427322	0.426889	0.034196	5	0.000256467	13	0	7.636	1.45979e-05	12483.6
2	1	0	1	0	0	88.1273	0.431318	0.430835	0.02651	5	0.000268041	13	0	8.0354	1.14214e-05	16251.8
2	1	0	1	0	0	88.5269	0.435313	0.434908	0.0273998	5	0.000279481	13	0	8.435	1.19164e-05	15872.7
2	1	0	1	0	0	88.9264	0.439308	0.438868	0.0330339	5	0.00029086	13	0	8.8345	1.44975e-05	13285.4
2	1	0	1	0	0	89.3259	0.443303	0.442862	0.0215815	5	0.000302131	13	0	9.234	9.55761e-06	20520.4
2	1	0	1	0	0	89.7255	0.447299	0.44686	0.034998	5	0.000313344	13	0	9.6336	1.56392e-05	12768.2
2	0	0	1	0	0	90.1007	0.448947	0.448466	-0.0239142	5	0.00031916	12	0	0.0649	-1.07247e-05	18753.1
2	0	0	1	0	0	90.5302	0.444653	0.44418	-0.0244393	5	0.000309841	13	0	0.4944	-1.08554e-05	18174.8
2	0	0	1	0	0	90.9297	0.440657	0.440138	-0.0194663	5	0.000300167	13	0	0.8939	-8.56787e-06	22610.2
2	0	0	1	0	0	91.3293	0.436661	0.436183	-0.0323072	5	0.000290095	13	0	1.2935	-1.40919e-05	13501.1
2	0	0	1	0	0	91.7288	0.432666	0.432207	-0.0193927	5	0.000279784	13	0	1.693	-8.38167e-06	22287.1
2	0	0	1	0	0	92.1283	0.428671	0.428169	-0.0299602	5	0.000269236	13	0	2.0925	-1.2828e-05	14291.3
2	0	0	1	0	0	92.5279	0.424675	0.424208	-0.0274803	5	0.000258414	13	0	2.4921	-1.16574e-05	15436.8
2	0	0	1	0	0	92.9274	0.420679	0.420211	-0.0232589	5	0.000247426	13	0	2.8916	-9.77366e-06	18066.7
2	0	0	1	0	0	93.3269	0.416685	0.416199	-0.0345228	5	0.000236216	13	0	3.2911	-1.43683e-05	12055.8
2	0	0	1	0	0	93.7265	0.41269	0.412203	-0.021144	5	0.000224795	13	0	3.6907	-8.7156e-06	19495.1
2	0	0	1	0	0	94.1259	0.408694	0.408169	-0.034428	5	0.000213196	13	0	4.0901	-1.40525e-05	11855.7
2	0	0	1	0	0	94.5255	0.404699	0.404237	-0.0282324	5	0.000201433	13	0	4.4897	-1.14126e-05	14318.2
2	0	0	1	0	0	94.925	0.400704	0.400197	-0.0265206	5	0.000189429	13	0	4.8892	-1.06135e-05	15090
2	0	0	1	0	0	95.3245	0.396709	0.396241	-0.0374727	5	0.000177183	13	0	5.2887	-1.48482e-05	10574.1
2	0	0	1	0	0	95.7241	0.392713	0.392197	-0.0238996	5	0.000164712	13	0	5.6883	-9.37336e-06	16410.1
2	0	0	1	0	0	96.1236	0.388718	0.38823	-0.0371628	5	0.000152046	13	0	6.0878	-1.44277e-05	10446.7
2	0	0	1	0	0	96.5231	0.384723	0.384294	-0.0310835	5	0.000139111	13	0	6.4873	-1.19452e-05	12363.3
2	0	0	1	0	0	96.9227	0.380728	0.380276	-0.0297785	5	0.00012597	13	0	6.8869	-1.13241e-05	12770.1
2	0	0	1	0	0	97.3221	0.376732	0.376278	-0.0406254	5	0.000112549	13	0	7.2863	-1.52864e-05	9262.14
2	0	0	1	0	0	97.7217	0.372737	0.372276	-0.0269944	5	9.88511e-05	13	0	7.6859	-1.00494e-05	13790.9
2	0	0	1	0	0	98.1212	0.368743	0.368243	-0.0409436	5	8.49182e-05	13	0	8.0854	-1.50772e-05	8993.91
2	0	0	1	0	0	98.5207	0.364747	0.364259	-0.0348664	5	7.06605e-05	13	0	8.4849	-1.27004e-05	10447.3
2	0	0	1	0	0	98.9203	0.360751	0.360281	-0.0329786	5	5.6111e-05	13	0	8.8845	-1.18816e-05	10924.7
2	0	0	1	0	0	99.3198	0.356756	0.35632	-0.0448388	5	4.1251e-05	13	0	9.284	-1.59769e-05	7946.68
2	0	0	1	0	0	99.7193	0.352761	0.352325	-0.0308218	5	2.61117e-05	13	0	9.6835	-1.08593e-05	11431
2	0	0	1	0	1	100.025	0.350314	0.349836	-0.00331926	6	1.53456e-05	13	0	9.9897	-1.16119e-06	105396
2	1	0	1	0	1	100.485	0.354908	0.354491	0.0382099	6	2.89138e-05	13	0	0.3945	1.3545e-05	9277.47
2	1	0	1	0	1	100.884	0.358903	0.358505	0.0261975	6	4.21708e-05	13	0	0.794	9.39194e-06	13684.7
2	1	0	1	0	1	101.284	0.362899	0.362497	0.0407822	6	5.55951e-05	13	0	1.1936	1.47834e-05	8888.61
2	1	0	1	0	1	101.684	0.366894	0.366431	0.0303793	6	6.9038e-05	13	0	1.5931	1.11319e-05	12061.9
2	1	0	1	0	1	102.083	0.370889	0.370443	0.0318723	6	8.24107e-05	13	0	1.9926	1.18069e-05	11622.7
2	1	0	1	0	1	102.483	0.374884	0.374437	0.039496	6	9.57002e-05	13	0	2.3922	1.47888e-05	9480.38
2	1	0	1	0	1	102.882	0.37888	0.37842	0.0251	6	0.000108857	13	0	2.7916	9.49834e-06	15076.5
2	1	0	1	0	1	103.282	0.382875	0.382462	0.0381427	6	0.000121862	13	0	3.1912	1.45882e-05	10027.1
2	1	0	1	0	1	103.681	0.386869	0.386373	0.0308974	6	0.000134765	13	0	3.5907	1.19379e-05	12505
2	1	0	1	0	1	104.081	0.390866	0.390441	0.0281661	6	0.000147528	13	0	3.9902	1.09972e-05	13862.1
2	1	0	1	0	1	104.48	0.394861	0.394415	0.0383627	6	0.00016016	13	0	4.3898	1.51308e-05	10281.2
2	1	0	1	0	1	104.88	0.398856	0.398396	0.0241044	6	0.000172642	13	0	4.7893	9.60308e-06	16528
2	1	0	1	0	1	105.279	0.402851	0.402435	0.0355934	6	0.000185008	13	0	5.1888	1.4324e-05	11306.4
2	1	0	1	0	1	105.679	0.406847	0.406399	0.0300721	6	0.000197252	13	0	5.5884	1.22213e-05	13514.2
2	1	0	1	0	1	106.078	0.410843	0.410365	0.0257463	6	0.000209273	13	0	5.9879	1.05654e-05	15938.8
2	1	0	1	0	1	106.478	0.414837	0.414348	0.0367712	6	0.000221272	13	0	6.3874	1.52361e-05	11268.3
2	1	0	1	0	1	106.877	0.418832	0.4184	0.0225348	6	0.000233146	13	0	6.787	9.42857e-06	18566.8
2	1	0	1	0	1	107.277	0.422828	0.422399	0.0341525	6	0.000244915	13	0	7.1864	1.4426e-05	12368
2	1	0	1	0	1	107.676	0.426823	0.426361	0.0283303	6	0.000256591	13	0	7.586	1.20789e-05	15049.7
2	1	0	1	0	1	108.076	0.430818	0.430332	0.0251788	6	0.000268127	13	0	7.9855	1.08352e-05	17091
2	1	0	1	0	1	108.475	0.434813	0.434357	0.035363	6	0.000279591	13	0	8.385	1.53602e-05	12282.8
2	1	0	1	0	1	108.875	0.438809	0.43836	0.0214771	6	0.000290963	13	0	8.7846	9.41469e-06	20410.6
2	1	0	1	0	1	109.275	0.442804	0.442366	0.0328721	6	0.000302248	13	0	9.1841	1.45415e-05	13457.2
2	1	0	1	0	1	109.674	0.446799	0.446342	0.0266339	6	0.000313471	13	0	9.5836	1.18878e-05	16758.5
2	1	0	1	0	1	110.034	0.449596	0.44912	-0.011385	6	0.000322147	13	0	0.000000000000000E+000	-5.11321e-06	39448.6
2	0	0	1	0	1	110.479	0.445151	0.444655	-0.0166551	6	0.000312646	13	0	0.4445	-7.40577e-06	26697.8
2	0	0	1	0	1	110.878	0.441156	0.440667	-0.031497	6	0.000303032	13	0	0.844	-1.38797e-05	13990.8
2	0	0	1	0	1	111.278	0.437161	0.436695	-0.0218546	6	0.000293007	13	0	1.2435	-9.54376e-06	19981.9
2	0	0	1	0	1	111.677	0.433165	0.432644	-0.0260937	6	0.000282743	13	0	1.6431	-1.12893e-05	16580.4
2	0	0	1	0	1	112.077	0.429169	0.428661	-0.0314294	6	0.000272216	13	0	2.0426	-1.34726e-05	13638.8
2	0	0	1	0	1	112.476	0.425175	0.424663	-0.0205769	6	0.000261452	13	0	2.4421	-8.73825e-06	20637.9
2	0	0	1	0	1	112.876	0.42118	0.420641	-0.0349745	6	0.000250494	13	0	2.8417	-1.47117e-05	12027.1
2	0	0	1	0	1	113.275	0.417184	0.416689	-0.0240924	6	0.000239304	13	0	3.2411	-1.0039e-05	17295.5
2	0	0	1	0	1	113.675	0.413189	0.412662	-0.0291943	6	0.000227947	13	0	3.6407	-1.20474e-05	14135
2	0	0	1	0	1	114.075	0.409195	0.408681	-0.0337478	6	0.000216368	13	0	4.0402	-1.3792e-05	12109.9
2	0	0	1	0	1	114.474	0.405199	0.404713	-0.0232862	6	0.000204679	13	0	4.4397	-9.42423e-06	17380
2	0	0	1	0	1	114.874	0.401203	0.400734	-0.0378911	6	0.000192706	13	0	4.8393	-1.51842e-05	10575.9
2	0	0	1	0	1	115.273	0.397208	0.396761	-0.0255286	6	0.000180509	13	0	5.2388	-1.01288e-05	15541.8
2	0	0	1	0	1	115.673	0.393213	0.392769	-0.0338202	6	0.000168104	13	0	5.6383	-1.32835e-05	11613.5
2	0	0	1	0	1	116.072	0.389217	0.388746	-0.0345103	6	0.00015545	13	0	6.0379	-1.34157e-05	11264.6
2	0	0	1	0	1	116.472	0.385221	0.384738	-0.0266036	6	0.000142586	13	0	6.4374	-1.02354e-05	14461.9
2	0	0	1	0	1	116.871	0.381227	0.38076	-0.0407787	6	0.0001295	13	0	6.8369	-1.55269e-05	9337.22
2	0	0	1	0	1	117.271	0.377232	0.376773	-0.0271516	6	0.000116148	13	0	7.2365	-1.023e-05	13876.7
2	0	0	1	0	1	117.67	0.373237	0.372791	-0.0395418	6	0.000102529	13	0	7.6359	-1.47408e-05	9427.79
2	0	0	1	0	1	118.07	0.369241	0.368856	-0.0342657	6	8.8614e-05	13	0	8.0355	-1.26391e-05	10764.6
2	0	0	1	0	1	118.469	0.365246	0.364755	-0.032818	6	7.44545e-05	13	0	8.435	-1.19705e-05	11114.5
2	0	0	1	0	1	118.869	0.361251	0.360819	-0.0428754	6	5.99532e-05	13	0	8.8345	-1.54703e-05	8415.54
2	0	0	1	0	1	119.268	0.357255	0.356789	-0.030011	6	4.51674e-05	13	0	9.2341	-1.07076e-05	11888.6
2	0	0	1	0	1	119.668	0.35326	0.352774	-0.0456639	6	3.00908e-05	13	0	9.6336	-1.61091e-05	7725.44
2	0	0	0	0	0	119.997	0.350039	0.349572	-0.0418484	7	1.75649e-05	13	0	9.9622	-1.4629e-05	8353.3
2	1	0	1	0	0	120.434	0.354409	0.354027	0.0296003	7	2.93464e-05	13	0	0.3446	1.04793e-05	11960.2
2	1	0	1	0	0	120.833	0.358404	0.357929	0.0397257	7	4.2573e-05	13	0	0.7441	1.4219e-05	9010.01
2	1	0	1	0	0	121.233	0.362399	0.361967	0.0259272	7	5.59773e-05	13	0	1.1436	9.38481e-06	13960.9
2	1	0	1	0	0	121.632	0.366395	0.365936	0.0403059	7	6.93985e-05	13	0	1.5432	1.47494e-05	9078.97
2	1	0	1	0	0	122.032	0.370391	0.369953	0.0280557	7	8.27853e-05	13	0	1.9427	1.03793e-05	13186.4
2	1	0	1	0	0	122.431	0.374385	0.373966	0.0341425	7	9.60423e-05	13	0	2.3422	1.27681e-05	10953.1
2	1	0	1	0	0	122.831	0.37838	0.377943	0.0360839	7	0.000109222	13	0	2.7418	1.36377e-05	10474
2	1	0	1	0	0	123.23	0.382376	0.381929	0.0255825	7	0.000122209	13	0	3.1412	9.77072e-06	14929.3
2	1	0	1	0	0	123.63	0.386371	0.38592	0.0394255	7	0.000135091	13	0	3.5408	1.52151e-05	9788.6
2	1	0	1	0	0	124.029	0.390366	0.389877	0.0247877	7	0.000147864	13	0	3.9403	9.66414e-06	15728.7
2	1	0	1	0	0	124.429	0.394361	0.393937	0.036489	7	0.000160475	13	0	4.3398	1.43743e-05	10796.1
2	1	0	1	0	0	124.828	0.398357	0.397867	0.0291019	7	0.000172983	13	0	4.7394	1.15787e-05	13671.5
2	1	0	1	0	0	125.228	0.402353	0.401905	0.0283172	7	0.000185334	13	0	5.1389	1.13808e-05	14193
2	1	0	1	0	0	125.627	0.406347	0.405878	0.0364527	7	0.000197574	13	0	5.5384	1.47954e-05	11134.4
2	1	0	1	0	0	126.027	0.410342	0.409906	0.0228335	7	0.000209605	13	0	5.938	9.3596e-06	17952
2	1	0	1	0	0	126.426	0.414338	0.413846	0.03621	7	0.000221577	13	0	6.3374	1.49854e-05	11429
2	1	0	1	0	0	126.826	0.418333	0.417847	0.0269223	7	0.000233467	13	0	6.737	1.12494e-05	15520.5
2	1	0	1	0	0	127.226	0.422327	0.421924	0.0268905	7	0.000245232	13	0	7.1365	1.13458e-05	15690.4
2	1	0	1	0	0	127.625	0.426323	0.425881	0.0353101	7	0.000256894	13	0	7.536	1.50379e-05	12061.2
2	1	0	1	0	0	128.025	0.430319	0.429875	0.0214079	7	0.000268457	13	0	7.9356	9.20269e-06	20080.2
2	1	0	1	0	0	128.424	0.434314	0.433871	0.0339943	7	0.000279892	13	0	8.3351	1.47492e-05	12763
2	1	0	1	0	0	128.824	0.438309	0.437859	0.0273774	7	0.000291275	13	0	8.7346	1.19874e-05	15993.5
2	1	0	1	0	0	129.223	0.442305	0.441843	0.0246141	7	0.000302553	13	0	9.1342	1.08756e-05	17950.8
2	1	0	1	0	0	129.623	0.446301	0.445837	0.0347218	7	0.000313755	13	0	9.5337	1.54803e-05	12840.3
2	1	0	0	0	0	129.991	0.450021	0.449554	0.0329465	7	0.000324124	13	0	9.9015	1.48112e-05	13645
2	0	0	1	0	0	130.427	0.445651	0.445177	-0.0210484	7	0.000315327	13	0	0.3945	-9.37027e-06	21150.2
2	0	0	1	0	0	130.827	0.441655	0.441177	-0.022966	7	0.000305794	13	0	0.7941	-1.01321e-05	19210
2	0	0	1	0	0	131.227	0.43766	0.437202	-0.0312938	7	0.000295816	13	0	1.1936	-1.36817e-05	13970.9
2	0	0	1	0	0	131.626	0.433665	0.433144	-0.0193118	7	0.000285572	13	0	1.5931	-8.3648e-06	22429
2	0	0	1	0	0	132.026	0.42967	0.429188	-0.0328561	7	0.000275101	13	0	1.9927	-1.41014e-05	13062.6
2	0	0	1	0	0	132.425	0.425674	0.425159	-0.0242795	7	0.000264367	13	0	2.3921	-1.03226e-05	17511.1
2	0	0	1	0	0	132.825	0.421679	0.421165	-0.027088	7	0.000253456	13	0	2.7917	-1.14085e-05	15548
2	0	0	1	0	0	133.224	0.417685	0.417158	-0.0332006	7	0.000242295	13	0	3.1912	-1.38499e-05	12564.8
2	0	0	1	0	0	133.624	0.413688	0.413187	-0.0221392	7	0.000230976	13	0	3.5907	-9.14763e-06	18663.1
2	0	0	1	0	0	134.023	0.409693	0.409171	-0.0365322	7	0.000219452	13	0	3.9903	-1.49479e-05	11200.3
2	0	0	1	0	0	134.423	0.405698	0.405241	-0.0239388	7	0.000207787	13	0	4.3898	-9.70099e-06	16928.2
2	0	0	1	0	0	134.822	0.401703	0.401192	-0.0358693	7	0.000195871	13	0	4.7893	-1.43905e-05	11184.8
2	0	0	1	0	0	135.222	0.397707	0.397231	-0.0259893	7	0.000183718	13	0	5.1889	-1.03238e-05	15284.4
2	0	0	1	0	0	135.621	0.393712	0.393235	-0.0356815	7	0.000171359	13	0	5.5884	-1.40312e-05	11020.7
2	0	0	1	0	0	136.021	0.389717	0.38923	-0.0287999	7	0.000158767	13	0	5.9879	-1.12098e-05	13515
2	0	0	1	0	0	136.42	0.385722	0.385233	-0.0351011	7	0.000145944	13	0	6.3875	-1.35221e-05	10974.9
2	0	0	1	0	0	136.82	0.381726	0.38124	-0.0312681	7	0.000132906	13	0	6.7869	-1.19207e-05	12192.6
2	0	0	1	0	0	137.219	0.377731	0.377234	-0.0349856	7	0.000119624	13	0	7.1865	-1.31978e-05	10782.5
2	0	0	1	0	0	137.619	0.373737	0.373235	-0.0346261	7	0.000106045	13	0	7.586	-1.29237e-05	10779
2	0	0	1	0	0	138.018	0.369741	0.369209	-0.0335545	7	9.22285e-05	13	0	7.9855	-1.23886e-05	11003.3
2	0	0	1	0	0	138.418	0.365745	0.365296	-0.0400578	7	7.8092e-05	13	0	8.3851	-1.46329e-05	9119.24
2	0	0	1	0	0	138.818	0.36175	0.361249	-0.0311681	7	6.36819e-05	13	0	8.7846	-1.12594e-05	11590.4
2	0	0	1	0	0	139.217	0.357755	0.357278	-0.0439076	7	4.89593e-05	13	0	9.1841	-1.56872e-05	8137.04
2	0	0	1	0	0	139.617	0.35376	0.353277	-0.0314369	7	3.3948e-05	13	0	9.5837	-1.11059e-05	11237.6
2	0	0	1	0	0	139.99	0.349989	0.349629	-0.0330062	7	1.97538e-05	13	0	9.9572	-1.15399e-05	10592.8
2	1	0	1	0	1	140.382	0.353909	0.353473	0.0257192	8	2.97611e-05	13	0	0.2946	9.09103e-06	13743.6
2	1	0	1	0	1	140.782	0.357905	0.357478	0.0385742	8	4.29005e-05	13	0	0.6942	1.37894e-05	9267.28
2	1	0	1	0	1	141.181	0.361901	0.361418	0.029118	8	5.63038e-05	13	0	1.0937	1.05238e-05	12412.2
2	1	0	1	0	1	141.581	0.365895	0.365455	0.0364015	8	6.9723e-05	13	0	1.4932	1.33031e-05	10039.6
2	1	0	1	0	1	141.98	0.36989	0.369445	0.0309884	8	8.30927e-05	13	0	1.8928	1.14485e-05	11922
2	1	0	1	0	1	142.38	0.373886	0.373477	0.0337976	8	9.63363e-05	13	0	2.2922	1.26226e-05	11050.4
2	1	0	1	0	1	142.779	0.377881	0.377399	0.0328566	8	0.000109517	13	0	2.6918	1.24001e-05	11486.3
2	1	0	1	0	1	143.179	0.381876	0.381395	0.0301364	8	0.000122516	13	0	3.0913	1.14939e-05	12655.6
2	1	0	1	0	1	143.578	0.385871	0.385416	0.0348632	8	0.000135392	13	0	3.4908	1.34368e-05	11055.1
2	1	0	1	0	1	143.978	0.389867	0.389472	0.0269317	8	0.000148157	13	0	3.8904	1.04891e-05	14461.5
2	1	0	1	0	1	144.378	0.393862	0.393408	0.0367994	8	0.000160779	13	0	4.2899	1.44772e-05	10690.6
2	1	0	1	0	1	144.777	0.397857	0.397432	0.0243834	8	0.000173276	13	0	4.6894	9.69073e-06	16299.3
2	1	0	1	0	1	145.177	0.401853	0.401386	0.0372961	8	0.000185631	13	0	5.089	1.49702e-05	10762.1
2	1	0	1	0	1	145.576	0.405848	0.40536	0.0230111	8	0.000197852	13	0	5.4884	9.32778e-06	17615.8
2	1	0	1	0	1	145.976	0.409843	0.409414	0.037	8	0.000209884	13	0	5.888	1.51483e-05	11065.2
2	1	0	1	0	1	146.375	0.413838	0.413357	0.0222954	8	0.000221866	13	0	6.2876	9.21596e-06	18540
2	1	0	1	0	1	146.775	0.417834	0.417354	0.0362206	8	0.000233728	13	0	6.687	1.51168e-05	11522.6
2	1	0	1	0	1	147.174	0.421829	0.421351	0.0222392	8	0.000245506	13	0	7.0866	9.37051e-06	18946.4
2	1	0	1	0	1	147.574	0.425824	0.425336	0.0350787	8	0.000257154	13	0	7.4861	1.49202e-05	12125.2
2	1	0	1	0	1	147.973	0.429819	0.429335	0.0226546	8	0.00026873	13	0	7.8856	9.72644e-06	18951.3
2	1	0	1	0	1	148.373	0.433815	0.433344	0.0332346	8	0.000280159	13	0	8.2852	1.4402e-05	13039
2	1	0	1	0	1	148.772	0.437811	0.43733	0.0237808	8	0.000291534	13	0	8.6847	1.04e-05	18390.1
2	1	0	1	0	1	149.172	0.441805	0.441357	0.031583	8	0.000302824	13	0	9.0842	1.39394e-05	13974.5
2	1	0	1	0	1	149.571	0.4458	0.445311	0.024841	8	0.000314023	13	0	9.4838	1.1062e-05	17926.5
2	1	0	1	0	1	149.968	0.449771	0.44932	0.0308626	8	0.000325093	13	0	9.8807	1.38672e-05	14558.7
2	0	0	1	0	1	150.376	0.44615	0.445655	-0.0211147	8	0.00031833	13	0	0.3446	-9.40986e-06	21106.4
2	0	0	1	0	1	150.776	0.442155	0.441645	-0.0273849	8	0.00030883	13	0	0.7441	-1.20944e-05	16127.3
2	0	0	1	0	1	151.175	0.438159	0.437659	-0.0213545	8	0.000298911	13	0	1.1437	-9.34597e-06	20495
2	0	0	1	0	1	151.575	0.434163	0.433651	-0.030791	8	0.000288695	13	0	1.5432	-1.33525e-05	14083.7
2	0	0	1	0	1	151.974	0.430169	0.429667	-0.0211028	8	0.000278246	13	0	1.9427	-9.06717e-06	20360.7
2	0	0	1	0	1	152.374	0.426174	0.425684	-0.0331738	8	0.000267566	13	0	2.3423	-1.41215e-05	12831.9
2	0	0	1	0	1	152.773	0.422178	0.421617	-0.0211052	8	0.000256678	13	0	2.7417	-8.89833e-06	19976.9
2	0	0	1	0	1	153.173	0.418183	0.417693	-0.0352378	8	0.000245564	13	0	3.1413	-1.47186e-05	11853.6
2	0	0	1	0	1	153.572	0.414188	0.413635	-0.0212221	8	0.000234279	13	0	3.5408	-8.77821e-06	19490.8
2	0	0	1	0	1	153.972	0.410193	0.409652	-0.0362662	8	0.000222789	13	0	3.9403	-1.48565e-05	11295.7
2	0	0	1	0	1	154.371	0.406197	0.405768	-0.0226226	8	0.00021117	13	0	4.3399	-9.17951e-06	17936.4
2	0	0	1	0	1	154.771	0.402202	0.401731	-0.0366162	8	0.000199294	13	0	4.7394	-1.47099e-05	10971.4
2	0	0	1	0	1	155.17	0.398207	0.397757	-0.0248246	8	0.000187183	13	0	5.1389	-9.87415e-06	16022.7
2	0	0	1	0	1	155.57	0.394212	0.393746	-0.0358447	8	0.000174883	13	0	5.5385	-1.41137e-05	10984.8
2	0	0	1	0	1	155.969	0.390216	0.389738	-0.0283348	8	0.000162347	13	0	5.9379	-1.10431e-05	13754.8
2	0	0	1	0	1	156.369	0.386221	0.385747	-0.0341903	8	0.000149577	13	0	6.3375	-1.31888e-05	11282.3
2	0	0	1	0	1	156.769	0.382227	0.381781	-0.0324925	8	0.000136571	13	0	6.737	-1.24051e-05	11749.8
2	0	0	1	0	1	157.168	0.378231	0.377732	-0.0324667	8	0.000123366	13	0	7.1365	-1.22637e-05	11634.4
2	0	0	1	0	1	157.568	0.374235	0.373763	-0.0365431	8	0.000109831	13	0	7.5361	-1.36584e-05	10228
2	0	0	1	0	1	157.967	0.37024	0.369795	-0.0310182	8	9.60744e-05	13	0	7.9356	-1.14704e-05	11921.9
2	0	0	1	0	1	158.367	0.366245	0.365776	-0.0407062	8	8.19947e-05	13	0	8.3351	-1.48894e-05	8985.77
2	0	0	1	0	1	158.766	0.362249	0.361759	-0.0292552	8	6.76513e-05	13	0	8.7347	-1.05833e-05	12365.6
2	0	0	1	0	1	159.166	0.358254	0.357788	-0.0447382	8	5.29984e-05	13	0	9.1342	-1.60068e-05	7997.37
2	0	0	1	0	1	159.565	0.354259	0.353767	-0.0312654	8	3.80402e-05	13	0	9.5337	-1.10607e-05	11315
2	0	0	1	0	1	159.965	0.350264	0.34978	-0.041975	8	2.27585e-05	13	0	9.9333	-1.4682e-05	8333.06
2	1	0	1	0	0	160.331	0.35341	0.352961	0.0381864	9	3.01889e-05	13	0	0.2447	1.34783e-05	9243.11
2	1	0	1	0	0	160.73	0.357405	0.356947	0.0256193	9	4.32569e-05	13	0	0.6442	9.14472e-06	13932.8
2	1	0	1	0	0	161.13	0.3614	0.360958	0.0399483	9	5.66107e-05	13	0	1.0438	1.44197e-05	9035.64
2	1	0	1	0	0	161.529	0.365396	0.364913	0.0309957	9	7.00435e-05	13	0	1.4432	1.13107e-05	11773
2	1	0	1	0	0	161.929	0.369391	0.368931	0.0309675	9	8.33821e-05	13	0	1.8428	1.14249e-05	11913.5
2	1	0	1	0	0	162.329	0.373386	0.372886	0.0396188	9	9.66542e-05	13	0	2.2423	1.47733e-05	9411.84
2	1	0	1	0	0	162.728	0.377382	0.37696	0.0254551	9	0.000109821	13	0	2.6418	9.59554e-06	14808.8
2	1	0	1	0	0	163.128	0.381377	0.380949	0.0381531	9	0.000122828	13	0	3.0414	1.45344e-05	9984.74
2	1	0	1	0	0	163.527	0.385372	0.38489	0.0308459	9	0.000135723	13	0	3.4409	1.18723e-05	12477.9
2	1	0	1	0	0	163.927	0.389367	0.388983	0.0276324	9	0.000148461	13	0	3.8404	1.07486e-05	14077.1
2	1	0	1	0	0	164.326	0.393363	0.392944	0.0389525	9	0.000161088	13	0	4.24	1.53061e-05	10087.8
2	1	0	1	0	0	164.726	0.397359	0.396912	0.0248836	9	0.000173596	13	0	4.6395	9.8766e-06	15950.7
2	1	0	1	0	0	165.125	0.401353	0.400939	0.0332399	9	0.000185931	13	0	5.039	1.33272e-05	12062
2	1	0	1	0	0	165.525	0.405348	0.40492	0.0338619	9	0.000198173	13	0	5.4386	1.37113e-05	11958
2	1	0	1	0	0	165.924	0.409344	0.408924	0.0238315	9	0.000210192	13	0	5.838	9.74526e-06	17159
2	1	0	1	0	0	166.324	0.413339	0.412872	0.0370051	9	0.000222171	13	0	6.2376	1.52784e-05	11157.2
2	1	0	1	0	0	166.723	0.417334	0.416881	0.0258286	9	0.000234055	13	0	6.6371	1.07674e-05	16140.3
2	1	0	1	0	0	167.123	0.421329	0.420919	0.0277282	9	0.0002458	13	0	7.0366	1.16713e-05	15180.2
2	1	0	1	0	0	167.522	0.425325	0.42489	0.0356123	9	0.000257465	13	0	7.4362	1.51313e-05	11931
2	1	0	1	0	0	167.922	0.42932	0.428902	0.022174	9	0.000269032	13	0	7.8357	9.51045e-06	19342.6
2	1	0	1	0	0	168.321	0.433315	0.432843	0.0326129	9	0.00028046	13	0	8.2352	1.41163e-05	13272.2
2	1	0	1	0	0	168.721	0.43731	0.436837	0.0300122	9	0.000291829	13	0	8.6348	1.31104e-05	14555.3
2	1	0	1	0	0	169.12	0.441306	0.440885	0.0230955	9	0.000303105	13	0	9.0342	1.01825e-05	19089.7
2	1	0	1	0	0	169.52	0.445301	0.444867	0.0355006	9	0.000314312	13	0	9.4338	1.5793e-05	12531.2
2	1	0	1	0	0	169.92	0.449295	0.448897	0.0227557	9	0.000325443	13	0	9.8333	1.0215e-05	19726.8
2	0	0	1	0	0	170.325	0.446649	0.446144	-0.0252856	9	0.000321025	13	0	0.2947	-1.1281e-05	17644.2
2	0	0	1	0	0	170.724	0.442653	0.442117	-0.018084	9	0.000311619	13	0	0.6942	-7.99526e-06	24447.9
2	0	0	1	0	0	171.124	0.438659	0.438171	-0.0322935	9	0.000301764	13	0	1.0937	-1.41501e-05	13568.4
2	0	0	1	0	0	171.523	0.434664	0.434179	-0.0210897	9	0.000291595	13	0	1.4933	-9.1567e-06	20587.2
2	0	0	1	0	0	171.923	0.430668	0.430104	-0.0270431	9	0.000281207	13	0	1.8927	-1.16314e-05	15904.3
2	0	0	1	0	0	172.322	0.426673	0.426178	-0.0316554	9	0.000270556	13	0	2.2923	-1.34908e-05	13463.1
2	0	0	1	0	0	172.722	0.422678	0.422137	-0.0202673	9	0.000259714	13	0	2.6918	-8.55558e-06	20828.5
2	0	0	1	0	0	173.121	0.418683	0.418185	-0.0336843	9	0.000248648	13	0	3.0913	-1.40862e-05	12414.8
2	0	0	1	0	0	173.521	0.414687	0.414185	-0.0275112	9	0.000237383	13	0	3.4909	-1.13947e-05	15055.1
2	0	0	1	0	0	173.921	0.410692	0.410137	-0.0241272	9	0.000225938	13	0	3.8904	-9.89548e-06	16998.9
2	0	0	1	0	0	174.32	0.406697	0.406209	-0.036628	9	0.000214355	13	0	4.2899	-1.48786e-05	11090.1
2	0	0	1	0	0	174.72	0.402701	0.402163	-0.0238057	9	0.000202504	13	0	4.6895	-9.57378e-06	16893.6
2	0	0	1	0	0	175.119	0.398705	0.398235	-0.0318089	9	0.00019046	13	0	5.089	-1.26674e-05	12519.6
2	0	0	1	0	0	175.519	0.394711	0.394247	-0.0357322	9	0.000178174	13	0	5.4885	-1.40873e-05	11033.4
2	0	0	1	0	0	175.918	0.390716	0.390258	-0.0241054	9	0.00016569	13	0	5.8881	-9.40733e-06	16189.7
2	0	0	1	0	0	176.318	0.38672	0.386228	-0.0380525	9	0.000152964	13	0	6.2875	-1.46969e-05	10149.9
2	0	0	1	0	0	176.717	0.382725	0.38224	-0.0318733	9	0.000139991	13	0	6.6871	-1.21832e-05	11992.5
2	0	0	1	0	0	177.117	0.37873	0.378271	-0.0281988	9	0.000126826	13	0	7.0866	-1.06668e-05	13414.4
2	0	0	1	0	0	177.516	0.374735	0.374232	-0.0415559	9	0.000113358	13	0	7.4861	-1.55515e-05	9005.5
2	0	0	1	0	0	177.916	0.370739	0.370226	-0.0283797	9	9.96322e-05	13	0	7.8857	-1.05069e-05	13045.4
2	0	0	1	0	0	178.315	0.366744	0.366248	-0.0373326	9	8.563e-05	13	0	8.2852	-1.3673e-05	9810.39
2	0	0	1	0	0	178.715	0.362749	0.362256	-0.0404555	9	7.1313e-05	13	0	8.6847	-1.46552e-05	8954.41
2	0	0	1	0	0	179.114	0.358754	0.358261	-0.0294445	9	5.67258e-05	13	0	9.0843	-1.05488e-05	12167.3
2	0	0	1	0	0	179.514	0.354758	0.354339	-0.0446222	9	4.18429e-05	13	0	9.4837	-1.58114e-05	7940.85
2	0	0	1	0	0	179.913	0.350763	0.350295	-0.0368037	9	2.65868e-05	13	0	9.8833	-1.28922e-05	9517.95
2	1	0	1	0	1	180.28	0.352911	0.352487	0.0245786	10	3.05191e-05	13	0	0.1948	8.66363e-06	14341.2
2	1	0	1	0	1	180.679	0.356907	0.356461	0.0398505	10	4.35223e-05	13	0	0.5943	1.42052e-05	8944.97
2	1	0	1	0	1	181.079	0.360901	0.360522	0.0315946	10	5.68651e-05	13	0	0.9938	1.13906e-05	11410.9
2	1	0	1	0	1	181.478	0.364895	0.364459	0.03028	10	7.02509e-05	13	0	1.3933	1.10358e-05	12036.3
2	1	0	1	0	1	181.878	0.368892	0.368457	0.0405461	10	8.36129e-05	13	0	1.7928	1.49395e-05	9087.36
2	1	0	1	0	1	182.277	0.372887	0.372417	0.0256738	10	9.68807e-05	13	0	2.1924	9.56137e-06	14505.7
2	1	0	1	0	1	182.677	0.376882	0.376461	0.0373704	10	0.000110029	13	0	2.5919	1.40685e-05	10073.8
2	1	0	1	0	1	183.076	0.380877	0.380409	0.0329866	10	0.000123069	13	0	2.9914	1.25484e-05	11532.2
2	1	0	1	0	1	183.476	0.384873	0.38442	0.0268799	10	0.000135934	13	0	3.391	1.03332e-05	14301.4
2	1	0	1	0	1	183.875	0.388869	0.388421	0.039216	10	0.000148686	13	0	3.7905	1.52323e-05	9904.67
2	1	0	1	0	1	184.275	0.392863	0.392383	0.0247571	10	0.000161309	13	0	4.19	9.71426e-06	15849.3
2	1	0	1	0	1	184.674	0.396858	0.396434	0.0342733	10	0.0001738	13	0	4.5896	1.35871e-05	11566.8
2	1	0	1	0	1	185.074	0.400854	0.400434	0.0325377	10	0.000186169	13	0	4.989	1.30292e-05	12306.7
2	1	0	1	0	1	185.473	0.404849	0.404406	0.0244507	10	0.00019838	13	0	5.3886	9.88802e-06	16539.6
2	1	0	1	0	1	185.873	0.408844	0.408395	0.037321	10	0.000210413	13	0	5.7881	1.52417e-05	10942.8
2	1	0	1	0	1	186.272	0.41284	0.41233	0.023142	10	0.000222406	13	0	6.1876	9.54215e-06	17817.4
2	1	0	1	0	1	186.672	0.416835	0.416362	0.0337182	10	0.000234281	13	0	6.5872	1.4039e-05	12348.3
2	1	0	1	0	1	187.072	0.42083	0.420411	0.0281663	10	0.000246056	13	0	6.9867	1.18414e-05	14926
2	1	0	1	0	1	187.471	0.424825	0.424335	0.0251264	10	0.000257702	13	0	7.3862	1.0662e-05	16888
2	1	0	1	0	1	187.871	0.428821	0.428366	0.0356265	10	0.000269285	13	0	7.7858	1.52612e-05	12023.8
2	1	0	1	0	1	188.27	0.432817	0.432346	0.0221854	10	0.000280742	13	0	8.1853	9.59175e-06	19487.9
2	1	0	1	0	1	188.67	0.436811	0.436367	0.0309863	10	0.000292073	13	0	8.5848	1.35214e-05	14082.6
2	1	0	1	0	1	189.069	0.440806	0.440323	0.02936	10	0.000303384	13	0	8.9844	1.29279e-05	14997.4
2	1	0	1	0	1	189.469	0.444802	0.444321	0.0228367	10	0.000314569	13	0	9.3838	1.01468e-05	19456.4
2	1	0	1	0	1	189.868	0.448797	0.448345	0.0341294	10	0.000325718	13	0	9.7834	1.53017e-05	13136.6
2	0	0	1	0	1	190.273	0.447149	0.446694	-0.0284318	10	0.000323827	13	0	0.2447	-1.27003e-05	15711.1
2	0	0	1	0	1	190.673	0.443154	0.442634	-0.0204734	10	0.000314466	13	0	0.6443	-9.06224e-06	21619.9
2	0	0	1	0	1	191.072	0.439158	0.438618	-0.0246307	10	0.000304686	13	0	1.0437	-1.08035e-05	17807.8
2	0	0	1	0	1	191.472	0.435163	0.434688	-0.0308288	10	0.000294548	13	0	1.4433	-1.34009e-05	14100.1
2	0	0	1	0	1	191.872	0.431169	0.430627	-0.0193539	10	0.000284175	13	0	1.8428	-8.33433e-06	22250.1
2	0	0	1	0	1	192.271	0.427173	0.426659	-0.0334424	10	0.000273576	13	0	2.2423	-1.42685e-05	12758
2	0	0	1	0	1	192.671	0.423177	0.422692	-0.0229696	10	0.000262742	13	0	2.6419	-9.70908e-06	18402.2
2	0	0	1	0	1	193.07	0.419182	0.418681	-0.0293605	10	0.00025173	13	0	3.0414	-1.22927e-05	14260
2	0	0	1	0	1	193.47	0.415187	0.414665	-0.0308903	10	0.000240492	13	0	3.4409	-1.28091e-05	13423.8
2	0	0	1	0	1	193.869	0.411191	0.410655	-0.0234311	10	0.000229068	13	0	3.8405	-9.6221e-06	17526
2	0	0	1	0	1	194.269	0.407196	0.406729	-0.0361715	10	0.000217517	13	0	4.24	-1.4712e-05	11244.5
2	0	0	1	0	1	194.668	0.403201	0.402754	-0.0236564	10	0.000205722	13	0	4.6395	-9.52771e-06	17025.1
2	0	0	1	0	1	195.068	0.399206	0.398742	-0.0337765	10	0.000193701	13	0	5.0391	-1.34681e-05	11805.3
2	0	0	1	0	1	195.467	0.39521	0.394759	-0.0316189	10	0.000181458	13	0	5.4385	-1.24819e-05	12484.9
2	0	0	1	0	1	195.867	0.391215	0.390773	-0.0265728	10	0.000169026	13	0	5.8381	-1.03839e-05	14705.8
2	0	0	1	0	1	196.266	0.38722	0.386761	-0.0392502	10	0.000156339	13	0	6.2376	-1.51805e-05	9853.75
2	0	0	1	0	1	196.666	0.383225	0.382793	-0.0254572	10	0.000143429	13	0	6.6371	-9.74483e-06	15036.7
2	0	0	1	0	1	197.065	0.379229	0.37877	-0.038035	10	0.000130299	13	0	7.0367	-1.44065e-05	9958.45
2	0	0	1	0	1	197.465	0.375234	0.374811	-0.0326174	10	0.000116884	13	0	7.4362	-1.22253e-05	11491.2
2	0	0	1	0	1	197.864	0.371239	0.370766	-0.0320316	10	0.000103233	13	0	7.8357	-1.18762e-05	11575
2	0	0	1	0	1	198.264	0.367244	0.366749	-0.041005	10	8.92527e-05	13	0	8.2353	-1.50386e-05	8944.01
2	0	0	1	0	1	198.663	0.363248	0.362763	-0.0285699	10	7.50304e-05	13	0	8.6347	-1.03641e-05	12697.4
2	0	0	1	0	1	199.063	0.359253	0.358771	-0.043818	10	6.04902e-05	13	0	9.0343	-1.57206e-05	8187.75
2	0	0	1	0	1	199.463	0.355259	0.354808	-0.0317521	10	4.56671e-05	13	0	9.4338	-1.12659e-05	11174.3
2	0	0	1	0	1	199.862	0.351263	0.350807	-0.0407972	10	3.05015e-05	13	0	9.8333	-1.43119e-05	8598.82
2	0	0	0	0	1	199.986	0.349989	0.349629	-0.0331836	10	2.58653e-05	13	0	9.9572	-1.1602e-05	10536.2