File: ACS_Catal_2026/Figures_Na_K/main_figures/data/EC/20251112_2-148_alpha_reproducibility/20251112_2-148_001_alpha_reproducibility_1_K1_02_PEIS_C01.mpt
EC-Lab ASCII FILE
Nb header lines : 63

Potentio Electrochemical Impedance Spectroscopy

Run on channel : 1 (SN 69187)
User :
CE vs. WE compliance from -10 V to 10 V
Electrode connection : standard
Potential control : Ewe
Ewe ctrl range : min = -1.00 V, max = 1.00 V
Safety Limits :
	Do not start on E overload
Acquisition started on : 11/12/2025 13:18:25.019
Loaded Setting File :  C:\Users\User\Documents\EC-Lab\Data\Yatsuzuka\20251030_2-147_gamma_reproducibility\20251030_2-147_001_gamma1_K_1.mps
Saved on :
	File : 20251112_2-148_001_alpha_reproducibility_1_K1_02_PEIS_C01.mpr
	Directory : C:\Users\User\Documents\EC-Lab\Data\Yatsuzuka\20251112_2-148_alpha_reproducibility\
	Host : 192.109.209.127
Device : SP-150e (SN .003883)
Address : 192.109.209.128
EC-LAB for windows v11.52 (software)
Internet server v11.52 (firmware)
Command interpretor v11.50 (firmware)
Electrode material :
Initial state :
Electrolyte :
Comments :
Electrode surface area : 0.001 cm2
Characteristic mass : 0.001 g
Equivalent Weight : 0.000 g/eq.
Density : 0.000 g/cm3
Volume (V) : 0.001 cm3
Cycle Definition : Charge/Discharge alternance
Mode                Single sine
E (V)               0.4500
vs.                 Ref
tE (h:m:s)          0:00:0.0000
record              0
dI                  0.000
unit dI             mA
dt (s)              0.000
fi                  500.000
unit fi             kHz
ff                  1.000
unit ff             Hz
Nd                  6
Points              per decade
spacing             Logarithmic
Va (mV)             10.0
pw                  0.10
Na                  2
corr                0
E range min (V)     -1.000
E range max (V)     1.000
I Range             Auto
Bandwidth           5
nc cycles           0
goto Ns'            0
nr cycles           0
inc. cycle          0

freq/Hz	Re(Z)/Ohm	-Im(Z)/Ohm	|Z|/Ohm	Phase(Z)/deg	time/s	<Ewe>/V	<I>/mA	Cs/uF	Cp/uF	cycle number	I Range	|Ewe|/V	|I|/A	Ns	(Q-Qo)/mA.h	Re(Y)/Ohm-1	Im(Y)/Ohm-1	|Y|/Ohm-1	Phase(Y)/deg	Re(C)/nF	Im(C)/nF	|C|/nF	Phase(C)/deg	Re(M)	Im(M)	|M|	Phase(M)/deg	Re(Permittivity)	Im(Permittivity)	|Permittivity|	Phase(Permittivity)/deg	Re(Resistivity)/Ohm.cm	Im(Resistivity)/Ohm.cm	|Resistivity|/Ohm.cm	Phase(Resistivity)/deg	Re(Conductivity)/mS/cm	Im(Conductivity)/mS/cm	|Conductivity|/mS/cm	Phase(Conductivity)/deg	Tan(Delta)	Loss Angle(Delta)/deg	dq/mA.h	Pwe/W	Rwe/Ohm
500019	8.224	-3.00349	8.75529	20.0627	201.599	0.450195	0.00757251	-0.105976	-0.0124715	1	10	0.00277569	0.00031703	0	2.14094e-05	0.107286	-0.0391819	0.114217	-20.0627	-12.4715	34.1489	36.355	-110.063	0.0000000E+000	0.0000000E+000	0.0000000E+000	110.063	0.0000000E+000	0.0000000E+000	0.0000000E+000	-110.063	0.0000000E+000	0.0000000E+000	0.0000000E+000	20.0627	0.0000000E+000	0.0000000E+000	0.0000000E+000	-20.0627	2.73815	69.9373	2.14094e-05	3.40911e-06	59451.2
339899	4.30128	-1.78928	4.65859	22.5867	202.021	0.450064	0.0123169	-0.261693	-0.0386045	1	10	0.00335016	0.000719136	0	2.27342e-05	0.198193	-0.0824458	0.214657	-22.5867	-38.6045	92.802	100.511	-112.587	0.0000000E+000	0.0000000E+000	0.0000000E+000	112.587	0.0000000E+000	0.0000000E+000	0.0000000E+000	-112.587	0.0000000E+000	0.0000000E+000	0.0000000E+000	22.5867	0.0000000E+000	0.0000000E+000	0.0000000E+000	-22.5867	2.40392	67.4133	1.32478e-06	5.54337e-06	36540.5
231063	2.74841	-1.22751	3.01008	24.0667	202.746	0.449905	0.141134	-0.561134	-0.0933167	1	9	0.00503706	0.0016734	0	3.62651e-05	0.303339	-0.135478	0.332218	-24.0667	-93.3167	208.938	228.83	-114.067	0.0000000E+000	0.0000000E+000	0.0000000E+000	114.067	0.0000000E+000	0.0000000E+000	0.0000000E+000	-114.067	0.0000000E+000	0.0000000E+000	0.0000000E+000	24.0667	0.0000000E+000	0.0000000E+000	0.0000000E+000	-24.0667	2.23902	65.9333	1.35309e-05	6.3497e-05	3187.77
157076	2.33149	-0.570646	2.4003	13.7531	203.168	0.44985	0.140501	-1.7756	-0.100356	1	9	0.00844851	0.00351976	0	5.26037e-05	0.404669	-0.0990453	0.416614	-13.7531	-100.356	410.025	422.128	-103.753	0.0000000E+000	0.0000000E+000	0.0000000E+000	103.753	0.0000000E+000	0.0000000E+000	0.0000000E+000	-103.753	0.0000000E+000	0.0000000E+000	0.0000000E+000	13.7531	0.0000000E+000	0.0000000E+000	0.0000000E+000	-13.7531	4.0857	76.2469	1.63387e-05	6.32043e-05	3201.76
106786	2.22425	-0.26527	2.24001	6.80113	203.59	0.449821	0.136065	-5.61845	-0.0787938	1	9	0.0104961	0.00468575	0	6.35833e-05	0.443285	-0.0528674	0.446426	-6.80113	-78.7938	660.674	665.356	-96.8011	0.0000000E+000	0.0000000E+000	0.0000000E+000	96.8011	0.0000000E+000	0.0000000E+000	0.0000000E+000	-96.8011	0.0000000E+000	0.0000000E+000	0.0000000E+000	6.80113	0.0000000E+000	0.0000000E+000	0.0000000E+000	-6.80113	8.38485	83.1989	1.09796e-05	6.1205e-05	3305.92
72595	2.20586	-0.133102	2.20987	3.45305	204.012	0.449803	0.136345	-16.4713	-0.0597535	1	9	0.0107323	0.00485654	0	8.88819e-05	0.451693	-0.0272553	0.452515	-3.45305	-59.7535	990.278	992.079	-93.453	0.0000000E+000	0.0000000E+000	0.0000000E+000	93.453	0.0000000E+000	0.0000000E+000	0.0000000E+000	-93.453	0.0000000E+000	0.0000000E+000	0.0000000E+000	3.45305	0.0000000E+000	0.0000000E+000	0.0000000E+000	-3.45305	16.5727	86.547	2.52986e-05	6.13283e-05	3299.01
49352.4	2.20813	-0.0668528	2.20914	1.73415	204.434	0.449804	0.146017	-48.2383	-0.0441759	1	9	0.0106685	0.00482927	0	0.000105695	0.452458	-0.0136985	0.452665	-1.73415	-44.1759	1459.12	1459.79	-91.7341	0.0000000E+000	0.0000000E+000	0.0000000E+000	91.7341	0.0000000E+000	0.0000000E+000	0.0000000E+000	-91.7341	0.0000000E+000	0.0000000E+000	0.0000000E+000	1.73415	0.0000000E+000	0.0000000E+000	0.0000000E+000	-1.73415	33.0297	88.2659	1.68128e-05	6.56793e-05	3080.48
33551.1	2.21472	-0.0323057	2.21496	0.835704	204.856	0.449801	0.142421	-146.837	-0.0312366	1	9	0.0106004	0.00478582	0	0.000125069	0.451428	-0.0065849	0.451476	-0.835704	-31.2364	2141.42	2141.65	-90.8357	0.0000000E+000	0.0000000E+000	0.0000000E+000	90.8357	0.0000000E+000	0.0000000E+000	0.0000000E+000	-90.8357	0.0000000E+000	0.0000000E+000	0.0000000E+000	0.835704	0.0000000E+000	0.0000000E+000	0.0000000E+000	-0.835704	68.555	89.1643	1.93747e-05	6.40608e-05	3158.26
22806.6	2.22347	-0.00976204	2.22349	0.251552	205.279	0.449795	0.134556	-714.858	-0.0137794	1	9	0.0105719	0.00475465	0	0.000135674	0.449738	-0.00197455	0.449743	-0.251552	-13.7792	3138.49	3138.52	-90.2515	0.0000000E+000	0.0000000E+000	0.0000000E+000	90.2515	0.0000000E+000	0.0000000E+000	0.0000000E+000	-90.2515	0.0000000E+000	0.0000000E+000	0.0000000E+000	0.251552	0.0000000E+000	0.0000000E+000	0.0000000E+000	-0.251552	227.767	89.7485	1.06048e-05	6.05225e-05	3342.82
15504.4	2.22594	0.00234947	2.22594	-0.0604753	205.701	0.449793	0.129281	4369.14	0.00486752	1	9	0.0105167	0.00472462	0	0.000145786	0.449248	0.000474178	0.449248	0.0604753	4.86775	4611.6	4611.6	-89.9395	0.0000000E+000	0.0000000E+000	0.0000000E+000	89.9395	0.0000000E+000	0.0000000E+000	0.0000000E+000	-89.9395	0.0000000E+000	0.0000000E+000	0.0000000E+000	-0.0604753	0.0000000E+000	0.0000000E+000	0.0000000E+000	0.0604753	947.423	89.9395	1.01116e-05	5.81497e-05	3479.18
10540.4	2.23333	0.0105417	2.23335	-0.270443	206.124	0.449804	0.139532	1432.37	0.0319123	1	9	0.0105018	0.00470226	0	0.000157849	0.447752	0.00211346	0.447757	0.270443	31.9127	6760.85	6760.93	-89.7296	0.0000000E+000	0.0000000E+000	0.0000000E+000	89.7296	0.0000000E+000	0.0000000E+000	0.0000000E+000	-89.7296	0.0000000E+000	0.0000000E+000	0.0000000E+000	-0.270443	0.0000000E+000	0.0000000E+000	0.0000000E+000	0.270443	211.857	89.7296	1.20633e-05	6.27619e-05	3223.67
7163.78	2.24092	0.020011	2.24101	-0.511629	206.647	0.449782	0.12287	1110.22	0.0885241	1	9	0.0104366	0.00465709	0	0.000172863	0.44621	0.00398459	0.446228	0.511629	88.5238	9913.28	9913.67	-89.4884	0.0000000E+000	0.0000000E+000	0.0000000E+000	89.4884	0.0000000E+000	0.0000000E+000	0.0000000E+000	-89.4884	0.0000000E+000	0.0000000E+000	0.0000000E+000	-0.511629	0.0000000E+000	0.0000000E+000	0.0000000E+000	0.511629	111.984	89.4884	1.50136e-05	5.52648e-05	3660.64
4871.56	2.24574	0.025192	2.24588	-0.642699	207.337	0.449778	0.114222	1296.85	0.16317	1	9	0.0103515	0.0046091	0	0.000191311	0.445231	0.00499447	0.445259	0.642699	163.171	14545.8	14546.7	-89.3573	0.0000000E+000	0.0000000E+000	0.0000000E+000	89.3573	0.0000000E+000	0.0000000E+000	0.0000000E+000	-89.3573	0.0000000E+000	0.0000000E+000	0.0000000E+000	-0.642699	0.0000000E+000	0.0000000E+000	0.0000000E+000	0.642699	89.145	89.3573	1.84484e-05	5.13747e-05	3937.74
3311.06	2.25115	0.0314978	2.25137	-0.801622	208.024	0.449781	0.123895	1526.07	0.298702	1	9	0.0102818	0.0045669	0	0.000205365	0.44413	0.0062142	0.444174	0.801622	298.702	21348.3	21350.4	-89.1984	0.0000000E+000	0.0000000E+000	0.0000000E+000	89.1984	0.0000000E+000	0.0000000E+000	0.0000000E+000	-89.1984	0.0000000E+000	0.0000000E+000	0.0000000E+000	-0.801622	0.0000000E+000	0.0000000E+000	0.0000000E+000	0.801622	71.4702	89.1984	1.40541e-05	5.57257e-05	3630.34
2250.72	2.25209	0.04143	2.25247	-1.05391	208.712	0.449771	0.117484	1706.8	0.577423	1	9	0.0101708	0.00451538	0	0.000229488	0.443881	0.00816573	0.443956	1.05391	577.424	31388.1	31393.4	-88.9461	0.0000000E+000	0.0000000E+000	0.0000000E+000	88.9461	0.0000000E+000	0.0000000E+000	0.0000000E+000	-88.9461	0.0000000E+000	0.0000000E+000	0.0000000E+000	-1.05391	0.0000000E+000	0.0000000E+000	0.0000000E+000	1.05391	54.359	88.9461	2.41233e-05	5.28408e-05	3828.36
1530.49	2.25437	0.0524361	2.25498	-1.33244	209.177	0.449787	0.117708	1983.17	1.07234	1	9	0.0108639	0.00481772	0	0.00024672	0.443343	0.010312	0.443463	1.33244	1072.34	46103	46115.5	-88.6676	0.0000000E+000	0.0000000E+000	0.0000000E+000	88.6676	0.0000000E+000	0.0000000E+000	0.0000000E+000	-88.6676	0.0000000E+000	0.0000000E+000	0.0000000E+000	-1.33244	0.0000000E+000	0.0000000E+000	0.0000000E+000	1.33244	42.9928	88.6676	1.72317e-05	5.29433e-05	3821.22
1040.33	2.25937	0.074305	2.26059	-1.88364	209.864	0.449771	0.119478	2058.87	2.22445	1	9	0.0100678	0.00445362	0	0.000258587	0.442123	0.0145403	0.442362	1.88364	2224.45	67638.1	67674.6	-88.1164	0.0000000E+000	0.0000000E+000	0.0000000E+000	88.1164	0.0000000E+000	0.0000000E+000	0.0000000E+000	-88.1164	0.0000000E+000	0.0000000E+000	0.0000000E+000	-1.88364	0.0000000E+000	0.0000000E+000	0.0000000E+000	1.88364	30.4067	88.1164	1.18667e-05	5.37377e-05	3764.46
707.036	2.26358	0.101815	2.26587	-2.57541	210.329	0.449779	0.120093	2210.89	4.46398	1	9	0.0102423	0.00452027	0	0.000274539	0.440887	0.019831	0.441332	2.57541	4463.99	99244.2	99344.6	-87.4246	0.0000000E+000	0.0000000E+000	0.0000000E+000	87.4246	0.0000000E+000	0.0000000E+000	0.0000000E+000	-87.4246	0.0000000E+000	0.0000000E+000	0.0000000E+000	-2.57541	0.0000000E+000	0.0000000E+000	0.0000000E+000	2.57541	22.2322	87.4246	1.59522e-05	5.40154e-05	3745.25
480.769	2.26866	0.1404	2.273	-3.54133	210.794	0.44978	0.112974	2357.85	8.99604	1	9	0.0103275	0.00454357	0	0.000290644	0.439107	0.0271749	0.439947	3.54133	8996.03	145363	145641	-86.4587	0.0000000E+000	0.0000000E+000	0.0000000E+000	86.4587	0.0000000E+000	0.0000000E+000	0.0000000E+000	-86.4587	0.0000000E+000	0.0000000E+000	0.0000000E+000	-3.54133	0.0000000E+000	0.0000000E+000	0.0000000E+000	3.54133	16.1586	86.4587	1.61051e-05	5.08132e-05	3981.28
326.778	2.27454	0.202916	2.28357	-5.09798	211.257	0.449779	0.111613	2400.22	18.952	1	9	0.0103826	0.00454665	0	0.000304135	0.436178	0.0389123	0.43791	5.09798	18952	212438	213281	-84.902	0.0000000E+000	0.0000000E+000	0.0000000E+000	84.902	0.0000000E+000	0.0000000E+000	0.0000000E+000	-84.902	0.0000000E+000	0.0000000E+000	0.0000000E+000	-5.09798	0.0000000E+000	0.0000000E+000	0.0000000E+000	5.09798	11.2093	84.902	1.34903e-05	5.02013e-05	4029.8
222.061	2.28351	0.286302	2.30138	-7.14635	211.718	0.449778	0.114092	2503.36	38.7431	1	9	0.0104159	0.00452593	0	0.000319526	0.431145	0.0540562	0.434521	7.14635	38743.1	309010	311429	-82.8537	0.0000000E+000	0.0000000E+000	0.0000000E+000	82.8537	0.0000000E+000	0.0000000E+000	0.0000000E+000	-82.8537	0.0000000E+000	0.0000000E+000	0.0000000E+000	-7.14635	0.0000000E+000	0.0000000E+000	0.0000000E+000	7.14635	7.97587	82.8537	1.53915e-05	5.1316e-05	3942.24
151.015	2.28957	0.411027	2.32618	-10.1774	212.18	0.449773	0.109526	2564.07	80.0546	1	9	0.0104408	0.0044884	0	0.000332409	0.423126	0.0759602	0.42989	10.1774	80054.6	445934	453062	-79.8226	0.0000000E+000	0.0000000E+000	0.0000000E+000	79.8226	0.0000000E+000	0.0000000E+000	0.0000000E+000	-79.8226	0.0000000E+000	0.0000000E+000	0.0000000E+000	-10.1774	0.0000000E+000	0.0000000E+000	0.0000000E+000	10.1774	5.57037	79.8226	1.28833e-05	4.92617e-05	4106.55
102.667	2.3021	0.593032	2.37725	-14.4456	212.913	0.449781	0.00809438	2614.02	162.673	1	10	0.0104823	0.0044094	0	0.000339824	0.407355	0.104937	0.420654	14.4456	162673	631481	652097	-75.5544	0.0000000E+000	0.0000000E+000	0.0000000E+000	75.5544	0.0000000E+000	0.0000000E+000	0.0000000E+000	-75.5544	0.0000000E+000	0.0000000E+000	0.0000000E+000	-14.4456	0.0000000E+000	0.0000000E+000	0.0000000E+000	14.4456	3.88191	75.5544	7.41474e-06	3.6407e-06	55567.1
69.7545	2.30585	0.85437	2.45904	-20.3308	213.38	0.449771	0.0111709	2670.56	322.375	1	10	0.0105011	0.00427042	0	0.000343568	0.381328	0.141291	0.406662	20.3308	322375	870055	927859	-69.6692	0.0000000E+000	0.0000000E+000	0.0000000E+000	69.6692	0.0000000E+000	0.0000000E+000	0.0000000E+000	-69.6692	0.0000000E+000	0.0000000E+000	0.0000000E+000	-20.3308	0.0000000E+000	0.0000000E+000	0.0000000E+000	20.3308	2.69889	69.6692	3.74394e-06	5.02435e-06	40262.6
47.4443	2.30049	1.23687	2.61191	-28.2649	213.824	0.449773	0.0129188	2712.15	608.194	1	10	0.0105261	0.00403003	0	0.000348535	0.337212	0.181304	0.382862	28.2649	608194	1.1312e+06	1.28433e+06	-61.7351	0.0000000E+000	0.0000000E+000	0.0000000E+000	61.7351	0.0000000E+000	0.0000000E+000	0.0000000E+000	-61.7351	0.0000000E+000	0.0000000E+000	0.0000000E+000	-28.2649	0.0000000E+000	0.0000000E+000	0.0000000E+000	28.2649	1.85993	61.7351	4.96718e-06	5.81053e-06	34815.3
32.2387	2.26963	1.80973	2.90282	-38.5677	214.261	0.449763	0.0126076	2727.91	1060.27	1	10	0.010542	0.00363165	0	0.000347466	0.269349	0.21477	0.344493	38.5677	1.06027e+06	1.32972e+06	1.70068e+06	-51.4323	0.0000000E+000	0.0000000E+000	0.0000000E+000	51.4323	0.0000000E+000	0.0000000E+000	0.0000000E+000	-51.4323	0.0000000E+000	0.0000000E+000	0.0000000E+000	-38.5677	0.0000000E+000	0.0000000E+000	0.0000000E+000	38.5677	1.25413	51.4323	-1.06906e-06	5.67046e-06	35673.9
21.9144	2.20595	2.67992	3.47105	-50.5409	214.692	0.449771	0.00911737	2709.99	1615.44	1	10	0.0105536	0.00304046	0	0.000357046	0.183094	0.222434	0.288097	50.5409	1.61544e+06	1.32973e+06	2.09232e+06	-39.4591	0.0000000E+000	0.0000000E+000	0.0000000E+000	39.4591	0.0000000E+000	0.0000000E+000	0.0000000E+000	-39.4591	0.0000000E+000	0.0000000E+000	0.0000000E+000	-50.5409	0.0000000E+000	0.0000000E+000	0.0000000E+000	50.5409	0.823138	39.4591	9.57972e-06	4.10073e-06	49331.2
14.9093	2.13521	4.01171	4.54455	-61.9761	215.159	0.449781	0.0127548	2660.92	2073.52	1	10	0.0105604	0.00232374	0	0.000360304	0.103386	0.194244	0.220044	61.9761	2.07352e+06	1.10362e+06	2.34893e+06	-28.0239	0.0000000E+000	0.0000000E+000	0.0000000E+000	28.0239	0.0000000E+000	0.0000000E+000	0.0000000E+000	-28.0239	0.0000000E+000	0.0000000E+000	0.0000000E+000	-61.9761	0.0000000E+000	0.0000000E+000	0.0000000E+000	61.9761	0.532246	28.024	3.25863e-06	5.73687e-06	35263.6
10.1329	2.0061	6.05679	6.38037	-71.6743	215.619	0.449783	0.00823034	2593.24	2336.87	1	10	0.0105606	0.00165517	0	0.000360579	0.049279	0.148782	0.156731	71.6743	2.33687e+06	774009	2.46172e+06	-18.3257	0.0000000E+000	0.0000000E+000	0.0000000E+000	18.3257	0.0000000E+000	0.0000000E+000	0.0000000E+000	-18.3257	0.0000000E+000	0.0000000E+000	0.0000000E+000	-71.6743	0.0000000E+000	0.0000000E+000	0.0000000E+000	71.6743	0.331216	18.3257	2.74242e-07	3.70187e-06	54649.3
6.88933	1.89499	9.10318	9.29833	-78.2408	215.972	0.449772	0.0101273	2537.76	2432.35	1	10	0.0105564	0.0011353	0	0.000354363	0.0219179	0.105289	0.107546	78.2408	2.43235e+06	506339	2.4845e+06	-11.7592	0.0000000E+000	0.0000000E+000	0.0000000E+000	11.7592	0.0000000E+000	0.0000000E+000	0.0000000E+000	-11.7592	0.0000000E+000	0.0000000E+000	0.0000000E+000	-78.2408	0.0000000E+000	0.0000000E+000	0.0000000E+000	78.2408	0.208168	11.7592	-6.21567e-06	4.55499e-06	44411.8
4.68375	1.89469	13.6492	13.7801	-82.0971	216.736	0.449774	-0.000296356	2489.54	2442.48	1	11	0.0105611	0.000766405	0	0.000360082	0.00997781	0.0718793	0.0725686	82.0971	2.44248e+06	339048	2.4659e+06	-7.90292	0.0000000E+000	0.0000000E+000	0.0000000E+000	7.90292	0.0000000E+000	0.0000000E+000	0.0000000E+000	-7.90292	0.0000000E+000	0.0000000E+000	0.0000000E+000	-82.0971	0.0000000E+000	0.0000000E+000	0.0000000E+000	82.0971	0.138813	7.90292	5.71854e-06	-1.33293e-07	1.51768e+06
3.18099	2.07941	20.1333	20.2404	-84.1033	217.44	0.449779	0.00072875	2485.1	2458.87	1	11	0.0105566	0.000521563	0	0.000357916	0.00507577	0.0491447	0.0494062	84.1033	2.45887e+06	253957	2.47195e+06	-5.89671	0.0000000E+000	0.0000000E+000	0.0000000E+000	5.89671	0.0000000E+000	0.0000000E+000	0.0000000E+000	-5.89671	0.0000000E+000	0.0000000E+000	0.0000000E+000	-84.1033	0.0000000E+000	0.0000000E+000	0.0000000E+000	84.1033	0.103282	5.89671	-2.16582e-06	3.27777e-07	617193
2.16533	2.38139	29.562	29.6577	-85.3944	218.451	0.449787	0.00330803	2486.36	2470.33	1	11	0.0105497	0.000355715	0	0.000350938	0.00270742	0.0336092	0.033718	85.3944	2.47033e+06	199000	2.47833e+06	-4.60558	0.0000000E+000	0.0000000E+000	0.0000000E+000	4.60558	0.0000000E+000	0.0000000E+000	0.0000000E+000	-4.60558	0.0000000E+000	0.0000000E+000	0.0000000E+000	-85.3944	0.0000000E+000	0.0000000E+000	0.0000000E+000	85.3944	0.080556	4.60558	-6.97754e-06	1.48791e-06	135968
1.46962	2.98326	43.309	43.4116	-86.0595	220.651	0.449789	0.00193651	2500.56	2488.75	1	12	0.0105574	0.000243193	0	0.000350876	0.001583	0.0229809	0.0230353	86.0595	2.48875e+06	171433	2.49465e+06	-3.9405	0.0000000E+000	0.0000000E+000	0.0000000E+000	3.9405	0.0000000E+000	0.0000000E+000	0.0000000E+000	-3.9405	0.0000000E+000	0.0000000E+000	0.0000000E+000	-86.0595	0.0000000E+000	0.0000000E+000	0.0000000E+000	86.0595	0.0688833	3.94049	-6.17294e-08	8.71019e-07	232268
1.00006	3.78931	63.0019	63.1157	-86.558	222.791	0.449785	0.00188136	2526.03	2516.93	1	12	0.0105514	0.000167175	0	0.000357132	0.00095123	0.0158153	0.0158439	86.558	2.51693e+06	151383	2.52148e+06	-3.44197	0.0000000E+000	0.0000000E+000	0.0000000E+000	3.44197	0.0000000E+000	0.0000000E+000	0.0000000E+000	-3.44197	0.0000000E+000	0.0000000E+000	0.0000000E+000	-86.558	0.0000000E+000	0.0000000E+000	0.0000000E+000	86.558	0.0601461	3.44197	6.2557e-06	8.46207e-07	239075