File: ACS_Catal_2026/Figures_Na_K/main_figures/data/EC/20251112_2-148_alpha_reproducibility/20251112_2-148_005_gamma_reproducibility_Na1_01_CVA_C01.mpt
EC-Lab ASCII FILE
Nb header lines : 66

Cyclic Voltammetry Advanced

Run on channel : 1 (SN 69187)
User :
CE vs. WE compliance from -10 V to 10 V
Electrode connection : standard
Potential control : Ewe
Ewe ctrl range : min = -1.00 V, max = 1.00 V
Safety Limits :
	Do not start on E overload
Acquisition started on : 11/12/2025 19:47:23.448
Loaded Setting File :  C:\Users\User\Documents\EC-Lab\Data\Yatsuzuka\20251030_2-147_gamma_reproducibility\20251030_2-147_001_gamma1_K_1.mps
Saved on :
	File : 20251112_2-148_005_gamma_reproducibility_Na1_01_CVA_C01.mpr
	Directory : C:\Users\User\Documents\EC-Lab\Data\Yatsuzuka\20251112_2-148_alpha_reproducibility\
	Host : 192.109.209.127
Device : SP-150e (SN .003883)
Address : 192.109.209.128
EC-Lab for windows v11.52 (software)
Internet server v11.52 (firmware)
Command interpretor v11.50 (firmware)
Electrode material :
Initial state :
Electrolyte :
Comments :
Electrode surface area : 0.001 cm2
Characteristic mass : 0.001 g
Equivalent Weight : 0.000 g/eq.
Density : 0.000 g/cm3
Volume (V) : 0.001 cm3
Cycle Definition : Charge/Discharge alternance
Ei (V)              0.350
vs.                 Ref
ti (h:m:s)          0:00:10.0000
dti (s)             0.0000
dE/dt               10.000
dE/dt unit          mV/s
E1 (V)              0.450
vs.                 Ref
t1 (h:m:s)          0:00:0.0000
dt1 (s)             0.1000
Step percent        50
N                   10
E range min (V)     -1.000
E range max (V)     1.000
I Range             Auto
I Range min         Unset
I Range max         Unset
I Range init        Unset
Bandwidth           5
E2 (V)              0.350
vs.                 Ref
t2 (h:m:s)          0:00:0.0000
dt2 (s)             0.1000
nc cycles           9
nr                  1
Reverse Scan        0
Ef (V)              0.000
vs.                 Eoc
tf (h:m:s)          0:00:0.0000
dtf (s)             0.1000

mode	ox/red	error	control changes	Ns changes	counter inc.	time/s	control/V	Ewe/V	<I>/mA	cycle number	(Q-Qo)/C	I Range	Ns	step time/s	P/W
2	1	0	1	0	0	0.000000000000000E+000	0.34995	0.349685	0.000290819	1	0.0000000E+000	13	0	0.000000000000000E+000	1.01695e-07
2	0	0	1	0	0	0.3769	0.353719	0.353436	0.00278187	1	6.96068e-07	13	0	0.3496	9.83216e-07
2	1	0	1	0	0	0.7763	0.357714	0.357447	0.00226358	1	1.4608e-06	13	0	0.749	8.0911e-07
2	1	0	1	0	0	1.1758	0.361709	0.361457	0.00117613	1	2.24966e-06	13	0	1.1485	4.25122e-07
2	0	0	1	0	0	1.5752	0.365702	0.365456	0.00180055	1	3.03407e-06	13	0	1.5479	6.58023e-07
2	1	0	1	0	0	1.9747	0.369697	0.369471	0.00273666	1	3.7844e-06	13	0	1.9474	1.01112e-06
2	1	0	1	0	0	2.3741	0.373692	0.373465	0.00230242	1	4.52556e-06	13	0	2.3468	8.59872e-07
2	1	0	1	0	0	2.7735	0.377686	0.377439	0.00127635	1	5.28116e-06	13	0	2.7462	4.81744e-07
2	1	0	1	0	0	3.173	0.38168	0.381433	0.00150764	1	6.03423e-06	13	0	3.1457	5.75065e-07
2	1	0	1	0	0	3.5725	0.385675	0.385412	0.00247026	1	6.75799e-06	13	0	3.5452	9.52067e-07
2	1	0	1	0	0	3.9719	0.389669	0.389416	0.00256028	1	7.46213e-06	13	0	3.9446	9.97015e-07
2	1	0	1	0	0	4.3713	0.393664	0.393416	0.00165828	1	8.17071e-06	13	0	4.344	6.52393e-07
2	1	0	1	0	0	4.7708	0.397659	0.397377	0.00117253	1	8.8893e-06	13	0	4.7435	4.65934e-07
2	1	0	1	0	0	5.1703	0.401653	0.401401	0.00178001	1	9.59009e-06	13	0	5.143	7.14497e-07
2	1	0	1	0	0	5.5697	0.405647	0.405384	0.00253129	1	1.02657e-05	13	0	5.5424	1.02614e-06
2	1	0	1	0	0	5.9691	0.409642	0.409509	0.002201	1	1.09357e-05	13	0	5.9418	9.01329e-07
2	1	0	1	0	0	6.3686	0.413637	0.413455	0.00135316	1	1.16115e-05	13	0	6.3413	5.59469e-07
2	1	0	1	0	0	6.768	0.41763	0.417396	0.00124531	1	1.22885e-05	13	0	6.7407	5.19788e-07
2	1	0	1	0	0	7.1675	0.421625	0.421435	0.00205154	1	1.29454e-05	13	0	7.1402	8.6459e-07
2	1	0	1	0	0	7.5669	0.42562	0.425363	0.0024337	1	1.35786e-05	13	0	7.5396	1.0352e-06
2	1	0	1	0	0	7.9663	0.429614	0.429395	0.00186478	1	1.42104e-05	13	0	7.939	8.00726e-07
2	1	0	1	0	0	8.3658	0.433608	0.433324	0.00115635	1	1.48513e-05	13	0	8.3385	5.01073e-07
2	1	0	1	0	0	8.7653	0.437603	0.437376	0.00137267	1	1.54871e-05	13	0	8.738	6.00371e-07
2	1	0	1	0	0	9.1647	0.441597	0.441363	0.00214949	1	1.61025e-05	13	0	9.1374	9.48705e-07
2	1	0	1	0	0	9.5641	0.445592	0.445373	0.0021565	1	1.67019e-05	13	0	9.5368	9.60449e-07
2	1	0	1	0	0	9.9636	0.449587	0.449378	0.0013334	1	1.73094e-05	13	0	9.9363	5.992e-07
2	1	0	1	0	0	10.2799	0.44724	0.446982	-0.00116928	1	1.70964e-05	13	0	0.2497	-5.22649e-07
2	0	0	1	0	0	10.6793	0.443245	0.442999	-0.0017459	1	1.66665e-05	13	0	0.6491	-7.73432e-07
2	0	0	1	0	0	11.0788	0.43925	0.439038	-0.00123659	1	1.62003e-05	13	0	1.0486	-5.42908e-07
2	0	0	1	0	0	11.4782	0.435257	0.434988	-0.000661767	1	1.57e-05	13	0	1.448	-2.87861e-07
2	0	0	1	0	0	11.8777	0.431262	0.430995	-0.00101503	1	1.51846e-05	13	0	1.8475	-4.37472e-07
2	0	0	1	0	0	12.2771	0.427267	0.427034	-0.00187967	1	1.46688e-05	13	0	2.2469	-8.02685e-07
2	0	0	1	0	0	12.6765	0.423273	0.422994	-0.00179426	1	1.41484e-05	13	0	2.6463	-7.5896e-07
2	0	0	1	0	0	13.076	0.419278	0.41897	-0.000885669	1	1.35928e-05	13	0	3.0458	-3.71069e-07
2	0	0	1	0	0	13.4755	0.415284	0.415033	-0.00119731	1	1.30175e-05	13	0	3.4453	-4.96922e-07
2	0	0	1	0	0	13.8749	0.411289	0.411021	-0.00213537	1	1.24497e-05	13	0	3.8447	-8.77682e-07
2	0	0	1	0	0	14.2743	0.407295	0.406995	-0.00200518	1	1.18748e-05	13	0	4.2441	-8.161e-07
2	0	0	1	0	0	14.6738	0.4033	0.403	-0.00106511	1	1.12634e-05	13	0	4.6436	-4.29239e-07
2	0	0	1	0	0	15.0733	0.399306	0.399008	-0.00118486	1	1.0636e-05	13	0	5.0431	-4.72769e-07
2	0	0	1	0	0	15.4727	0.395312	0.395053	-0.00224641	1	1.0013e-05	13	0	5.4425	-8.87449e-07
2	0	0	1	0	0	15.8721	0.391317	0.39106	-0.00233092	1	9.39111e-06	13	0	5.8419	-9.11528e-07
2	0	0	1	0	0	16.2716	0.387322	0.387035	-0.00140495	1	8.73915e-06	13	0	6.2414	-5.43764e-07
2	0	0	1	0	0	16.671	0.383329	0.383091	-0.00121032	1	8.05719e-06	13	0	6.6408	-4.63664e-07
2	0	0	1	0	0	17.0705	0.379334	0.379049	-0.00240623	1	7.38119e-06	13	0	7.0403	-9.1208e-07
2	0	0	1	0	0	17.4699	0.375339	0.375106	-0.00239086	1	6.71216e-06	13	0	7.4397	-8.96824e-07
2	0	0	1	0	0	17.8693	0.371345	0.371095	-0.00124712	1	5.99673e-06	13	0	7.8391	-4.62799e-07
2	0	0	1	0	0	18.2688	0.36735	0.367063	-0.00190087	1	5.26274e-06	13	0	8.2386	-6.97739e-07
2	0	0	1	0	0	18.6683	0.363356	0.363064	-0.00285697	1	4.54717e-06	13	0	8.6381	-1.03726e-06
2	0	0	1	0	0	19.0677	0.359361	0.359093	-0.00209514	1	3.81004e-06	13	0	9.0375	-7.52349e-07
2	0	0	1	0	0	19.4671	0.355367	0.35505	-0.00126317	1	3.02958e-06	13	0	9.4369	-4.48488e-07
2	0	0	1	0	0	19.8666	0.351372	0.351033	-0.00209969	1	2.23857e-06	13	0	9.8364	-7.37061e-07
2	1	0	1	0	1	20.1338	0.351322	0.351084	0.000941409	2	2.17537e-06	13	0	0.0999	3.30514e-07
2	0	0	1	0	1	20.5333	0.355317	0.355012	0.00128836	2	2.89126e-06	13	0	0.4994	4.57385e-07
2	0	0	1	0	1	20.9327	0.359311	0.35906	0.00246705	2	3.60557e-06	13	0	0.8988	8.85819e-07
2	1	0	1	0	1	21.3321	0.363306	0.363094	0.00226324	2	4.31352e-06	13	0	1.2982	8.21768e-07
2	1	0	1	0	1	21.7316	0.3673	0.367041	0.00115123	2	5.04206e-06	13	0	1.6977	4.22549e-07
2	0	0	1	0	1	22.1311	0.371295	0.371076	0.0011257	2	5.78017e-06	13	0	2.0972	4.1772e-07
2	0	0	1	0	1	22.5305	0.375289	0.375113	0.00216441	2	6.49128e-06	13	0	2.4966	8.11899e-07
2	0	0	1	0	1	22.9299	0.379284	0.379043	0.00233146	2	7.17973e-06	13	0	2.896	8.83726e-07
2	1	0	1	0	1	23.3294	0.383279	0.383047	0.00132709	2	7.87753e-06	13	0	3.2955	5.08339e-07
2	0	0	1	0	1	23.7288	0.387272	0.386959	0.000903239	2	8.58638e-06	13	0	3.6949	3.49516e-07
2	0	0	1	0	1	24.1283	0.391267	0.391037	0.00171987	2	9.27467e-06	13	0	4.0944	6.72531e-07
2	0	0	1	0	1	24.5277	0.395262	0.394974	0.00228877	2	9.93483e-06	13	0	4.4938	9.04005e-07
2	1	0	1	0	1	24.9271	0.399256	0.399053	0.00157915	2	1.05936e-05	13	0	4.8932	6.30166e-07
2	1	0	1	0	1	25.3266	0.40325	0.402986	0.000839903	2	1.12647e-05	13	0	5.2927	3.38469e-07
2	0	0	1	0	1	25.7261	0.407245	0.406981	0.00122504	2	1.19304e-05	13	0	5.6922	4.98567e-07
2	0	0	1	0	1	26.1255	0.411239	0.411045	0.00205805	2	1.25673e-05	13	0	6.0916	8.45951e-07
2	1	0	1	0	1	26.5249	0.415234	0.415003	0.00190285	2	1.31907e-05	13	0	6.491	7.89689e-07
2	1	0	1	0	1	26.9244	0.419228	0.418984	0.000996041	2	1.38234e-05	13	0	6.8905	4.17325e-07
2	0	0	1	0	1	27.3239	0.423223	0.42293	0.000896485	2	1.44613e-05	13	0	7.29	3.7915e-07
2	0	0	1	0	1	27.7233	0.427217	0.426959	0.00177911	2	1.50783e-05	13	0	7.6894	7.59607e-07
2	0	0	1	0	1	28.1227	0.431212	0.430988	0.00197239	2	1.56722e-05	13	0	8.0888	8.50074e-07
2	1	0	1	0	1	28.5222	0.435207	0.434931	0.00114169	2	1.62745e-05	13	0	8.4883	4.96554e-07
2	0	0	1	0	1	28.9216	0.4392	0.438977	0.000873278	2	1.68858e-05	13	0	8.8877	3.83349e-07
2	0	0	1	0	1	29.3211	0.443195	0.442965	0.00160015	2	1.74795e-05	13	0	9.2872	7.08811e-07
2	0	0	1	0	1	29.7205	0.44719	0.447022	0.00204242	2	1.80513e-05	13	0	9.6866	9.13005e-07
2	0	0	1	0	1	30.0268	0.449737	0.449494	-0.000758218	2	1.84419e-05	13	0	0.0274	-3.40814e-07
2	0	0	1	0	1	30.4263	0.445742	0.44549	-0.000681228	2	1.80079e-05	13	0	0.4269	-3.0348e-07
2	0	0	1	0	1	30.8257	0.441747	0.441502	-0.00150633	2	1.75395e-05	13	0	0.8263	-6.6505e-07
2	0	0	1	0	1	31.2251	0.437753	0.437483	-0.00199725	2	1.70676e-05	13	0	1.2257	-8.73762e-07
2	0	0	1	0	1	31.6246	0.433759	0.433474	-0.00136888	2	1.65694e-05	13	0	1.6252	-5.93373e-07
2	0	0	1	0	1	32.0241	0.429764	0.429499	-0.000866647	2	1.60373e-05	13	0	2.0247	-3.72224e-07
2	0	0	1	0	1	32.4235	0.425769	0.425494	-0.00167649	2	1.54999e-05	13	0	2.4241	-7.13339e-07
2	0	0	1	0	1	32.8229	0.421775	0.421516	-0.00212303	2	1.49744e-05	13	0	2.8235	-8.94891e-07
2	0	0	1	0	1	33.2224	0.41778	0.417487	-0.00115524	2	1.44187e-05	13	0	3.223	-4.82296e-07
2	0	0	1	0	1	33.6219	0.413786	0.413541	-0.00137272	2	1.38317e-05	13	0	3.6225	-5.67675e-07
2	0	0	1	0	1	34.0213	0.409791	0.409569	-0.00222831	2	1.327e-05	13	0	4.0219	-9.12644e-07
2	0	0	1	0	1	34.4207	0.405797	0.405498	-0.00117382	2	1.26766e-05	13	0	4.4213	-4.75982e-07
2	0	0	1	0	1	34.8202	0.401802	0.401506	-0.00130038	2	1.20532e-05	13	0	4.8208	-5.22111e-07
2	0	0	1	0	1	35.2196	0.397809	0.397545	-0.00230183	2	1.14472e-05	13	0	5.2202	-9.15082e-07
2	0	0	1	0	1	35.6191	0.393814	0.393502	-0.00178738	2	1.08293e-05	13	0	5.6197	-7.03337e-07
2	0	0	1	0	1	36.0185	0.389819	0.389553	-0.000901378	2	1.01723e-05	13	0	6.0191	-3.51134e-07
2	1	0	1	0	1	36.4179	0.385825	0.385513	-0.00171849	2	9.50727e-06	13	0	6.4185	-6.62503e-07
2	1	0	1	0	1	36.8174	0.381831	0.381531	-0.00239993	2	8.8579e-06	13	0	6.818	-9.15646e-07
2	0	0	1	0	1	37.2169	0.377836	0.377562	-0.00143055	2	8.18111e-06	13	0	7.2175	-5.40121e-07
2	1	0	1	0	1	37.6163	0.373841	0.373541	-0.000912686	2	7.46603e-06	13	0	7.6169	-3.40926e-07
2	1	0	1	0	1	38.0157	0.369847	0.369626	-0.00194217	2	6.75011e-06	13	0	8.0163	-7.17875e-07
2	1	0	1	0	1	38.4152	0.365852	0.365548	-0.00243538	2	6.04395e-06	13	0	8.4158	-8.90248e-07
2	0	0	1	0	1	38.8147	0.361858	0.361533	-0.00142567	2	5.30561e-06	13	0	8.8153	-5.15426e-07
2	1	0	1	0	1	39.2141	0.357864	0.35761	-0.000984493	2	4.52706e-06	13	0	9.2147	-3.52065e-07
2	1	0	1	0	1	39.6135	0.353869	0.353593	-0.00214628	2	3.74894e-06	13	0	9.6141	-7.58909e-07
2	1	0	1	0	1	39.9931	0.350074	0.349876	-0.000647372	2	3.0337e-06	13	0	9.9937	-2.265e-07
2	0	0	1	0	0	40.2802	0.35282	0.352538	0.00167139	3	3.46376e-06	13	0	0.2497	5.8923e-07
2	0	0	1	0	0	40.6797	0.356815	0.35653	0.00259638	3	4.15171e-06	13	0	0.6492	9.25688e-07
2	1	0	1	0	0	41.0791	0.360809	0.36064	0.00186802	3	4.8587e-06	13	0	1.0486	6.73682e-07
2	1	0	1	0	0	41.4785	0.364804	0.364531	0.00104256	3	5.5934e-06	13	0	1.448	3.80046e-07
2	0	0	1	0	0	41.878	0.368799	0.368552	0.00158257	3	6.32219e-06	13	0	1.8475	5.83258e-07
2	1	0	1	0	0	42.2775	0.372793	0.37257	0.00258683	3	7.01969e-06	13	0	2.247	9.63775e-07
2	1	0	1	0	0	42.6769	0.376787	0.376559	0.00195676	3	7.71237e-06	13	0	2.6464	7.36835e-07
2	1	0	1	0	0	43.0763	0.380782	0.380482	0.00111766	3	8.42258e-06	13	0	3.0458	4.2525e-07
2	1	0	1	0	0	43.4758	0.384777	0.384518	0.00170991	3	9.12317e-06	13	0	3.4453	6.57489e-07
2	1	0	1	0	0	43.8752	0.38877	0.388504	0.00257883	3	9.79198e-06	13	0	3.8447	1.00189e-06
2	1	0	1	0	0	44.2747	0.392765	0.392511	0.00199237	3	1.04521e-05	13	0	4.2442	7.82029e-07
2	1	0	1	0	0	44.6741	0.39676	0.396496	0.00114738	3	1.11299e-05	13	0	4.6436	4.54931e-07
2	1	0	1	0	0	45.0735	0.400754	0.400522	0.00171462	3	1.17968e-05	13	0	5.043	6.86745e-07
2	1	0	1	0	0	45.473	0.404748	0.404501	0.00247449	3	1.24314e-05	13	0	5.4425	1.00093e-06
2	1	0	1	0	0	45.8725	0.408743	0.408601	0.00162805	3	1.30656e-05	13	0	5.842	6.65223e-07
2	1	0	1	0	0	46.2719	0.412737	0.412548	0.00107755	3	1.37142e-05	13	0	6.2414	4.4454e-07
2	1	0	1	0	0	46.6713	0.416732	0.41652	0.00169579	3	1.43458e-05	13	0	6.6408	7.06328e-07
2	1	0	1	0	0	47.0708	0.420727	0.420534	0.00233597	3	1.49524e-05	13	0	7.0403	9.82357e-07
2	1	0	1	0	0	47.4703	0.424721	0.424478	0.00177903	3	1.55542e-05	13	0	7.4398	7.55158e-07
2	1	0	1	0	0	47.8697	0.428715	0.428519	0.00101807	3	1.61685e-05	13	0	7.8392	4.36263e-07
2	0	0	1	0	0	48.2691	0.43271	0.43249	0.00125218	3	1.67781e-05	13	0	8.2386	5.41556e-07
2	0	0	1	0	0	48.6686	0.436705	0.436433	0.00207595	3	1.73627e-05	13	0	8.6381	9.06013e-07
2	1	0	1	0	0	49.068	0.440698	0.440495	0.0017621	3	1.79383e-05	13	0	9.0375	7.76197e-07
2	1	0	1	0	0	49.4675	0.444693	0.444434	0.000894563	3	1.85276e-05	13	0	9.437	3.97575e-07
2	0	0	1	0	0	49.8669	0.448687	0.44848	0.00111235	3	1.91166e-05	13	0	9.8364	4.98867e-07
2	1	0	1	0	0	50.1732	0.448239	0.447991	-0.00157259	3	1.91301e-05	13	0	0.1498	-7.04506e-07
2	1	0	1	0	0	50.5727	0.444244	0.444017	-0.00126475	3	1.86945e-05	13	0	0.5493	-5.61569e-07
2	0	0	1	0	0	50.9721	0.440249	0.440029	-0.000602468	3	1.82117e-05	13	0	0.9487	-2.65103e-07
2	1	0	1	0	0	51.3715	0.436255	0.435941	-0.000969255	3	1.77043e-05	13	0	1.3481	-4.22538e-07
2	1	0	1	0	0	51.771	0.43226	0.432013	-0.00184623	3	1.72013e-05	13	0	1.7476	-7.97596e-07
2	0	0	1	0	0	52.1705	0.428266	0.428012	-0.00163949	3	1.66897e-05	13	0	2.1471	-7.01719e-07
2	0	0	1	0	0	52.5699	0.424271	0.424042	-0.000875906	3	1.61452e-05	13	0	2.5465	-3.71421e-07
2	0	0	1	0	0	52.9693	0.420277	0.419983	-0.00122927	3	1.55823e-05	13	0	2.9459	-5.16272e-07
2	0	0	1	0	0	53.3688	0.416282	0.416036	-0.0021835	3	1.50297e-05	13	0	3.3454	-9.08417e-07
2	0	0	1	0	0	53.7683	0.412288	0.412045	-0.00182122	3	1.44703e-05	13	0	3.7449	-7.50424e-07
2	0	0	1	0	0	54.1677	0.408294	0.408067	-0.000993119	3	1.38744e-05	13	0	4.1443	-4.05259e-07
2	0	0	1	0	0	54.5671	0.404299	0.403991	-0.00165329	3	1.32643e-05	13	0	4.5437	-6.67916e-07
2	0	0	1	0	0	54.9666	0.400304	0.400063	-0.00245647	3	1.26706e-05	13	0	4.9432	-9.82744e-07
2	0	0	1	0	0	55.366	0.396311	0.396035	-0.0017705	3	1.20612e-05	13	0	5.3426	-7.01179e-07
2	0	0	1	0	0	55.7655	0.392316	0.392059	-0.0011012	3	1.14139e-05	13	0	5.7421	-4.31735e-07
2	0	0	1	0	0	56.1649	0.388321	0.388038	-0.0018622	3	1.07621e-05	13	0	6.1415	-7.22606e-07
2	0	0	1	0	0	56.5643	0.384327	0.384001	-0.00253606	3	1.01188e-05	13	0	6.5409	-9.73851e-07
2	0	0	1	0	0	56.9638	0.380332	0.380027	-0.00188887	3	9.46096e-06	13	0	6.9404	-7.17819e-07
2	0	0	1	0	0	57.3633	0.376338	0.376086	-0.00103592	3	8.76269e-06	13	0	7.3399	-3.89595e-07
2	1	0	1	0	0	57.7627	0.372343	0.372076	-0.00176209	3	8.05425e-06	13	0	7.7393	-6.55633e-07
2	1	0	1	0	0	58.1621	0.368349	0.368122	-0.00256118	3	7.35854e-06	13	0	8.1387	-9.42827e-07
2	0	0	1	0	0	58.5616	0.364354	0.364101	-0.00183632	3	6.64298e-06	13	0	8.5382	-6.68606e-07
2	1	0	1	0	0	58.9611	0.36036	0.360121	-0.000956763	3	5.88207e-06	13	0	8.9377	-3.44551e-07
2	1	0	1	0	0	59.3605	0.356366	0.356094	-0.00197908	3	5.11295e-06	13	0	9.3371	-7.04738e-07
2	1	0	1	0	0	59.7599	0.352371	0.352105	-0.00270162	3	4.35513e-06	13	0	9.7365	-9.51254e-07
2	0	0	1	0	1	60.0271	0.350324	0.350088	0.00125098	4	3.939e-06	13	0	0.0275	4.37952e-07
2	0	0	1	0	1	60.4266	0.354318	0.354094	0.00262827	4	4.59278e-06	13	0	0.427	9.30656e-07
2	1	0	1	0	1	60.8261	0.358313	0.358056	0.00203656	4	5.29153e-06	13	0	0.8265	7.29202e-07
2	1	0	1	0	1	61.2255	0.362307	0.362019	0.00110456	4	6.02186e-06	13	0	1.2259	3.99872e-07
2	1	0	1	0	1	61.6249	0.366302	0.366075	0.00175619	4	6.75082e-06	13	0	1.6253	6.42897e-07
2	1	0	1	0	1	62.0244	0.370297	0.370024	0.00269751	4	7.44883e-06	13	0	2.0248	9.98144e-07
2	1	0	1	0	1	62.4238	0.37429	0.374072	0.00207662	4	8.13944e-06	13	0	2.4242	7.76805e-07
2	1	0	1	0	1	62.8233	0.378285	0.378042	0.00121841	4	8.84927e-06	13	0	2.8237	4.6061e-07
2	1	0	1	0	1	63.2227	0.38228	0.382007	0.00162452	4	9.55201e-06	13	0	3.2231	6.20576e-07
2	1	0	1	0	1	63.6221	0.386274	0.386005	0.002523	4	1.02233e-05	13	0	3.6225	9.73891e-07
2	1	0	1	0	1	64.0216	0.390268	0.390038	0.00209149	4	1.08828e-05	13	0	4.022	8.15758e-07
2	1	0	1	0	1	64.4211	0.394263	0.393988	0.00114968	4	1.15577e-05	13	0	4.4215	4.5296e-07
2	0	0	1	0	1	64.8205	0.398257	0.39806	0.00153639	4	1.2229e-05	13	0	4.8209	6.11574e-07
2	0	0	1	0	1	65.2199	0.402252	0.402007	0.00238686	4	1.28657e-05	13	0	5.2203	9.59533e-07
2	1	0	1	0	1	65.6194	0.406246	0.406036	0.0019359	4	1.34977e-05	13	0	5.6198	7.86044e-07
2	1	0	1	0	1	66.0189	0.410241	0.410039	0.00099096	4	1.41432e-05	13	0	6.0193	4.06333e-07
2	0	0	1	0	1	66.4183	0.414235	0.414023	0.00131031	4	1.47817e-05	13	0	6.4187	5.42498e-07
2	0	0	1	0	1	66.8177	0.41823	0.41799	0.00212764	4	1.53897e-05	13	0	6.8181	8.89331e-07
2	1	0	1	0	1	67.2172	0.422225	0.421975	0.0014429	4	1.59909e-05	13	0	7.2176	6.08867e-07
2	1	0	1	0	1	67.6167	0.426219	0.425969	0.000815063	4	1.66111e-05	13	0	7.6171	3.47192e-07
2	0	0	1	0	1	68.0161	0.430213	0.430006	0.00134596	4	1.72175e-05	13	0	8.0165	5.78772e-07
2	0	0	1	0	1	68.4155	0.434208	0.433951	0.00197823	4	1.77998e-05	13	0	8.4159	8.58458e-07
2	1	0	1	0	1	68.815	0.438203	0.437956	0.00153681	4	1.83773e-05	13	0	8.8154	6.73053e-07
2	1	0	1	0	1	69.2144	0.442196	0.441947	0.000842615	4	1.89679e-05	13	0	9.2148	3.72392e-07
2	0	0	1	0	1	69.6139	0.446191	0.445951	0.00108746	4	1.95538e-05	13	0	9.6143	4.84955e-07
2	0	0	0	0	1	69.9908	0.449961	0.449773	3.80316e-05	4	2.00819e-05	13	0	9.9912	1.71056e-08
2	0	0	1	0	1	70.3196	0.446741	0.446501	-0.00175446	4	1.97554e-05	13	0	0.327	-7.83367e-07
2	0	0	1	0	1	70.7191	0.442746	0.442452	-0.00117816	4	1.92983e-05	13	0	0.7265	-5.21278e-07
2	0	0	1	0	1	71.1185	0.438751	0.438498	-0.000814767	4	1.88033e-05	13	0	1.1259	-3.57274e-07
2	0	0	1	0	1	71.5179	0.434757	0.434453	-0.00147526	4	1.82976e-05	13	0	1.5253	-6.40931e-07
2	0	0	1	0	1	71.9174	0.430762	0.430491	-0.00214865	4	1.77957e-05	13	0	1.9248	-9.24973e-07
2	0	0	1	0	1	72.3169	0.426768	0.426453	-0.00168517	4	1.72777e-05	13	0	2.3243	-7.18645e-07
2	0	0	1	0	1	72.7163	0.422774	0.42247	-0.000960266	4	1.67293e-05	13	0	2.7237	-4.05684e-07
2	0	0	1	0	1	73.1157	0.418779	0.418558	-0.00119809	4	1.61668e-05	13	0	3.1231	-5.0147e-07
2	0	0	1	0	1	73.5152	0.414784	0.414567	-0.00207019	4	1.56089e-05	13	0	3.5226	-8.58235e-07
2	0	0	1	0	1	73.9146	0.410791	0.41051	-0.00205084	4	1.5048e-05	13	0	3.922	-8.4189e-07
2	0	0	1	0	1	74.3141	0.406796	0.406546	-0.0011242	4	1.44587e-05	13	0	4.3215	-4.5704e-07
2	1	0	1	0	1	74.7135	0.402801	0.402468	-0.000947823	4	1.38402e-05	13	0	4.7209	-3.81468e-07
2	1	0	1	0	1	75.1129	0.398807	0.398574	-0.00183652	4	1.32266e-05	13	0	5.1203	-7.31989e-07
2	1	0	1	0	1	75.5124	0.394813	0.394509	-0.00223027	4	1.26196e-05	13	0	5.5198	-8.79863e-07
2	0	0	1	0	1	75.9119	0.390818	0.390549	-0.0014113	4	1.1988e-05	13	0	5.9193	-5.51182e-07
2	1	0	1	0	1	76.3113	0.386823	0.386528	-0.000818014	4	1.13242e-05	13	0	6.3187	-3.16185e-07
2	1	0	1	0	1	76.7107	0.382829	0.382539	-0.00160518	4	1.06545e-05	13	0	6.7181	-6.14044e-07
2	1	0	1	0	1	77.1102	0.378834	0.378501	-0.00238101	4	9.99268e-06	13	0	7.1176	-9.01213e-07
2	0	0	1	0	1	77.5097	0.37484	0.374586	-0.00171834	4	9.31342e-06	13	0	7.5171	-6.43668e-07
2	0	0	1	0	1	77.9091	0.370846	0.370588	-0.000925771	4	8.593e-06	13	0	7.9165	-3.4308e-07
2	1	0	1	0	1	78.3085	0.366851	0.36655	-0.00165346	4	7.86262e-06	13	0	8.3159	-6.06076e-07
2	1	0	1	0	1	78.708	0.362856	0.362589	-0.00261993	4	7.14145e-06	13	0	8.7154	-9.49958e-07
2	0	0	1	0	1	79.1074	0.358863	0.358603	-0.00205216	4	6.40433e-06	13	0	9.1148	-7.3591e-07
2	0	0	1	0	1	79.5069	0.354868	0.354554	-0.00110384	4	5.62323e-06	13	0	9.5143	-3.91371e-07
2	0	0	1	0	1	79.9063	0.350873	0.350615	-0.00179709	4	4.82892e-06	13	0	9.9137	-6.30088e-07
2	1	0	1	0	0	80.1735	0.351822	0.351537	0.00126646	5	4.95437e-06	13	0	0.1498	4.45207e-07
2	1	0	1	0	0	80.573	0.355817	0.355568	0.00139172	5	5.66705e-06	13	0	0.5493	4.94849e-07
2	1	0	1	0	0	80.9725	0.359811	0.359565	0.0025981	5	6.37384e-06	13	0	0.9488	9.34186e-07
2	1	0	1	0	0	81.3719	0.363805	0.36357	0.00254526	5	7.06776e-06	13	0	1.3482	9.25382e-07
2	1	0	1	0	0	81.7713	0.3678	0.367511	0.00143493	5	7.78235e-06	13	0	1.7476	5.27353e-07
2	1	0	1	0	0	82.1708	0.371795	0.371582	0.00128639	5	8.5055e-06	13	0	2.1471	4.77998e-07
2	1	0	1	0	0	82.5702	0.375788	0.37554	0.00223413	5	9.20529e-06	13	0	2.5465	8.39003e-07
2	1	0	1	0	0	82.9697	0.379783	0.379571	0.00264403	5	9.87972e-06	13	0	2.946	1.0036e-06
2	1	0	1	0	0	83.3691	0.383778	0.383478	0.00189234	5	1.05559e-05	13	0	3.3454	7.25672e-07
2	1	0	1	0	0	83.7685	0.387772	0.387565	0.00112444	5	1.12419e-05	13	0	3.7448	4.35794e-07
2	0	0	1	0	0	84.168	0.391766	0.391551	0.00133427	5	1.19216e-05	13	0	4.1443	5.22435e-07
2	0	0	1	0	0	84.5675	0.395761	0.395514	0.00218373	5	1.25772e-05	13	0	4.5438	8.63697e-07
2	1	0	1	0	0	84.9669	0.399755	0.399514	0.00221433	5	1.3213e-05	13	0	4.9432	8.84656e-07
2	1	0	1	0	0	85.3663	0.40375	0.403511	0.00137909	5	1.38541e-05	13	0	5.3426	5.5648e-07
2	1	0	1	0	0	85.7658	0.407745	0.407493	0.000887566	5	1.45069e-05	13	0	5.7421	3.61677e-07
2	0	0	1	0	0	86.1653	0.411739	0.41154	0.00135682	5	1.51426e-05	13	0	6.1416	5.58388e-07
2	0	0	1	0	0	86.5647	0.415733	0.41553	0.00207229	5	1.57565e-05	13	0	6.541	8.611e-07
2	1	0	1	0	0	86.9641	0.419728	0.419515	0.00188714	5	1.6358e-05	13	0	6.9404	7.91685e-07
2	1	0	1	0	0	87.3636	0.423723	0.423473	0.00107752	5	1.69675e-05	13	0	7.3399	4.563e-07
2	0	0	1	0	0	87.763	0.427716	0.427474	0.000860053	5	1.75808e-05	13	0	7.7393	3.67651e-07
2	0	0	1	0	0	88.1625	0.431711	0.431457	0.00154676	5	1.81789e-05	13	0	8.1388	6.6736e-07
2	0	0	1	0	0	88.5619	0.435706	0.435479	0.00207195	5	1.87538e-05	13	0	8.5382	9.02292e-07
2	1	0	1	0	0	88.9613	0.4397	0.439496	0.00155529	5	1.9329e-05	13	0	8.9376	6.83544e-07
2	1	0	1	0	0	89.3608	0.443694	0.443461	0.000928816	5	1.99132e-05	13	0	9.3371	4.11894e-07
2	0	0	1	0	0	89.7603	0.447689	0.44751	0.00111833	5	2.04933e-05	13	0	9.7366	5.00463e-07
2	1	0	1	0	0	90.0665	0.449237	0.448992	-0.00168228	5	2.0733e-05	13	0	0.0499	-7.55331e-07
2	0	0	1	0	0	90.466	0.445242	0.444982	-0.00163634	5	2.0311e-05	13	0	0.4494	-7.28142e-07
2	0	0	1	0	0	90.8655	0.441248	0.441022	-0.000957442	5	1.98396e-05	13	0	0.8489	-4.22253e-07
2	0	0	1	0	0	91.2649	0.437253	0.437023	-0.000881328	5	1.93393e-05	13	0	1.2483	-3.85161e-07
2	1	0	1	0	0	91.6643	0.433259	0.433021	-0.00173457	5	1.88352e-05	13	0	1.6477	-7.51103e-07
2	0	0	1	0	0	92.0638	0.429264	0.428968	-0.00201056	5	1.8332e-05	13	0	2.0472	-8.62465e-07
2	0	0	1	0	0	92.4632	0.425271	0.425038	-0.00135899	5	1.78059e-05	13	0	2.4466	-5.77622e-07
2	0	0	1	0	0	92.8627	0.421276	0.420994	-0.000855142	5	1.72516e-05	13	0	2.8461	-3.6001e-07
2	1	0	1	0	0	93.2621	0.417281	0.417038	-0.0012909	5	1.66887e-05	13	0	3.2455	-5.38354e-07
2	1	0	1	0	0	93.6616	0.413286	0.41306	-0.0020114	5	1.61307e-05	13	0	3.645	-8.30829e-07
2	0	0	1	0	0	94.061	0.409293	0.409089	-0.00179279	5	1.55663e-05	13	0	4.0444	-7.33412e-07
2	0	0	1	0	0	94.4605	0.405298	0.405006	-0.000835707	5	1.49662e-05	13	0	4.4439	-3.38466e-07
2	1	0	1	0	0	94.8599	0.401303	0.401014	-0.00106697	5	1.435e-05	13	0	4.8433	-4.27869e-07
2	1	0	1	0	0	95.2593	0.397309	0.397066	-0.00204558	5	1.3741e-05	13	0	5.2427	-8.12231e-07
2	0	0	1	0	0	95.6588	0.393314	0.39304	-0.00205055	5	1.31292e-05	13	0	5.6422	-8.05948e-07
2	0	0	1	0	0	96.0583	0.38932	0.389043	-0.00109219	5	1.2488e-05	13	0	6.0417	-4.2491e-07
2	1	0	1	0	0	96.4577	0.385325	0.385058	-0.00106114	5	1.1819e-05	13	0	6.4411	-4.08601e-07
2	1	0	1	0	0	96.8571	0.381331	0.381022	-0.00217196	5	1.11557e-05	13	0	6.8405	-8.27564e-07
2	0	0	1	0	0	97.2566	0.377336	0.377078	-0.00245747	5	1.04956e-05	13	0	7.24	-9.26657e-07
2	0	0	1	0	0	97.6561	0.373342	0.373063	-0.00156789	5	9.80703e-06	13	0	7.6395	-5.84921e-07
2	0	0	1	0	0	98.0555	0.369348	0.369099	-0.00115075	5	9.08753e-06	13	0	8.0389	-4.24741e-07
2	0	0	1	0	0	98.4549	0.365353	0.365064	-0.00193443	5	8.35869e-06	13	0	8.4383	-7.0619e-07
2	0	0	1	0	0	98.8544	0.361358	0.361123	-0.00283819	5	7.63584e-06	13	0	8.8378	-1.02494e-06
2	0	0	1	0	0	99.2538	0.357365	0.357137	-0.00268413	5	6.89716e-06	13	0	9.2372	-9.58605e-07
2	0	0	1	0	0	99.6533	0.35337	0.353122	-0.00177433	5	6.12901e-06	13	0	9.6367	-6.26553e-07
2	0	0	0	0	0	99.9878	0.35	0.349685	-0.00154053	5	5.47715e-06	13	0	0.000000000000000E+000	-5.38699e-07
2	1	0	1	0	1	100.32	0.35332	0.353061	0.00205958	6	5.97735e-06	13	0	0.3321	7.27158e-07
2	1	0	1	0	1	100.719	0.357315	0.357095	0.0011593	6	6.68626e-06	13	0	0.7316	4.1398e-07
2	0	0	1	0	1	101.119	0.361308	0.361046	0.00118286	6	7.41186e-06	13	0	1.131	4.27068e-07
2	0	0	1	0	1	101.518	0.365303	0.365092	0.00208743	6	8.12337e-06	13	0	1.5305	7.62105e-07
2	0	0	1	0	1	101.918	0.369298	0.369079	0.00252334	6	8.81548e-06	13	0	1.9299	9.31313e-07
2	1	0	1	0	1	102.317	0.373292	0.373035	0.00196269	6	9.50757e-06	13	0	2.3293	7.32153e-07
2	1	0	1	0	1	102.717	0.377286	0.377079	0.00112035	6	1.02064e-05	13	0	2.7288	4.22459e-07
2	0	0	1	0	1	103.116	0.381281	0.381049	0.000964601	6	1.09084e-05	13	0	3.1283	3.6756e-07
2	0	0	1	0	1	103.515	0.385275	0.384995	0.0016713	6	1.15916e-05	13	0	3.5277	6.43441e-07
2	0	0	1	0	1	103.915	0.38927	0.389026	0.00228508	6	1.22515e-05	13	0	3.9271	8.88956e-07
2	1	0	1	0	1	104.314	0.393264	0.392993	0.00195614	6	1.29036e-05	13	0	4.3266	7.68749e-07
2	1	0	1	0	1	104.714	0.397259	0.396978	0.00103353	6	1.35628e-05	13	0	4.7261	4.10289e-07
2	0	0	1	0	1	105.113	0.401253	0.401011	0.00099272	6	1.42239e-05	13	0	5.1255	3.98091e-07
2	0	0	1	0	1	105.513	0.405248	0.405006	0.0017778	6	1.48653e-05	13	0	5.5249	7.20019e-07
2	0	0	1	0	1	105.912	0.409243	0.408996	0.00227613	6	1.5485e-05	13	0	5.9244	9.30927e-07
2	1	0	1	0	1	106.312	0.413236	0.413008	0.0016265	6	1.61036e-05	13	0	6.3238	6.71759e-07
2	1	0	1	0	1	106.711	0.417231	0.417031	0.000992803	6	1.67311e-05	13	0	6.7233	4.14029e-07
2	1	0	1	0	1	107.11	0.421226	0.420958	0.00135701	6	1.73501e-05	13	0	7.1227	5.71242e-07
2	1	0	1	0	1	107.51	0.425221	0.424948	0.0021374	6	1.7946e-05	13	0	7.5222	9.08285e-07
2	1	0	1	0	1	107.909	0.429214	0.428993	0.00217336	6	1.85287e-05	13	0	7.9216	9.32355e-07
2	1	0	1	0	1	108.309	0.433209	0.432984	0.0013543	6	1.91159e-05	13	0	8.3211	5.86389e-07
2	1	0	1	0	1	108.708	0.437203	0.436973	0.00104716	6	1.97106e-05	13	0	8.7205	4.5758e-07
2	1	0	1	0	1	109.108	0.441198	0.441012	0.00154763	6	2.02911e-05	13	0	9.1199	6.82521e-07
2	1	0	1	0	1	109.507	0.445192	0.444976	0.00211724	6	2.08538e-05	13	0	9.5194	9.4212e-07
2	1	0	1	0	1	109.907	0.449187	0.448971	0.00206262	6	2.14076e-05	13	0	9.9189	9.26055e-07
2	0	0	1	0	1	110.213	0.447739	0.447514	-0.000850072	6	2.13109e-05	13	0	0.1997	-3.80419e-07
2	0	0	1	0	1	110.612	0.443744	0.443524	-0.000630082	6	2.08493e-05	13	0	0.5992	-2.79456e-07
2	1	0	1	0	1	111.012	0.43975	0.439481	-0.00119521	6	2.03673e-05	13	0	0.9987	-5.25274e-07
2	1	0	1	0	1	111.411	0.435755	0.435482	-0.00183105	6	1.98813e-05	13	0	1.3981	-7.97389e-07
2	0	0	1	0	1	111.811	0.431761	0.431462	-0.00167784	6	1.9384e-05	13	0	1.7975	-7.23923e-07
2	0	0	1	0	1	112.21	0.427766	0.42751	-0.000879117	6	1.88603e-05	13	0	2.197	-3.75831e-07
2	1	0	1	0	1	112.61	0.423773	0.423522	-0.000731739	6	1.83133e-05	13	0	2.5964	-3.09908e-07
2	1	0	1	0	1	113.009	0.419778	0.419535	-0.00145435	6	1.77643e-05	13	0	2.9959	-6.10153e-07
2	1	0	1	0	1	113.408	0.415783	0.415545	-0.00195051	6	1.72185e-05	13	0	3.3953	-8.10523e-07
2	1	0	1	0	1	113.808	0.411789	0.411596	-0.00169577	6	1.66588e-05	13	0	3.7947	-6.97972e-07
2	1	0	1	0	1	114.207	0.407795	0.407513	-0.000985768	6	1.60764e-05	13	0	4.1942	-4.01713e-07
2	1	0	1	0	1	114.607	0.4038	0.403514	-0.000758504	6	1.54671e-05	13	0	4.5937	-3.06067e-07
2	1	0	1	0	1	115.006	0.399805	0.399546	-0.00146056	6	1.48573e-05	13	0	4.9931	-5.83562e-07
2	1	0	1	0	1	115.406	0.395811	0.395508	-0.00214198	6	1.4252e-05	13	0	5.3925	-8.47173e-07
2	0	0	1	0	1	115.805	0.391816	0.391565	-0.00186959	6	1.36339e-05	13	0	5.792	-7.32066e-07
2	0	0	1	0	1	116.205	0.387822	0.387554	-0.000986279	6	1.29885e-05	13	0	6.1915	-3.82236e-07
2	1	0	1	0	1	116.604	0.383828	0.383548	-0.00101116	6	1.23182e-05	13	0	6.5909	-3.87827e-07
2	1	0	1	0	1	117.003	0.379833	0.379576	-0.00196657	6	1.16492e-05	13	0	6.9903	-7.46462e-07
2	1	0	1	0	1	117.403	0.375838	0.37557	-0.00244086	6	1.09846e-05	13	0	7.3898	-9.16713e-07
2	0	0	1	0	1	117.802	0.371845	0.371567	-0.00168437	6	1.02946e-05	13	0	7.7892	-6.25857e-07
2	0	0	1	0	1	118.202	0.36785	0.367559	-0.000982206	6	9.57021e-06	13	0	8.1887	-3.61019e-07
2	1	0	1	0	1	118.601	0.363855	0.363553	-0.00168588	6	8.83395e-06	13	0	8.5881	-6.12909e-07
2	1	0	1	0	1	119.001	0.359861	0.359597	-0.00267677	6	8.10538e-06	13	0	8.9875	-9.62558e-07
2	0	0	1	0	1	119.4	0.355867	0.355569	-0.00223793	6	7.36227e-06	13	0	9.387	-7.95737e-07
2	0	0	1	0	1	119.8	0.351872	0.351575	-0.00117475	6	6.57433e-06	13	0	9.7865	-4.13013e-07
2	1	0	1	0	0	120.067	0.350823	0.35056	0.00246925	7	6.32447e-06	13	0	0.0825	8.6562e-07
2	1	0	1	0	0	120.466	0.354818	0.354581	0.0017718	7	6.99688e-06	13	0	0.4819	6.28245e-07
2	1	0	1	0	0	120.866	0.358813	0.358584	0.00117195	7	7.71617e-06	13	0	0.8814	4.20243e-07
2	1	0	1	0	0	121.265	0.362806	0.362569	0.00161266	7	8.43704e-06	13	0	1.2808	5.84702e-07
2	1	0	1	0	0	121.665	0.366801	0.366549	0.00256708	7	9.14012e-06	13	0	1.6803	9.4096e-07
2	1	0	1	0	0	122.064	0.370796	0.370579	0.00267195	7	9.82741e-06	13	0	2.0797	9.90169e-07
2	1	0	1	0	0	122.463	0.37479	0.374544	0.00180397	7	1.05205e-05	13	0	2.4791	6.75665e-07
2	1	0	1	0	0	122.863	0.378784	0.378549	0.0011772	7	1.12242e-05	13	0	2.8786	4.45628e-07
2	1	0	1	0	0	123.262	0.382779	0.38255	0.00157971	7	1.19154e-05	13	0	3.2781	6.04319e-07
2	1	0	1	0	0	123.662	0.386773	0.386533	0.00241533	7	1.2583e-05	13	0	3.6775	9.33606e-07
2	1	0	1	0	0	124.061	0.390768	0.39049	0.00244641	7	1.32335e-05	13	0	4.0769	9.55299e-07
2	1	0	1	0	0	124.461	0.394763	0.3945	0.00155191	7	1.38887e-05	13	0	4.4764	6.12229e-07
2	1	0	1	0	0	124.86	0.398757	0.398537	0.00110163	7	1.4553e-05	13	0	4.8759	4.39039e-07
2	1	0	1	0	0	125.26	0.402751	0.402521	0.00174118	7	1.51999e-05	13	0	5.2753	7.00862e-07
2	1	0	1	0	0	125.659	0.406746	0.406539	0.00241287	7	1.58217e-05	13	0	5.6747	9.80926e-07
2	1	0	1	0	0	126.059	0.410741	0.410534	0.00186274	7	1.64382e-05	13	0	6.0742	7.6472e-07
2	1	0	1	0	0	126.458	0.414734	0.414526	0.00109277	7	1.70647e-05	13	0	6.4736	4.52981e-07
2	1	0	1	0	0	126.857	0.418729	0.418509	0.00130067	7	1.76874e-05	13	0	6.8731	5.44341e-07
2	0	0	1	0	0	127.257	0.422724	0.422482	0.00207956	7	1.8288e-05	13	0	7.2725	8.78576e-07
2	1	0	1	0	0	127.656	0.426718	0.426455	0.0021804	7	1.88737e-05	13	0	7.6719	9.2984e-07
2	1	0	1	0	0	128.056	0.430712	0.430449	0.00143869	7	1.94609e-05	13	0	8.0714	6.19283e-07
2	1	0	1	0	0	128.455	0.434707	0.434479	0.0009519	7	2.00564e-05	13	0	8.4709	4.13581e-07
2	0	0	1	0	0	128.855	0.438701	0.438509	0.00128515	7	2.06426e-05	13	0	8.8703	5.63552e-07
2	0	0	1	0	0	129.254	0.442696	0.442424	0.00198007	7	2.12086e-05	13	0	9.2697	8.76031e-07
2	1	0	1	0	0	129.654	0.446691	0.446466	0.00189588	7	2.17643e-05	13	0	9.6692	8.46447e-07
2	1	0	1	0	0	129.982	0.450011	0.449735	0.000703157	7	2.22599e-05	13	0	9.998	3.16235e-07
2	1	0	1	0	0	130.359	0.446241	0.445998	-0.000532784	7	2.18475e-05	13	0	0.3495	-2.3762e-07
2	1	0	1	0	0	130.759	0.442246	0.441968	-0.00136344	7	2.13857e-05	13	0	0.749	-6.02596e-07
2	1	0	1	0	0	131.158	0.438253	0.438017	-0.00170644	7	2.09185e-05	13	0	1.1484	-7.47449e-07
2	1	0	1	0	0	131.558	0.434258	0.434016	-0.00100132	7	2.04231e-05	13	0	1.5479	-4.34588e-07
2	1	0	1	0	0	131.957	0.430263	0.430012	-0.00058009	7	1.98974e-05	13	0	1.9473	-2.49445e-07
2	1	0	1	0	0	132.356	0.426269	0.426004	-0.0012362	7	1.9366e-05	13	0	2.3467	-5.26627e-07
2	1	0	1	0	0	132.756	0.422275	0.422036	-0.00191141	7	1.88408e-05	13	0	2.7462	-8.06683e-07
2	0	0	1	0	0	133.155	0.41828	0.417964	-0.00141179	7	1.83016e-05	13	0	3.1457	-5.90079e-07
2	0	0	1	0	0	133.555	0.414285	0.414021	-0.000699392	7	1.77301e-05	13	0	3.5451	-2.89563e-07
2	1	0	1	0	0	133.954	0.410291	0.410063	-0.00112005	7	1.71472e-05	13	0	3.9445	-4.59289e-07
2	1	0	1	0	0	134.354	0.406296	0.406022	-0.00192553	7	1.65689e-05	13	0	4.344	-7.81808e-07
2	0	0	1	0	0	134.753	0.402302	0.402001	-0.00200226	7	1.59857e-05	13	0	4.7435	-8.04911e-07
2	0	0	1	0	0	135.153	0.398307	0.397978	-0.00121471	7	1.53792e-05	13	0	5.1429	-4.8343e-07
2	0	0	1	0	0	135.552	0.394313	0.39405	-0.000863779	7	1.47437e-05	13	0	5.5423	-3.40372e-07
2	1	0	1	0	0	135.952	0.390318	0.390071	-0.00164655	7	1.41057e-05	13	0	5.9418	-6.42273e-07
2	0	0	1	0	0	136.351	0.386324	0.386062	-0.00234595	7	1.34745e-05	13	0	6.3413	-9.05681e-07
2	0	0	1	0	0	136.75	0.38233	0.382007	-0.0020544	7	1.28262e-05	13	0	6.7407	-7.84794e-07
2	0	0	1	0	0	137.15	0.378335	0.378064	-0.00118772	7	1.21499e-05	13	0	7.1401	-4.49034e-07
2	0	0	1	0	0	137.549	0.37434	0.374047	-0.00116333	7	1.14493e-05	13	0	7.5396	-4.35141e-07
2	0	0	1	0	0	137.949	0.370347	0.370077	-0.0022317	7	1.0749e-05	13	0	7.939	-8.25899e-07
2	0	0	1	0	0	138.348	0.366352	0.366001	-0.00267489	7	1.0053e-05	13	0	8.3385	-9.79013e-07
2	0	0	1	0	0	138.748	0.362357	0.362071	-0.00172061	7	9.32877e-06	13	0	8.7379	-6.22983e-07
2	0	0	1	0	0	139.147	0.358363	0.358111	-0.00122029	7	8.56444e-06	13	0	9.1373	-4.36998e-07
2	0	0	1	0	0	139.547	0.354368	0.354083	-0.00213619	7	7.79586e-06	13	0	9.5368	-7.56387e-07
2	0	0	1	0	0	139.946	0.350374	0.350085	-0.0029616	7	7.03101e-06	13	0	9.9363	-1.03681e-06
2	1	0	1	0	1	140.213	0.352321	0.352046	0.00119388	8	7.34033e-06	13	0	0.2273	4.20299e-07
2	1	0	1	0	1	140.613	0.356316	0.356017	0.00230834	8	8.03133e-06	13	0	0.6267	8.2181e-07
2	1	0	1	0	1	141.012	0.36031	0.360051	0.00272757	8	8.71936e-06	13	0	1.0261	9.82065e-07
2	1	0	1	0	1	141.412	0.364304	0.364	0.00180987	8	9.42065e-06	13	0	1.4256	6.58793e-07
2	1	0	1	0	1	141.811	0.368299	0.368006	0.00112949	8	1.0144e-05	13	0	1.8251	4.15658e-07
2	0	0	1	0	1	142.21	0.372294	0.37206	0.00178135	8	1.08503e-05	13	0	2.2245	6.62766e-07
2	1	0	1	0	1	142.61	0.376288	0.376034	0.00257019	8	1.15287e-05	13	0	2.6239	9.66478e-07
2	1	0	1	0	1	143.009	0.380282	0.380016	0.00205621	8	1.22016e-05	13	0	3.0234	7.81393e-07
2	1	0	1	0	1	143.409	0.384277	0.384004	0.00117452	8	1.28849e-05	13	0	3.4229	4.5102e-07
2	0	0	1	0	1	143.808	0.388271	0.387969	0.00110784	8	1.35676e-05	13	0	3.8223	4.29807e-07
2	0	0	1	0	1	144.208	0.392266	0.392046	0.00196162	8	1.42288e-05	13	0	4.2217	7.69046e-07
2	0	0	1	0	1	144.607	0.396261	0.395993	0.00229941	8	1.48638e-05	13	0	4.6212	9.10551e-07
2	1	0	1	0	1	145.007	0.400254	0.400014	0.0014487	8	1.55027e-05	13	0	5.0206	5.79502e-07
2	1	0	1	0	1	145.406	0.404249	0.403974	0.000891323	8	1.61526e-05	13	0	5.4201	3.60072e-07
2	0	0	1	0	1	145.805	0.408244	0.408024	0.00131827	8	1.67914e-05	13	0	5.8195	5.37886e-07
2	0	0	1	0	1	146.205	0.412238	0.41204	0.0020687	8	1.7403e-05	13	0	6.2189	8.52388e-07
2	1	0	1	0	1	146.604	0.416232	0.415987	0.00193184	8	1.80026e-05	13	0	6.6184	8.03622e-07
2	1	0	1	0	1	147.004	0.420227	0.419961	0.00102646	8	1.86108e-05	13	0	7.0179	4.31075e-07
2	0	0	1	0	1	147.403	0.424221	0.423984	0.000942362	8	1.9225e-05	13	0	7.4173	3.99546e-07
2	0	0	1	0	1	147.803	0.428216	0.42806	0.00174595	8	1.9816e-05	13	0	7.8167	7.47373e-07
2	0	0	1	0	1	148.202	0.43221	0.431946	0.00190741	8	2.03862e-05	13	0	8.2162	8.23897e-07
2	1	0	1	0	1	148.602	0.436205	0.435986	0.000977175	8	2.09659e-05	13	0	8.6157	4.26034e-07
2	0	0	1	0	1	149.001	0.440199	0.440005	0.00086006	8	2.15543e-05	13	0	9.0151	3.78431e-07
2	0	0	1	0	1	149.4	0.444194	0.443946	0.00168837	8	2.21206e-05	13	0	9.4145	7.49545e-07
2	1	0	1	0	1	149.8	0.448189	0.447957	0.00179204	8	2.26691e-05	13	0	9.814	8.02759e-07
2	0	0	1	0	1	150.106	0.448737	0.448564	-0.000543271	8	2.28148e-05	13	0	0.0999	-2.43692e-07
2	0	0	1	0	1	150.506	0.444743	0.444504	-0.000618175	8	2.23632e-05	13	0	0.4993	-2.74781e-07
2	1	0	1	0	1	150.905	0.440748	0.440515	-0.00134231	8	2.18898e-05	13	0	0.8988	-5.91306e-07
2	0	0	1	0	1	151.305	0.436755	0.436487	-0.00184216	8	2.14117e-05	13	0	1.2982	-8.04078e-07
2	0	0	1	0	1	151.704	0.43276	0.432471	-0.00138561	8	2.09143e-05	13	0	1.6977	-5.99237e-07
2	0	0	1	0	1	152.103	0.428765	0.428498	-0.000756786	8	2.03878e-05	13	0	2.0971	-3.24281e-07
2	0	0	1	0	1	152.503	0.424771	0.424534	-0.00101122	8	1.98472e-05	13	0	2.4965	-4.29296e-07
2	1	0	1	0	1	152.902	0.420776	0.420528	-0.00184953	8	1.93072e-05	13	0	2.896	-7.77779e-07
2	0	0	1	0	1	153.302	0.416782	0.416565	-0.0020245	8	1.87687e-05	13	0	3.2955	-8.43336e-07
2	0	0	1	0	1	153.701	0.412787	0.412568	-0.00126533	8	1.8205e-05	13	0	3.6949	-5.22033e-07
2	0	0	1	0	1	154.101	0.408793	0.408543	-0.000908778	8	1.76151e-05	13	0	4.0943	-3.71274e-07
2	0	0	1	0	1	154.5	0.404798	0.404514	-0.00156157	8	1.70173e-05	13	0	4.4938	-6.31676e-07
2	0	0	1	0	1	154.9	0.400804	0.400504	-0.00229145	8	1.6429e-05	13	0	4.8933	-9.17736e-07
2	0	0	1	0	1	155.299	0.39681	0.396532	-0.00197186	8	1.58286e-05	13	0	5.2927	-7.81906e-07
2	0	0	1	0	1	155.698	0.392815	0.392512	-0.00109456	8	1.51987e-05	13	0	5.6921	-4.29628e-07
2	0	0	1	0	1	156.098	0.38882	0.388568	-0.00128884	8	1.45488e-05	13	0	6.0916	-5.00803e-07
2	0	0	1	0	1	156.497	0.384827	0.384519	-0.00230309	8	1.39034e-05	13	0	6.491	-8.85584e-07
2	0	0	1	0	1	156.897	0.380832	0.380536	-0.00242829	8	1.32588e-05	13	0	6.8905	-9.2405e-07
2	0	0	1	0	1	157.296	0.376837	0.376513	-0.00147889	8	1.25836e-05	13	0	7.2899	-5.56822e-07
2	0	0	1	0	1	157.696	0.372843	0.372583	-0.00124093	8	1.18758e-05	13	0	7.6893	-4.62351e-07
2	0	0	1	0	1	158.095	0.368849	0.368606	-0.00225064	8	1.11692e-05	13	0	8.0888	-8.296e-07
2	0	0	1	0	1	158.495	0.364854	0.364539	-0.00276393	8	1.04696e-05	13	0	8.4883	-1.00756e-06
2	0	0	1	0	1	158.894	0.360859	0.360563	-0.001873	8	9.74182e-06	13	0	8.8877	-6.75335e-07
2	0	0	1	0	1	159.293	0.356865	0.356555	-0.00125991	8	8.97436e-06	13	0	9.2871	-4.49226e-07
2	0	0	1	0	1	159.693	0.35287	0.352567	-0.00222667	8	8.20033e-06	13	0	9.6866	-7.85052e-07
2	1	0	1	0	0	159.983	0.35005	0.349895	0.00324684	9	7.63868e-06	13	0	0.000000000000000E+000	1.13605e-06
2	0	0	1	0	0	160.36	0.353819	0.353573	0.00137485	9	8.2848e-06	13	0	0.3771	4.86108e-07
2	0	0	1	0	0	160.759	0.357814	0.357581	0.00251072	9	8.97488e-06	13	0	0.7765	8.97786e-07
2	1	0	1	0	0	161.158	0.361808	0.36153	0.00219584	9	9.66556e-06	13	0	1.1759	7.93862e-07
2	1	0	1	0	0	161.558	0.365802	0.365512	0.00108689	9	1.03788e-05	13	0	1.5754	3.97271e-07
2	0	0	1	0	0	161.957	0.369797	0.369536	0.0012217	9	1.10981e-05	13	0	1.9749	4.51463e-07
2	0	0	1	0	0	162.357	0.373791	0.373513	0.00216568	9	1.17913e-05	13	0	2.3743	8.08908e-07
2	0	0	1	0	0	162.756	0.377786	0.377521	0.00236067	9	1.24639e-05	13	0	2.7737	8.91203e-07
2	1	0	1	0	0	163.156	0.381781	0.381512	0.00154468	9	1.31393e-05	13	0	3.1732	5.89313e-07
2	1	0	1	0	0	163.555	0.385775	0.385491	0.000887579	9	1.38251e-05	13	0	3.5727	3.42154e-07
2	0	0	1	0	0	163.955	0.389769	0.389541	0.00136072	9	1.44986e-05	13	0	3.9721	5.30057e-07
2	0	0	1	0	0	164.354	0.393764	0.393508	0.00221323	9	1.51434e-05	13	0	4.3715	8.70925e-07
2	1	0	1	0	0	164.754	0.397759	0.397469	0.00179306	9	1.57786e-05	13	0	4.771	7.12684e-07
2	1	0	1	0	0	165.153	0.401752	0.401531	0.000903095	9	1.64261e-05	13	0	5.1704	3.62621e-07
2	0	0	1	0	0	165.552	0.405747	0.405512	0.000944407	9	1.70708e-05	13	0	5.5699	3.82969e-07
2	0	0	1	0	0	165.952	0.409742	0.409503	0.00176989	9	1.76978e-05	13	0	5.9693	7.24776e-07
2	0	0	1	0	0	166.351	0.413736	0.413506	0.0020521	9	1.82998e-05	13	0	6.3687	8.48557e-07
2	1	0	1	0	0	166.751	0.41773	0.417505	0.00127196	9	1.89051e-05	13	0	6.7682	5.31051e-07
2	1	0	1	0	0	167.15	0.421725	0.421535	0.000770838	9	1.95228e-05	13	0	7.1677	3.24936e-07
2	0	0	1	0	0	167.55	0.425719	0.425447	0.00148871	9	2.01228e-05	13	0	7.5671	6.33367e-07
2	0	0	1	0	0	167.949	0.429714	0.429508	0.00197085	9	2.06983e-05	13	0	7.9665	8.46498e-07
2	1	0	1	0	0	168.349	0.433709	0.43349	0.00132596	9	2.12737e-05	13	0	8.366	5.74791e-07
2	1	0	1	0	0	168.748	0.437703	0.437474	0.000751821	9	2.18636e-05	13	0	8.7655	3.28902e-07
2	0	0	1	0	0	169.147	0.441697	0.4415	0.00125304	9	2.24398e-05	13	0	9.1649	5.53219e-07
2	0	0	1	0	0	169.547	0.445692	0.44545	0.00190429	9	2.2995e-05	13	0	9.5643	8.48264e-07
2	1	0	1	0	0	169.946	0.449687	0.449476	0.00154749	9	2.35447e-05	13	0	9.9638	6.95559e-07
2	0	0	1	0	0	170.253	0.44724	0.446995	-0.000584523	9	2.33123e-05	13	0	0.2497	-2.61279e-07
2	0	0	1	0	0	170.652	0.443245	0.44299	-0.00114035	9	2.28504e-05	13	0	0.6491	-5.05161e-07
2	0	0	1	0	0	171.052	0.43925	0.438948	-0.00188473	9	2.2382e-05	13	0	1.0486	-8.27299e-07
2	0	0	1	0	0	171.451	0.435257	0.434994	-0.00161853	9	2.18985e-05	13	0	1.448	-7.04051e-07
2	0	0	1	0	0	171.85	0.431262	0.431023	-0.000854825	9	2.13838e-05	13	0	1.8475	-3.68449e-07
2	0	0	1	0	0	172.25	0.427267	0.427023	-0.00114255	9	2.08508e-05	13	0	2.2469	-4.87894e-07
2	0	0	1	0	0	172.649	0.423273	0.422963	-0.00199281	9	2.03228e-05	13	0	2.6463	-8.42887e-07
2	0	0	1	0	0	173.049	0.419278	0.418989	-0.00193329	9	1.97914e-05	13	0	3.0458	-8.10029e-07
2	0	0	1	0	0	173.448	0.415284	0.415019	-0.00104388	9	1.92307e-05	13	0	3.4453	-4.3323e-07
2	0	0	1	0	0	173.848	0.411289	0.41106	-0.00111313	9	1.86498e-05	13	0	3.8447	-4.57565e-07
2	0	0	1	0	0	174.247	0.407295	0.407029	-0.00201413	9	1.80722e-05	13	0	4.2441	-8.19811e-07
2	0	0	1	0	0	174.647	0.4033	0.403032	-0.00226905	9	1.74944e-05	13	0	4.6436	-9.14497e-07
2	0	0	1	0	0	175.046	0.399306	0.399061	-0.00137334	9	1.68941e-05	13	0	5.0431	-5.48046e-07
2	0	0	1	0	0	175.445	0.395312	0.394979	-0.00112887	9	1.62632e-05	13	0	5.4425	-4.45879e-07
2	0	0	1	0	0	175.845	0.391317	0.39102	-0.00209935	9	1.56355e-05	13	0	5.8419	-8.20888e-07
2	0	0	1	0	0	176.244	0.387322	0.387044	-0.00243255	9	1.50158e-05	13	0	6.2414	-9.41506e-07
2	0	0	1	0	0	176.644	0.383329	0.383065	-0.00148967	9	1.43662e-05	13	0	6.6408	-5.70642e-07
2	0	0	1	0	0	177.043	0.379334	0.379015	-0.00114414	9	1.3683e-05	13	0	7.0403	-4.33647e-07
2	0	0	1	0	0	177.443	0.375339	0.375073	-0.00217363	9	1.30025e-05	13	0	7.4397	-8.1527e-07
2	0	0	1	0	0	177.842	0.371345	0.371089	-0.00257103	9	1.23292e-05	13	0	7.8391	-9.54081e-07
2	0	0	1	0	0	178.242	0.36735	0.367058	-0.00156903	9	1.16251e-05	13	0	8.2386	-5.75924e-07
2	0	0	1	0	0	178.641	0.363356	0.363071	-0.00116673	9	1.08827e-05	13	0	8.6381	-4.23607e-07
2	0	0	1	0	0	179.04	0.359361	0.359086	-0.00223908	9	1.0141e-05	13	0	9.0375	-8.04022e-07
2	0	0	1	0	0	179.44	0.355367	0.355104	-0.00271071	9	9.40615e-06	13	0	9.4369	-9.62584e-07
2	0	0	1	0	0	179.839	0.351372	0.351114	-0.00166335	9	8.6384e-06	13	0	9.8364	-5.84024e-07
2	0	0	1	0	1	180.107	0.351322	0.351091	0.00235508	10	8.54216e-06	13	0	0.1324	8.26848e-07
2	1	0	1	0	1	180.506	0.355317	0.355039	0.00162189	10	9.21094e-06	13	0	0.5319	5.75834e-07
2	1	0	1	0	1	180.905	0.359311	0.359028	0.000854387	10	9.93138e-06	13	0	0.9313	3.06749e-07
2	0	0	1	0	1	181.305	0.363306	0.363072	0.00165508	10	1.06465e-05	13	0	1.3307	6.00913e-07
2	0	0	1	0	1	181.704	0.3673	0.367069	0.00244884	10	1.13324e-05	13	0	1.7302	8.98894e-07
2	1	0	1	0	1	182.104	0.371295	0.371076	0.00152883	10	1.20215e-05	13	0	2.1297	5.67312e-07
2	1	0	1	0	1	182.503	0.375289	0.375052	0.000839163	10	1.27306e-05	13	0	2.5291	3.1473e-07
2	0	0	1	0	1	182.903	0.379284	0.379017	0.00168138	10	1.34213e-05	13	0	2.9285	6.37271e-07
2	0	0	1	0	1	183.302	0.383279	0.383015	0.00231738	10	1.40796e-05	13	0	3.328	8.87592e-07
2	1	0	1	0	1	183.702	0.387272	0.386972	0.00146586	10	1.47395e-05	13	0	3.7274	5.67247e-07
2	1	0	1	0	1	184.101	0.391267	0.391021	0.000815902	10	1.54158e-05	13	0	4.1269	3.19035e-07
2	0	0	1	0	1	184.5	0.395262	0.394982	0.00162702	10	1.60728e-05	13	0	4.5263	6.42645e-07
2	0	0	1	0	1	184.9	0.399256	0.399026	0.00216212	10	1.66987e-05	13	0	4.9257	8.62745e-07
2	1	0	1	0	1	185.299	0.40325	0.40298	0.00126572	10	1.73285e-05	13	0	5.3252	5.10059e-07
2	1	0	1	0	1	185.699	0.407245	0.407021	0.000803517	10	1.79757e-05	13	0	5.7247	3.27048e-07
2	0	0	1	0	1	186.098	0.411239	0.411058	0.00164106	10	1.85991e-05	13	0	6.1241	6.74571e-07
2	0	0	1	0	1	186.498	0.415234	0.415046	0.00199261	10	1.91947e-05	13	0	6.5235	8.27027e-07
2	1	0	1	0	1	186.897	0.419228	0.419013	0.00109758	10	1.97967e-05	13	0	6.923	4.59898e-07
2	0	0	1	0	1	187.297	0.423223	0.422979	0.000821477	10	2.04107e-05	13	0	7.3225	3.47467e-07
2	0	0	1	0	1	187.696	0.427217	0.426961	0.00171956	10	2.10019e-05	13	0	7.7219	7.34186e-07
2	1	0	1	0	1	188.095	0.431212	0.43096	0.00182797	10	2.157e-05	13	0	8.1213	7.87781e-07
2	1	0	1	0	1	188.495	0.435207	0.434926	0.000912666	10	2.21499e-05	13	0	8.5208	3.96942e-07
2	0	0	1	0	1	188.894	0.4392	0.438959	0.00090816	10	2.27374e-05	13	0	8.9202	3.98646e-07
2	0	0	1	0	1	189.294	0.443195	0.442928	0.0017716	10	2.32999e-05	13	0	9.3197	7.84692e-07
2	1	0	1	0	1	189.693	0.44719	0.446999	0.00161766	10	2.38478e-05	13	0	9.7191	7.23093e-07
2	0	0	1	0	1	190	0.449737	0.449505	-0.000300417	10	2.42222e-05	13	0	0.0274	-1.35039e-07
2	1	0	1	0	1	190.399	0.445742	0.445513	-0.00111607	10	2.37904e-05	13	0	0.4269	-4.97222e-07
2	0	0	1	0	1	190.798	0.441747	0.44147	-0.00181565	10	2.33389e-05	13	0	0.8263	-8.01556e-07
2	0	0	1	0	1	191.198	0.437753	0.437532	-0.00134302	10	2.28624e-05	13	0	1.2257	-5.87613e-07
2	0	0	1	0	1	191.597	0.433759	0.433517	-0.0007227	10	2.23533e-05	13	0	1.6252	-3.13303e-07
2	0	0	1	0	1	191.997	0.429764	0.429537	-0.00110972	10	2.18301e-05	13	0	2.0247	-4.76665e-07
2	0	0	1	0	1	192.396	0.425769	0.425511	-0.00192558	10	2.13116e-05	13	0	2.4241	-8.19355e-07
2	0	0	1	0	1	192.796	0.421775	0.421471	-0.0018249	10	2.07879e-05	13	0	2.8235	-7.69143e-07
2	0	0	1	0	1	193.195	0.41778	0.417481	-0.000959438	10	2.02346e-05	13	0	3.223	-4.00547e-07
2	0	0	1	0	1	193.595	0.413786	0.413591	-0.00110548	10	1.96609e-05	13	0	3.6225	-4.57217e-07
2	0	0	1	0	1	193.994	0.409791	0.409537	-0.00207098	10	1.9095e-05	13	0	4.0219	-8.48142e-07
2	0	0	1	0	1	194.393	0.405797	0.4055	-0.00202395	10	1.85248e-05	13	0	4.4213	-8.20712e-07
2	0	0	1	0	1	194.793	0.401802	0.401554	-0.00101163	10	1.79236e-05	13	0	4.8208	-4.06224e-07
2	0	0	1	0	1	195.192	0.397809	0.397519	-0.00136849	10	1.73028e-05	13	0	5.2202	-5.44001e-07
2	0	0	1	0	1	195.592	0.393814	0.393561	-0.00230729	10	1.66934e-05	13	0	5.6197	-9.08062e-07
2	0	0	1	0	1	195.991	0.389819	0.389511	-0.00200239	10	1.60774e-05	13	0	6.0191	-7.79952e-07
2	0	0	1	0	1	196.391	0.385825	0.385513	-0.00108129	10	1.54231e-05	13	0	6.4185	-4.1685e-07
2	0	0	1	0	1	196.79	0.381831	0.381532	-0.00167777	10	1.47539e-05	13	0	6.818	-6.40122e-07
2	0	0	1	0	1	197.19	0.377836	0.377558	-0.00259926	10	1.40987e-05	13	0	7.2175	-9.81374e-07
2	0	0	1	0	1	197.589	0.373841	0.373602	-0.00182924	10	1.34255e-05	13	0	7.6169	-6.83408e-07
2	0	0	1	0	1	197.988	0.369847	0.369579	-0.00118034	10	1.27089e-05	13	0	8.0163	-4.3623e-07
2	0	0	1	0	1	198.388	0.365852	0.365533	-0.00230647	10	1.19907e-05	13	0	8.4158	-8.43092e-07
2	0	0	1	0	1	198.787	0.361858	0.361534	-0.00271382	10	1.12842e-05	13	0	8.8153	-9.81138e-07
2	0	0	1	0	1	199.187	0.357864	0.357578	-0.00155877	10	1.05399e-05	13	0	9.2147	-5.57381e-07
2	0	0	1	0	1	199.586	0.353869	0.353599	-0.00154902	10	9.75754e-06	13	0	9.6141	-5.47732e-07
2	0	0	1	0	1	199.966	0.350074	0.349685	-0.0014606	10	9.0472e-06	13	0	9.9937	-5.10749e-07
2	0	0	1	0	1	199.971	0.35	0.349724	-0.000913236	10	9.04111e-06	13	0	9.9986	-3.1938e-07