File: ACS_Catal_2026/Figures_Na_K/main_figures/data/EC/20251112_2-148_alpha_reproducibility/20251112_2-148_001_alpha_reproducibility_1_Na2_01_CVA_C01.mpt
EC-Lab ASCII FILE
Nb header lines : 66

Cyclic Voltammetry Advanced

Run on channel : 1 (SN 69187)
User :
CE vs. WE compliance from -10 V to 10 V
Electrode connection : standard
Potential control : Ewe
Ewe ctrl range : min = -1.00 V, max = 1.00 V
Safety Limits :
	Do not start on E overload
Acquisition started on : 11/12/2025 15:13:50.824
Loaded Setting File :  C:\Users\User\Documents\EC-Lab\Data\Yatsuzuka\20251030_2-147_gamma_reproducibility\20251030_2-147_001_gamma1_K_1.mps
Saved on :
	File : 20251112_2-148_001_alpha_reproducibility_1_Na2_01_CVA_C01.mpr
	Directory : C:\Users\User\Documents\EC-Lab\Data\Yatsuzuka\20251112_2-148_alpha_reproducibility\
	Host : 192.109.209.127
Device : SP-150e (SN .003883)
Address : 192.109.209.128
EC-LAB for windows v11.52 (software)
Internet server v11.52 (firmware)
Command interpretor v11.50 (firmware)
Electrode material :
Initial state :
Electrolyte :
Comments :
Electrode surface area : 0.001 cm2
Characteristic mass : 0.001 g
Equivalent Weight : 0.000 g/eq.
Density : 0.000 g/cm3
Volume (V) : 0.001 cm3
Cycle Definition : Charge/Discharge alternance
Ei (V)              0.350
vs.                 Ref
ti (h:m:s)          0:00:10.0000
dti (s)             0.0000
dE/dt               10.000
dE/dt unit          mV/s
E1 (V)              0.450
vs.                 Ref
t1 (h:m:s)          0:00:0.0000
dt1 (s)             0.1000
Step percent        50
N                   10
E range min (V)     -1.000
E range max (V)     1.000
I Range             Auto
I Range min         Unset
I Range max         Unset
I Range init        Unset
Bandwidth           5
E2 (V)              0.350
vs.                 Ref
t2 (h:m:s)          0:00:0.0000
dt2 (s)             0.1000
nc cycles           9
nr                  1
Reverse Scan        0
Ef (V)              0.000
vs.                 Eoc
tf (h:m:s)          0:00:0.0000
dtf (s)             0.1000

mode	ox/red	error	control changes	Ns changes	counter inc.	time/s	control/V	Ewe/V	<I>/mA	cycle number	(Q-Qo)/C	I Range	Ns	step time/s	Pwe/W	Rwe/Ohm
2	0	0	1	0	0	0.000000000000000E+000	0.34995	0.349686	-0.00118291	1	0.0000000E+000	13	0	0.000000000000000E+000	-4.13647e-07	295615
2	1	0	1	0	0	0.3769	0.353719	0.353501	0.0311598	1	1.04089e-05	13	0	0.3496	1.1015e-05	11344.8
2	1	0	1	0	0	0.7763	0.357714	0.357509	0.0360773	1	2.26582e-05	13	0	0.749	1.2898e-05	9909.53
2	1	0	1	0	0	1.1758	0.361709	0.361483	0.024472	1	3.50706e-05	13	0	1.1485	8.8462e-06	14771.3
2	1	0	1	0	0	1.5752	0.365702	0.365458	0.0342585	1	4.74287e-05	13	0	1.5479	1.252e-05	10667.7
2	1	0	1	0	0	1.9747	0.369697	0.369479	0.0325513	1	5.95955e-05	13	0	1.9474	1.2027e-05	11350.7
2	1	0	1	0	0	2.3741	0.373692	0.373459	0.0241118	1	7.17821e-05	13	0	2.3468	9.00476e-06	15488.7
2	1	0	1	0	0	2.7735	0.377686	0.377459	0.0356019	1	8.37261e-05	13	0	2.7462	1.34383e-05	10602.2
2	1	0	1	0	0	3.173	0.38168	0.381451	0.0280332	1	9.55232e-05	13	0	3.1457	1.06933e-05	13607.1
2	1	0	1	0	0	3.5725	0.385675	0.385418	0.025289	1	0.000107354	13	0	3.5452	9.74684e-06	15240.5
2	1	0	1	0	0	3.9719	0.389669	0.389409	0.0352303	1	0.000118917	13	0	3.9446	1.3719e-05	11053.2
2	1	0	1	0	0	4.3713	0.393664	0.393425	0.0241221	1	0.000130385	13	0	4.344	9.49024e-06	16309.8
2	1	0	1	0	0	4.7708	0.397659	0.397408	0.0273884	1	0.000141845	13	0	4.7435	1.08844e-05	14510.1
2	1	0	1	0	0	5.1703	0.401653	0.401413	0.0330148	1	0.000153006	13	0	5.143	1.32526e-05	12158.6
2	1	0	1	0	0	5.5697	0.405647	0.405388	0.0212572	1	0.000164147	13	0	5.5424	8.61743e-06	19070.6
2	1	0	1	0	0	5.9691	0.409642	0.409413	0.0300481	1	0.000175251	13	0	5.9418	1.23021e-05	13625.2
2	1	0	1	0	0	6.3686	0.413637	0.413434	0.0293987	1	0.00018607	13	0	6.3413	1.21544e-05	14063
2	1	0	1	0	0	6.768	0.41763	0.417436	0.0202912	1	0.000196863	13	0	6.7407	8.47026e-06	20572.3
2	1	0	1	0	0	7.1675	0.421625	0.421376	0.0317319	1	0.000207408	13	0	7.1402	1.33711e-05	13279.3
2	1	0	1	0	0	7.5669	0.42562	0.425416	0.0247962	1	0.000217817	13	0	7.5396	1.05487e-05	17156.5
2	1	0	1	0	0	7.9663	0.429614	0.429338	0.0216915	1	0.000228287	13	0	7.939	9.31298e-06	19793
2	1	0	1	0	0	8.3658	0.433608	0.433389	0.0318455	1	0.000238513	13	0	8.3385	1.38015e-05	13609.1
2	1	0	1	0	0	8.7653	0.437603	0.4374	0.0206808	1	0.000248712	13	0	8.738	9.04578e-06	21150.1
2	1	0	1	0	0	9.1647	0.441597	0.441373	0.0252106	1	0.000258947	13	0	9.1374	1.11273e-05	17507.4
2	1	0	1	0	0	9.5641	0.445592	0.445405	0.0294189	1	0.000268948	13	0	9.5368	1.31033e-05	15140.1
2	1	0	1	0	0	9.9636	0.449587	0.449369	0.0185957	1	0.000278993	13	0	9.9363	8.35635e-06	24165.1
2	0	0	1	0	0	10.3398	0.44664	0.446364	-0.0269172	1	0.0002751	13	0	0.3096	-1.20149e-05	16582.9
2	0	0	1	0	0	10.7393	0.442646	0.44237	-0.0168857	1	0.000266551	13	0	0.7091	-7.46972e-06	26198
2	0	0	1	0	0	11.1387	0.438652	0.438394	-0.0229625	1	0.000257559	13	0	1.1085	-1.00666e-05	19091.8
2	0	0	1	0	0	11.5381	0.434657	0.434403	-0.0281946	1	0.00024844	13	0	1.5079	-1.22478e-05	15407.3
2	0	0	1	0	0	11.9376	0.430662	0.430403	-0.0176984	1	0.00023897	13	0	1.9074	-7.61744e-06	24318.8
2	0	0	1	0	0	12.337	0.426669	0.426374	-0.0273197	1	0.00022932	13	0	2.3068	-1.16484e-05	15606.8
2	0	0	1	0	0	12.7365	0.422674	0.422381	-0.0275139	1	0.0002196	13	0	2.7063	-1.16214e-05	15351.5
2	0	0	1	0	0	13.1359	0.418679	0.41844	-0.0191614	1	0.000209549	13	0	3.1057	-8.01789e-06	21837.7
2	0	0	1	0	0	13.5353	0.414685	0.414443	-0.0306553	1	0.00019941	13	0	3.5051	-1.27049e-05	13519.5
2	0	0	1	0	0	13.9348	0.41069	0.410422	-0.0263584	1	0.000189158	13	0	3.9046	-1.08181e-05	15570.8
2	0	0	1	0	0	14.3343	0.406696	0.406469	-0.0217143	1	0.000178546	13	0	4.3041	-8.82619e-06	18719
2	0	0	1	0	0	14.7337	0.402701	0.402401	-0.0333746	1	0.000167805	13	0	4.7035	-1.343e-05	12057.1
2	0	0	1	0	0	15.1331	0.398707	0.398404	-0.0248893	1	0.000156923	13	0	5.1029	-9.91599e-06	16007.1
2	0	0	1	0	0	15.5326	0.394712	0.394466	-0.0259925	1	0.000145678	13	0	5.5024	-1.02531e-05	15176.2
2	0	0	1	0	0	15.9321	0.390718	0.390403	-0.0349096	1	0.000134406	13	0	5.9019	-1.36288e-05	11183.3
2	0	0	1	0	0	16.3315	0.386724	0.386428	-0.0237358	1	0.000122869	13	0	6.3013	-9.17219e-06	16280.3
2	0	0	1	0	0	16.7309	0.382729	0.382459	-0.030398	1	0.000111108	13	0	6.7007	-1.1626e-05	12581.7
2	0	0	1	0	0	17.1304	0.378734	0.378445	-0.0350065	1	9.92987e-05	13	0	7.1002	-1.3248e-05	10810.7
2	0	0	1	0	0	17.5298	0.374741	0.374512	-0.0244491	1	8.71222e-05	13	0	7.4996	-9.15647e-06	15318
2	0	0	1	0	0	17.9293	0.370746	0.370497	-0.0348741	1	7.47188e-05	13	0	7.8991	-1.29207e-05	10623.8
2	0	0	1	0	0	18.3287	0.366751	0.366442	-0.0345319	1	6.21757e-05	13	0	8.2985	-1.26539e-05	10611.7
2	0	0	1	0	0	18.7281	0.362757	0.362488	-0.0271097	1	4.9196e-05	13	0	8.6979	-9.82694e-06	13371.2
2	0	0	1	0	0	19.1276	0.358762	0.358534	-0.0398643	1	3.60386e-05	13	0	9.0974	-1.42927e-05	8993.86
2	0	0	1	0	0	19.5271	0.354768	0.354509	-0.0287568	1	2.26076e-05	13	0	9.4969	-1.01945e-05	12327.8
2	0	0	1	0	0	19.9265	0.350773	0.350499	-0.0385504	1	8.79678e-06	13	0	9.8963	-1.35119e-05	9091.98
2	1	0	1	0	1	20.2936	0.352921	0.352678	0.0272019	2	1.26904e-05	13	0	0.1947	9.59352e-06	12965.2
2	1	0	1	0	1	20.6931	0.356915	0.356653	0.0252744	2	2.43898e-05	13	0	0.5942	9.01421e-06	14111.2
2	1	0	1	0	1	21.0925	0.360909	0.360656	0.0365685	2	3.62588e-05	13	0	0.9936	1.31887e-05	9862.49
2	1	0	1	0	1	21.4919	0.364904	0.364683	0.0271766	2	4.81884e-05	13	0	1.393	9.91083e-06	13419
2	1	0	1	0	1	21.8914	0.368899	0.368606	0.0262632	2	6.023e-05	13	0	1.7925	9.68076e-06	14035.1
2	1	0	1	0	1	22.2908	0.372892	0.372679	0.0362737	2	7.20829e-05	13	0	2.1919	1.35185e-05	10274.1
2	1	0	1	0	1	22.6903	0.376887	0.376685	0.0269568	2	8.38494e-05	13	0	2.5914	1.01542e-05	13973.7
2	1	0	1	0	1	23.0897	0.380882	0.380603	0.0243926	2	9.56068e-05	13	0	2.9908	9.28391e-06	15603.2
2	1	0	1	0	1	23.4891	0.384876	0.384611	0.0347349	2	0.000107154	13	0	3.3902	1.33594e-05	11072.8
2	1	0	1	0	1	23.8886	0.38887	0.388617	0.0298072	2	0.000118524	13	0	3.7897	1.15836e-05	13037.7
2	1	0	1	0	1	24.2881	0.392865	0.392658	0.0216347	2	0.000129887	13	0	4.1892	8.49506e-06	18149.4
2	1	0	1	0	1	24.6875	0.396859	0.396576	0.030114	2	0.000141093	13	0	4.5886	1.19425e-05	13169.2
2	1	0	1	0	1	25.0869	0.400854	0.400643	0.0328692	2	0.000152091	13	0	4.988	1.31688e-05	12189
2	1	0	1	0	1	25.4864	0.404849	0.404621	0.0224476	2	0.000163083	13	0	5.3875	9.08278e-06	18025.1
2	1	0	1	0	1	25.8859	0.408843	0.408647	0.0245331	2	0.000174095	13	0	5.787	1.00254e-05	16657
2	1	0	1	0	1	26.2853	0.412837	0.412636	0.0331176	2	0.000184826	13	0	6.1864	1.36655e-05	12459.7
2	1	0	1	0	1	26.6847	0.416832	0.416635	0.0261643	2	0.000195458	13	0	6.5858	1.0901e-05	15923.8
2	1	0	1	0	1	27.0842	0.420827	0.420582	0.0202683	2	0.000206138	13	0	6.9853	8.52448e-06	20750.7
2	1	0	1	0	1	27.4836	0.42482	0.424575	0.0292978	2	0.00021664	13	0	7.3847	1.24391e-05	14491.7
2	1	0	1	0	1	27.8831	0.428815	0.428588	0.0303744	2	0.000226966	13	0	7.7842	1.30181e-05	14110.2
2	1	0	1	0	1	28.2825	0.43281	0.4326	0.0204853	2	0.000237293	13	0	8.1836	8.86195e-06	21117.5
2	1	0	1	0	1	28.6819	0.436804	0.436559	0.0224853	2	0.000247557	13	0	8.583	9.81616e-06	19415.3
2	1	0	1	0	1	29.0814	0.440798	0.440586	0.031421	2	0.000257677	13	0	8.9825	1.38437e-05	14022
2	1	0	1	0	1	29.4809	0.444793	0.444578	0.0256804	2	0.000267712	13	0	9.382	1.1417e-05	17311.9
2	1	0	1	0	1	29.8803	0.448787	0.448566	0.018521	2	0.000277761	13	0	9.7814	8.3079e-06	24219.2
2	0	0	1	0	1	30.2865	0.44714	0.446916	-0.0156563	2	0.000275625	13	0	0.2447	-6.99707e-06	28545.4
2	0	0	1	0	1	30.6859	0.443145	0.442918	-0.0179058	2	0.00026705	13	0	0.6441	-7.93081e-06	24736
2	0	0	1	0	1	31.0853	0.439151	0.438929	-0.0280335	2	0.000258166	13	0	1.0435	-1.23047e-05	15657.3
2	0	0	1	0	1	31.4848	0.435156	0.434875	-0.0254342	2	0.000249042	13	0	1.443	-1.10607e-05	17098
2	0	0	1	0	1	31.8843	0.431162	0.430919	-0.0173173	2	0.000239605	13	0	1.8425	-7.46233e-06	24883.8
2	0	0	1	0	1	32.2837	0.427167	0.426887	-0.0237104	2	0.000229953	13	0	2.2419	-1.01217e-05	18004.2
2	0	0	1	0	1	32.6831	0.423173	0.422912	-0.0309298	2	0.00022021	13	0	2.6413	-1.30806e-05	13673.3
2	0	0	1	0	1	33.0826	0.419178	0.418893	-0.0233476	2	0.000210248	13	0	3.0408	-9.78014e-06	17941.6
2	0	0	1	0	1	33.482	0.415185	0.414959	-0.0199179	2	0.000200001	13	0	3.4402	-8.26513e-06	20833.4
2	0	0	1	0	1	33.8815	0.41119	0.410946	-0.0302982	2	0.00018965	13	0	3.8397	-1.24509e-05	13563.4
2	0	0	1	0	1	34.2809	0.407195	0.406905	-0.030012	2	0.000179202	13	0	4.2391	-1.2212e-05	13558.1
2	0	0	1	0	1	34.6804	0.4032	0.402929	-0.0207196	2	0.000168411	13	0	4.6386	-8.34852e-06	19446.8
2	0	0	1	0	1	35.0798	0.399207	0.39896	-0.0270461	2	0.000157509	13	0	5.038	-1.07903e-05	14751.1
2	0	0	1	0	1	35.4793	0.395212	0.394928	-0.0340926	2	0.000146514	13	0	5.4375	-1.34641e-05	11584
2	0	0	1	0	1	35.8787	0.391217	0.390918	-0.0244256	2	0.000135258	13	0	5.8369	-9.5484e-06	16004.4
2	0	0	1	0	1	36.2781	0.387223	0.386947	-0.0251727	2	0.000123733	13	0	6.2363	-9.7405e-06	15371.7
2	0	0	1	0	1	36.6776	0.383229	0.382947	-0.0357087	2	0.000112136	13	0	6.6358	-1.36746e-05	10724.2
2	0	0	1	0	1	37.0771	0.379234	0.37897	-0.0286598	2	0.000100336	13	0	7.0353	-1.08612e-05	13223.1
2	0	0	1	0	1	37.4765	0.375239	0.375045	-0.0248265	2	8.81892e-05	13	0	7.4347	-9.31104e-06	15106.7
2	0	0	1	0	1	37.8759	0.371245	0.370991	-0.0364034	2	7.58794e-05	13	0	7.8341	-1.35053e-05	10191.1
2	0	0	1	0	1	38.2754	0.36725	0.366964	-0.0331569	2	6.33841e-05	13	0	8.2336	-1.21674e-05	11067.5
2	0	0	1	0	1	38.6749	0.363256	0.362987	-0.0259519	2	5.05226e-05	13	0	8.6331	-9.42022e-06	13986.9
2	0	0	1	0	1	39.0743	0.359262	0.35903	-0.0371208	2	3.74358e-05	13	0	9.0325	-1.33275e-05	9671.94
2	0	0	1	0	1	39.4737	0.355267	0.354985	-0.0366021	2	2.41427e-05	13	0	9.4319	-1.29932e-05	9698.46
2	0	0	1	0	1	39.8732	0.351272	0.351023	-0.0280377	2	1.04046e-05	13	0	9.8314	-9.84186e-06	12519.7
2	1	0	1	0	0	40.2253	0.352271	0.352019	0.0306533	3	9.83674e-06	12	0	0.1948	1.07905e-05	11483.9
2	1	0	1	0	0	40.6397	0.356416	0.356203	0.0321397	3	2.17002e-05	13	0	0.6092	1.14482e-05	11083
2	1	0	1	0	0	41.0391	0.36041	0.360161	0.0234038	3	3.36283e-05	13	0	1.0086	8.42916e-06	15389
2	1	0	1	0	0	41.4386	0.364405	0.364144	0.0321449	3	4.56411e-05	13	0	1.4081	1.17054e-05	11328.2
2	1	0	1	0	0	41.8381	0.368399	0.368181	0.0349434	3	5.75112e-05	13	0	1.8076	1.28655e-05	10536.5
2	1	0	1	0	0	42.2375	0.372393	0.372157	0.0239711	3	6.93818e-05	13	0	2.207	8.92101e-06	15525.2
2	1	0	1	0	0	42.6369	0.376388	0.376146	0.029019	3	8.11979e-05	13	0	2.6064	1.09154e-05	12962.1
2	1	0	1	0	0	43.0364	0.380383	0.380158	0.0353597	3	9.28068e-05	13	0	3.0059	1.34423e-05	10751.2
2	1	0	1	0	0	43.4358	0.384376	0.384127	0.0246673	3	0.000104393	13	0	3.4053	9.47539e-06	15572.3
2	1	0	1	0	0	43.8353	0.388371	0.388097	0.025543	3	0.000115953	13	0	3.8048	9.91317e-06	15193.9
2	1	0	1	0	0	44.2347	0.392366	0.392146	0.0347923	3	0.000127258	13	0	4.2042	1.36436e-05	11271.1
2	1	0	1	0	0	44.6342	0.396361	0.396181	0.0259013	3	0.000138465	13	0	4.6037	1.02616e-05	15295.8
2	1	0	1	0	0	45.0336	0.400354	0.400072	0.0227565	3	0.000149672	13	0	5.0031	9.10424e-06	17580.6
2	1	0	1	0	0	45.4331	0.404349	0.404109	0.0332801	3	0.000160673	13	0	5.4026	1.34488e-05	12142.6
2	1	0	1	0	0	45.8325	0.408344	0.408162	0.0274136	3	0.00017159	13	0	5.802	1.11892e-05	14889
2	1	0	1	0	0	46.2319	0.412338	0.412149	0.0207659	3	0.000182442	13	0	6.2014	8.55864e-06	19847.4
2	1	0	1	0	0	46.6314	0.416332	0.416108	0.0308644	3	0.000193116	13	0	6.6009	1.28429e-05	13481.8
2	1	0	1	0	0	47.0309	0.420327	0.420091	0.0292555	3	0.000203642	13	0	7.0004	1.229e-05	14359.4
2	1	0	1	0	0	47.4303	0.424321	0.42407	0.019652	3	0.000214198	13	0	7.3998	8.33383e-06	21579
2	1	0	1	0	0	47.8297	0.428316	0.428086	0.0277605	3	0.000224654	13	0	7.7992	1.18839e-05	15420.6
2	1	0	1	0	0	48.2292	0.432311	0.432122	0.0304261	3	0.000234921	13	0	8.1987	1.31478e-05	14202.4
2	1	0	1	0	0	48.6287	0.436305	0.436085	0.01966	3	0.000245217	13	0	8.5982	8.57343e-06	22181.3
2	1	0	1	0	0	49.0281	0.440299	0.440036	0.0247919	3	0.000255446	13	0	8.9976	1.09093e-05	17749.2
2	1	0	1	0	0	49.4275	0.444294	0.444075	0.0308819	3	0.000265466	13	0	9.397	1.37139e-05	14379.8
2	1	0	1	0	0	49.827	0.448289	0.448083	0.0200585	3	0.000275504	13	0	9.7965	8.98788e-06	22338.8
2	0	0	1	0	0	50.2331	0.447639	0.447368	-0.0183716	3	0.000277006	13	0	0.1298	-8.21888e-06	24351
2	0	0	1	0	0	50.6326	0.443644	0.443386	-0.0172361	3	0.000268504	13	0	0.5293	-7.64225e-06	25724.3
2	0	0	1	0	0	51.032	0.439651	0.439408	-0.0285283	3	0.000259661	13	0	0.9287	-1.25355e-05	15402.5
2	0	0	1	0	0	51.4315	0.435656	0.435341	-0.0226109	3	0.000250555	13	0	1.3282	-9.84344e-06	19253.6
2	0	0	1	0	0	51.8309	0.431661	0.431421	-0.0183975	3	0.000241087	13	0	1.7276	-7.93705e-06	23450
2	0	0	1	0	0	52.2303	0.427667	0.427395	-0.0296424	3	0.000231521	13	0	2.127	-1.2669e-05	14418.4
2	0	0	1	0	0	52.6298	0.423673	0.423405	-0.0260615	3	0.00022182	13	0	2.5265	-1.10346e-05	16246.4
2	0	0	1	0	0	53.0293	0.419678	0.419453	-0.019085	3	0.000211823	13	0	2.926	-8.00528e-06	21978.1
2	0	0	1	0	0	53.4287	0.415683	0.415472	-0.0297307	3	0.000201699	13	0	3.3254	-1.23523e-05	13974.5
2	0	0	1	0	0	53.8281	0.411689	0.411483	-0.0287344	3	0.000191494	13	0	3.7248	-1.18237e-05	14320.2
2	0	0	1	0	0	54.2276	0.407694	0.407441	-0.0201114	3	0.000180963	13	0	4.1243	-8.19421e-06	20259.2
2	0	0	1	0	0	54.6271	0.4037	0.403419	-0.0308457	3	0.000170238	13	0	4.5238	-1.24437e-05	13078.6
2	0	0	1	0	0	55.0265	0.399705	0.399391	-0.0304198	3	0.000159518	13	0	4.9232	-1.21494e-05	13129.3
2	0	0	1	0	0	55.4259	0.395711	0.395447	-0.0215412	3	0.00014848	13	0	5.3226	-8.51838e-06	18357.7
2	0	0	1	0	0	55.8254	0.391716	0.391477	-0.0313316	3	0.000137256	13	0	5.7221	-1.22656e-05	12494.6
2	0	0	1	0	0	56.2248	0.387723	0.387417	-0.0329345	3	0.000125947	13	0	6.1215	-1.27594e-05	11763.2
2	0	0	1	0	0	56.6243	0.383728	0.383458	-0.0230294	3	0.000114299	13	0	6.521	-8.83079e-06	16650.8
2	0	0	1	0	0	57.0237	0.379733	0.37951	-0.0318146	3	0.000102427	13	0	6.9204	-1.2074e-05	11928.8
2	0	0	1	0	0	57.4231	0.375739	0.375501	-0.0355799	3	9.04702e-05	13	0	7.3198	-1.33603e-05	10553.7
2	0	0	1	0	0	57.8226	0.371745	0.371522	-0.025239	3	7.81353e-05	13	0	7.7193	-9.37684e-06	14720.2
2	0	0	1	0	0	58.2221	0.36775	0.36746	-0.0317316	3	6.55364e-05	13	0	8.1188	-1.16601e-05	11580.2
2	0	0	1	0	0	58.6215	0.363755	0.363509	-0.0382779	3	5.28528e-05	13	0	8.5182	-1.39143e-05	9496.57
2	0	0	1	0	0	59.0209	0.359761	0.359477	-0.0280658	3	3.98275e-05	13	0	8.9176	-1.0089e-05	12808.3
2	0	0	1	0	0	59.4204	0.355766	0.355543	-0.0317173	3	2.64421e-05	13	0	9.3171	-1.12769e-05	11209.8
2	0	0	1	0	0	59.8199	0.351772	0.351462	-0.0410366	3	1.29035e-05	13	0	9.7166	-1.44228e-05	8564.61
2	1	0	1	0	1	60.157	0.351623	0.351336	0.032291	4	8.71624e-06	12	0	0.0649	1.1345e-05	10880.3
2	1	0	1	0	1	60.5864	0.355917	0.355702	0.0289573	4	2.06865e-05	13	0	0.4943	1.03002e-05	12283.7
2	1	0	1	0	1	60.9858	0.35991	0.359633	0.0360022	4	3.24483e-05	13	0	0.8937	1.29476e-05	9989.2
2	1	0	1	0	1	61.3853	0.363905	0.36368	0.0250735	4	4.43971e-05	13	0	1.2932	9.11875e-06	14504.6
2	1	0	1	0	1	61.7847	0.3679	0.36763	0.0282464	4	5.6402e-05	13	0	1.6926	1.03842e-05	13015.1
2	1	0	1	0	1	62.1841	0.371894	0.371699	0.0363027	4	6.82435e-05	13	0	2.092	1.34937e-05	10238.9
2	1	0	1	0	1	62.5836	0.375888	0.375696	0.0249181	4	8.00301e-05	13	0	2.4915	9.36163e-06	15077.2
2	1	0	1	0	1	62.9831	0.379883	0.379639	0.0273927	4	9.17862e-05	13	0	2.891	1.03993e-05	13859.1
2	1	0	1	0	1	63.3825	0.383877	0.383585	0.035324	4	0.000103306	13	0	3.2904	1.35498e-05	10859
2	1	0	1	0	1	63.7819	0.387872	0.387579	0.024885	4	0.000114762	13	0	3.6898	9.64491e-06	15574.8
2	1	0	1	0	1	64.1814	0.391867	0.391605	0.0257875	4	0.000126199	13	0	4.0893	1.00985e-05	15185.9
2	1	0	1	0	1	64.5809	0.395861	0.395618	0.0345801	4	0.000137399	13	0	4.4888	1.36805e-05	11440.6
2	1	0	1	0	1	64.9803	0.399855	0.399631	0.0241791	4	0.00014852	13	0	4.8882	9.66271e-06	16528
2	1	0	1	0	1	65.3797	0.40385	0.403594	0.0251859	4	0.000159637	13	0	5.2876	1.01649e-05	16024.6
2	1	0	1	0	1	65.7792	0.407845	0.407628	0.0339717	4	0.000170574	13	0	5.6871	1.38478e-05	11999.1
2	1	0	1	0	1	66.1786	0.411838	0.411653	0.0231097	4	0.000181395	13	0	6.0865	9.51317e-06	17813
2	1	0	1	0	1	66.5781	0.415833	0.415644	0.0247783	4	0.000192199	13	0	6.486	1.02989e-05	16774.5
2	1	0	1	0	1	66.9775	0.419828	0.419654	0.0329276	4	0.000202744	13	0	6.8854	1.38182e-05	12744.7
2	1	0	1	0	1	67.3769	0.423822	0.423561	0.0226315	4	0.000213252	13	0	7.2848	9.58579e-06	18715.6
2	1	0	1	0	1	67.7764	0.427816	0.427596	0.0238124	4	0.000223774	13	0	7.6843	1.01821e-05	17956.8
2	1	0	1	0	1	68.1759	0.431811	0.431599	0.0322977	4	0.000234071	13	0	8.0838	1.39397e-05	13363.1
2	1	0	1	0	1	68.5753	0.435805	0.43558	0.0221929	4	0.000244327	13	0	8.4832	9.6668e-06	19627
2	1	0	1	0	1	68.9747	0.4398	0.439571	0.0230921	4	0.000254612	13	0	8.8826	1.01506e-05	19035.6
2	1	0	1	0	1	69.3742	0.443795	0.443576	0.0319385	4	0.000264669	13	0	9.2821	1.41671e-05	13888.5
2	1	0	1	0	1	69.7737	0.447789	0.447595	0.0218901	4	0.000274696	13	0	9.6816	9.7979e-06	20447.4
2	0	0	1	0	1	70.1499	0.448438	0.448224	-0.0237403	4	0.00027854	12	0	0.1299	-1.0641e-05	18880.3
2	0	0	1	0	1	70.5793	0.444144	0.443914	-0.0166375	4	0.000269264	13	0	0.5593	-7.3856e-06	26681.5
2	0	0	1	0	1	70.9787	0.440149	0.439907	-0.0283284	4	0.000260473	13	0	0.9587	-1.24619e-05	15528.8
2	0	0	1	0	1	71.3781	0.436155	0.435888	-0.0230824	4	0.000251413	13	0	1.3581	-1.00614e-05	18884
2	0	0	1	0	1	71.7776	0.43216	0.431907	-0.0186426	4	0.000241977	13	0	1.7576	-8.05187e-06	23167.8
2	0	0	1	0	1	72.1771	0.428166	0.42792	-0.0298226	4	0.000232432	13	0	2.1571	-1.27617e-05	14348.9
2	0	0	1	0	1	72.5765	0.424172	0.423874	-0.0244791	4	0.000222757	13	0	2.5565	-1.03761e-05	17315.8
2	0	0	1	0	1	72.9759	0.420177	0.419948	-0.01987	4	0.000212782	13	0	2.9559	-8.34436e-06	21134.8
2	0	0	1	0	1	73.3754	0.416182	0.415987	-0.0314916	4	0.000202702	13	0	3.3554	-1.31001e-05	13209.4
2	0	0	1	0	1	73.7748	0.412189	0.411975	-0.0258506	4	0.000192489	13	0	3.7548	-1.06498e-05	15936.7
2	0	0	1	0	1	74.1743	0.408194	0.407911	-0.0211847	4	0.00018196	13	0	4.1543	-8.64144e-06	19255
2	0	0	1	0	1	74.5737	0.404199	0.403904	-0.0327008	4	0.000171302	13	0	4.5537	-1.3208e-05	12351.5
2	0	0	1	0	1	74.9731	0.400205	0.399915	-0.026422	4	0.000160562	13	0	4.9531	-1.05666e-05	15135.7
2	0	0	1	0	1	75.3726	0.39621	0.395953	-0.0230913	4	0.000149489	13	0	5.3526	-9.14308e-06	17147.3
2	0	0	1	0	1	75.7721	0.392216	0.391935	-0.0345231	4	0.000138353	13	0	5.7521	-1.35308e-05	11352.8
2	0	0	1	0	1	76.1715	0.388221	0.387925	-0.0267764	4	0.000127024	13	0	6.1515	-1.03872e-05	14487.6
2	0	0	1	0	1	76.5709	0.384227	0.383967	-0.0253729	4	0.000115323	13	0	6.5509	-9.74234e-06	15133
2	0	0	1	0	1	76.9704	0.380232	0.379987	-0.0364031	4	0.000103552	13	0	6.9504	-1.38327e-05	10438.3
2	0	0	1	0	1	77.3699	0.376238	0.37598	-0.0276382	4	9.15666e-05	13	0	7.3499	-1.03914e-05	13603.6
2	0	0	1	0	1	77.7693	0.372244	0.372016	-0.0274451	4	7.92347e-05	13	0	7.7493	-1.021e-05	13554.9
2	0	0	1	0	1	78.1687	0.368249	0.367985	-0.0383542	4	6.67973e-05	13	0	8.1487	-1.41137e-05	9594.39
2	0	0	1	0	1	78.5682	0.364254	0.363953	-0.0292092	4	5.40407e-05	13	0	8.5482	-1.06308e-05	12460.2
2	0	0	1	0	1	78.9676	0.360261	0.360029	-0.0296745	4	4.09354e-05	13	0	8.9476	-1.06837e-05	12132.6
2	0	0	1	0	1	79.3671	0.356266	0.356015	-0.040152	4	2.77296e-05	13	0	9.3471	-1.42947e-05	8866.69
2	0	0	1	0	1	79.7665	0.352271	0.351974	-0.0304975	4	1.41915e-05	13	0	9.7465	-1.07343e-05	11541.1
2	1	0	1	0	0	80.0887	0.350973	0.350662	0.016613	5	6.8875e-06	13	0	0.000000000000000E+000	5.82555e-06	21107.7
2	1	0	1	0	0	80.5331	0.355417	0.355189	0.0343627	5	1.87682e-05	13	0	0.4444	1.22053e-05	10336.5
2	1	0	1	0	0	80.9325	0.359411	0.359187	0.0236681	5	3.06594e-05	13	0	0.8438	8.50128e-06	15176
2	1	0	1	0	0	81.3319	0.363406	0.363167	0.0316326	5	4.26776e-05	13	0	1.2432	1.14879e-05	11480.8
2	1	0	1	0	0	81.7314	0.367401	0.367203	0.0339797	5	5.4553e-05	13	0	1.6427	1.24775e-05	10806.5
2	1	0	1	0	0	82.1308	0.371394	0.371161	0.0231151	5	6.6508e-05	13	0	2.0421	8.57943e-06	16057
2	1	0	1	0	0	82.5303	0.375389	0.375131	0.0328477	5	7.83839e-05	13	0	2.4416	1.23222e-05	11420.3
2	1	0	1	0	0	82.9297	0.379384	0.379159	0.0318672	5	9.00393e-05	13	0	2.841	1.20827e-05	11898.1
2	1	0	1	0	0	83.3291	0.383378	0.383101	0.0227342	5	0.000101759	13	0	3.2404	8.70948e-06	16851.3
2	1	0	1	0	0	83.7286	0.387372	0.387078	0.0336262	5	0.000113306	13	0	3.6399	1.3016e-05	11511.2
2	1	0	1	0	0	84.1281	0.391367	0.391207	0.0288102	5	0.00012464	13	0	4.0394	1.12707e-05	13578.8
2	1	0	1	0	0	84.5275	0.395362	0.395103	0.0228265	5	0.000136007	13	0	4.4388	9.01884e-06	17309
2	1	0	1	0	0	84.9269	0.399356	0.399108	0.0340069	5	0.00014713	13	0	4.8382	1.35724e-05	11736.1
2	1	0	1	0	0	85.3264	0.40335	0.403095	0.0250441	5	0.000158109	13	0	5.2377	1.00952e-05	16095.4
2	1	0	1	0	0	85.7259	0.407345	0.407112	0.0239178	5	0.000169169	13	0	5.6372	9.73724e-06	17021.3
2	1	0	1	0	0	86.1253	0.411339	0.411152	0.0332686	5	0.00017993	13	0	6.0366	1.36785e-05	12358.5
2	1	0	1	0	0	86.5247	0.415334	0.415119	0.0221447	5	0.000190658	13	0	6.436	9.19269e-06	18745.8
2	1	0	1	0	0	86.9242	0.419329	0.419139	0.0260384	5	0.000201362	13	0	6.8355	1.09137e-05	16096.9
2	1	0	1	0	0	87.3236	0.423322	0.423061	0.0314924	5	0.00021182	13	0	7.2349	1.33232e-05	13433.8
2	1	0	1	0	0	87.7231	0.427317	0.427081	0.0199717	5	0.000222318	13	0	7.6344	8.52953e-06	21384.3
2	1	0	1	0	0	88.1225	0.431312	0.431081	0.0283915	5	0.000232715	13	0	8.0338	1.2239e-05	15183.4
2	1	0	1	0	0	88.522	0.435307	0.435086	0.028218	5	0.000242885	13	0	8.4333	1.22773e-05	15418.7
2	1	0	1	0	0	88.9214	0.4393	0.43909	0.0192627	5	0.000253141	13	0	8.8327	8.45803e-06	22794.9
2	1	0	1	0	0	89.3209	0.443295	0.443045	0.0306183	5	0.00026327	13	0	9.2322	1.35653e-05	14470
2	1	0	1	0	0	89.7203	0.44729	0.447059	0.0240337	5	0.000273268	13	0	9.6316	1.07445e-05	18601.4
2	0	0	1	0	0	90.0965	0.448937	0.44872	-0.0216138	5	0.000278624	12	0	0.000000000000000E+000	-9.69856e-06	20760.8
2	0	0	1	0	0	90.5259	0.444643	0.444376	-0.0162414	5	0.00026975	13	0	0.4294	-7.21726e-06	27360.8
2	0	0	1	0	0	90.9253	0.440649	0.440417	-0.0283622	5	0.000261038	13	0	0.8288	-1.24912e-05	15528.3
2	0	0	1	0	0	91.3248	0.436654	0.436391	-0.0196013	5	0.000251985	13	0	1.2283	-8.55381e-06	22263.4
2	0	0	1	0	0	91.7243	0.43266	0.432406	-0.0213669	5	0.000242571	13	0	1.6278	-9.23917e-06	20237.2
2	0	0	1	0	0	92.1237	0.428665	0.428403	-0.0296783	5	0.000233118	13	0	2.0272	-1.27143e-05	14434.9
2	0	0	1	0	0	92.5231	0.424671	0.424408	-0.0185351	5	0.000223376	13	0	2.4266	-7.86644e-06	22897.5
2	0	0	1	0	0	92.9226	0.420676	0.420426	-0.0265942	5	0.000213415	13	0	2.8261	-1.11809e-05	15808.9
2	0	0	1	0	0	93.3221	0.416682	0.416394	-0.0287387	5	0.000203419	13	0	3.2256	-1.19666e-05	14489
2	0	0	1	0	0	93.7215	0.412688	0.412471	-0.019289	5	0.000193124	13	0	3.625	-7.95617e-06	21383.8
2	0	0	1	0	0	94.1209	0.408693	0.408466	-0.0305095	5	0.000182687	13	0	4.0244	-1.24621e-05	13388.2
2	0	0	1	0	0	94.5204	0.404698	0.404389	-0.0270815	5	0.000172113	13	0	4.4239	-1.09514e-05	14932.3
2	0	0	1	0	0	94.9198	0.400705	0.40044	-0.0217298	5	0.000161257	13	0	4.8233	-8.70147e-06	18428.1
2	0	0	1	0	0	95.3193	0.39671	0.396411	-0.0335626	5	0.000150327	13	0	5.2228	-1.33046e-05	11811.1
2	0	0	1	0	0	95.7187	0.392715	0.392448	-0.0248653	5	0.000139234	13	0	5.6222	-9.75835e-06	15783
2	0	0	1	0	0	96.1181	0.388721	0.388429	-0.0258539	5	0.000127832	13	0	6.0216	-1.00424e-05	15024
2	0	0	1	0	0	96.5176	0.384727	0.384422	-0.034983	5	0.000116385	13	0	6.4211	-1.34482e-05	10988.8
2	0	0	1	0	0	96.9171	0.380732	0.380485	-0.0235957	5	0.000104631	13	0	6.8206	-8.97779e-06	16125.2
2	0	0	1	0	0	97.3165	0.376737	0.376506	-0.0315272	5	9.26163e-05	13	0	7.22	-1.18702e-05	11942.2
2	0	0	1	0	0	97.7159	0.372743	0.372466	-0.0342979	5	8.05192e-05	13	0	7.6194	-1.27748e-05	10859.7
2	0	0	1	0	0	98.1154	0.368748	0.368479	-0.0247617	5	6.80276e-05	13	0	8.0189	-9.12416e-06	14881
2	0	0	1	0	0	98.5149	0.364754	0.364449	-0.0364871	5	5.53335e-05	13	0	8.4184	-1.32977e-05	9988.44
2	0	0	1	0	0	98.9143	0.36076	0.360476	-0.0335227	5	4.24895e-05	13	0	8.8178	-1.20842e-05	10753.2
2	0	0	1	0	0	99.3137	0.356765	0.356554	-0.0271754	5	2.92137e-05	13	0	9.2172	-9.6895e-06	13120.5
2	0	0	1	0	0	99.7132	0.35277	0.352536	-0.0396759	5	1.57271e-05	13	0	9.6167	-1.39872e-05	8885.41
2	0	0	1	0	1	100.02	0.350324	0.350038	-0.00557327	6	6.11461e-06	13	0	9.9238	-1.95086e-06	62806.5
2	1	0	1	0	1	100.48	0.354918	0.354695	0.0261011	6	1.84382e-05	13	0	0.3944	9.25795e-06	13589.3
2	1	0	1	0	1	100.879	0.358912	0.358705	0.0364404	6	3.01911e-05	13	0	0.7938	1.30714e-05	9843.6
2	1	0	1	0	1	101.279	0.362906	0.362706	0.0253923	6	4.21593e-05	13	0	1.1933	9.20994e-06	14284.1
2	1	0	1	0	1	101.678	0.366901	0.366673	0.0294199	6	5.41917e-05	13	0	1.5928	1.07875e-05	12463.4
2	1	0	1	0	1	102.077	0.370895	0.370671	0.0349955	6	6.60116e-05	13	0	1.9922	1.29718e-05	10592
2	1	0	1	0	1	102.477	0.37489	0.374692	0.0234146	6	7.78461e-05	13	0	2.3916	8.77327e-06	16002.5
2	1	0	1	0	1	102.876	0.378885	0.378624	0.0318618	6	8.96146e-05	13	0	2.7911	1.20636e-05	11883.3
2	1	0	1	0	1	103.276	0.382879	0.382629	0.0324735	6	0.000101153	13	0	3.1906	1.24253e-05	11782.8
2	1	0	1	0	1	103.675	0.386873	0.386589	0.0223187	6	0.000112719	13	0	3.59	8.62816e-06	17321.3
2	1	0	1	0	1	104.075	0.390868	0.390598	0.0332432	6	0.000124116	13	0	3.9894	1.29847e-05	11749.7
2	1	0	1	0	1	104.474	0.394863	0.394634	0.0287554	6	0.000135318	13	0	4.3889	1.13479e-05	13723.8
2	1	0	1	0	1	104.874	0.398856	0.398642	0.0228521	6	0.000146557	13	0	4.7883	9.10982e-06	17444.4
2	1	0	1	0	1	105.273	0.402851	0.402615	0.0337383	6	0.000157547	13	0	5.1878	1.35836e-05	11933.5
2	1	0	1	0	1	105.672	0.406846	0.406619	0.0248993	6	0.000168527	13	0	5.5872	1.01245e-05	16330.5
2	1	0	1	0	1	106.072	0.41084	0.410627	0.0248835	6	0.000179486	13	0	5.9866	1.02179e-05	16502
2	1	0	1	0	1	106.471	0.414834	0.414686	0.0330741	6	0.000190197	13	0	6.3861	1.37154e-05	12538.1
2	1	0	1	0	1	106.871	0.418829	0.418606	0.021134	6	0.000200849	13	0	6.7856	8.84681e-06	19807.3
2	1	0	1	0	1	107.27	0.422823	0.422554	0.0277285	6	0.000211426	13	0	7.185	1.17168e-05	15239
2	1	0	1	0	1	107.67	0.426818	0.42658	0.0301842	6	0.000221771	13	0	7.5844	1.2876e-05	14132.6
2	1	0	1	0	1	108.069	0.430813	0.430587	0.0197705	6	0.000232188	13	0	7.9839	8.51295e-06	21779.2
2	1	0	1	0	1	108.469	0.434807	0.434564	0.0302961	6	0.000242487	13	0	8.3834	1.31656e-05	14343.9
2	1	0	1	0	1	108.868	0.438801	0.438584	0.0259738	6	0.000252626	13	0	8.7828	1.13917e-05	16885.6
2	1	0	1	0	1	109.267	0.442796	0.44257	0.0207416	6	0.000262835	13	0	9.1822	9.17959e-06	21337.3
2	1	0	1	0	1	109.667	0.446791	0.446588	0.0316964	6	0.000272847	13	0	9.5817	1.41552e-05	14089.5
2	1	0	1	0	1	110.013	0.449737	0.449426	-0.00560088	6	0.000280902	13	0	0.000000000000000E+000	-2.51718e-06	80242
2	0	0	1	0	1	110.473	0.445142	0.444854	-0.019576	6	0.00027238	13	0	0.4594	-8.70847e-06	22724.5
2	0	0	1	0	1	110.872	0.441148	0.440937	-0.0195526	6	0.000263555	13	0	0.8589	-8.62148e-06	22551.3
2	0	0	1	0	1	111.271	0.437154	0.436895	-0.0291235	6	0.000254576	13	0	1.2583	-1.27239e-05	15001.5
2	0	0	1	0	1	111.671	0.433159	0.432918	-0.0180407	6	0.000245278	13	0	1.6577	-7.81014e-06	23996.7
2	0	0	1	0	1	112.07	0.429164	0.428874	-0.0266145	6	0.000235708	13	0	2.0572	-1.14143e-05	16114.3
2	0	0	1	0	1	112.47	0.425171	0.424868	-0.0273629	6	0.000226098	13	0	2.4566	-1.16256e-05	15527.2
2	0	0	1	0	1	112.869	0.421176	0.420915	-0.0189545	6	0.000216159	13	0	2.8561	-7.97824e-06	22206.6
2	0	0	1	0	1	113.269	0.417181	0.416929	-0.0304291	6	0.000206108	13	0	3.2555	-1.26868e-05	13701.6
2	0	0	1	0	1	113.668	0.413187	0.41298	-0.0262213	6	0.000195969	13	0	3.6549	-1.08289e-05	15749.8
2	0	0	1	0	1	114.068	0.409192	0.408953	-0.0208087	6	0.000185506	13	0	4.0544	-8.50976e-06	19653
2	0	0	1	0	1	114.467	0.405198	0.40495	-0.0328275	6	0.000174929	13	0	4.4539	-1.32935e-05	12335.7
2	0	0	1	0	1	114.866	0.401203	0.400859	-0.0260189	6	0.000164243	13	0	4.8533	-1.04299e-05	15406.5
2	0	0	1	0	1	115.266	0.397209	0.396923	-0.0229911	6	0.000153246	13	0	5.2527	-9.12571e-06	17264.2
2	0	0	1	0	1	115.665	0.393214	0.392907	-0.034314	6	0.000142191	13	0	5.6522	-1.34822e-05	11450.3
2	0	0	1	0	1	116.065	0.38922	0.388893	-0.0257977	6	0.00013095	13	0	6.0517	-1.00325e-05	15074.7
2	0	0	1	0	1	116.464	0.385226	0.384948	-0.0260561	6	0.000119375	13	0	6.4511	-1.00302e-05	14773.8
2	0	0	1	0	1	116.864	0.381231	0.38092	-0.036095	6	0.000107759	13	0	6.8505	-1.37493e-05	10553.3
2	0	0	1	0	1	117.263	0.377236	0.376956	-0.0256685	6	9.58638e-05	13	0	7.25	-9.67592e-06	14685.5
2	0	0	1	0	1	117.663	0.373243	0.373001	-0.0291566	6	8.3656e-05	13	0	7.6494	-1.08754e-05	12793
2	0	0	1	0	1	118.062	0.369248	0.368956	-0.0372003	6	7.13624e-05	13	0	8.0489	-1.37253e-05	9918.08
2	0	0	1	0	1	118.461	0.365253	0.364985	-0.0262509	6	5.87298e-05	13	0	8.4483	-9.5812e-06	13903.7
2	0	0	1	0	1	118.861	0.361259	0.360999	-0.0336931	6	4.58036e-05	13	0	8.8477	-1.21632e-05	10714.3
2	0	0	1	0	1	119.26	0.357265	0.356956	-0.0379199	6	3.27502e-05	13	0	9.2472	-1.35357e-05	9413.43
2	0	0	1	0	1	119.66	0.35327	0.353018	-0.0274269	6	1.92486e-05	13	0	9.6467	-9.68221e-06	12871.2
2	0	0	1	0	0	119.989	0.35005	0.349724	-0.0435474	7	8.02639e-06	13	0	9.9762	-1.52296e-05	8030.88
2	1	0	1	0	0	120.426	0.354419	0.354186	0.0281508	7	1.86722e-05	13	0	0.3445	9.97061e-06	12581.7
2	1	0	1	0	0	120.826	0.358413	0.358188	0.0254673	7	3.05314e-05	13	0	0.744	9.12209e-06	14064.6
2	1	0	1	0	0	121.225	0.362407	0.362202	0.0366277	7	4.24161e-05	13	0	1.1434	1.32666e-05	9888.75
2	1	0	1	0	0	121.625	0.366402	0.366155	0.0262063	7	5.4362e-05	13	0	1.5428	9.59559e-06	13972
2	1	0	1	0	0	122.024	0.370397	0.370152	0.0284831	7	6.63651e-05	13	0	1.9423	1.05431e-05	12995.5
2	1	0	1	0	0	122.424	0.37439	0.374223	0.035597	7	7.81166e-05	13	0	2.3417	1.33212e-05	10512.8
2	1	0	1	0	0	122.823	0.378385	0.378151	0.0236512	7	8.98566e-05	13	0	2.7412	8.94372e-06	15988.6
2	1	0	1	0	0	123.222	0.38238	0.382097	0.0302663	7	0.000101536	13	0	3.1406	1.15646e-05	12624.5
2	1	0	1	0	0	123.622	0.386374	0.386119	0.0334064	7	0.00011295	13	0	3.54	1.28988e-05	11558.3
2	1	0	1	0	0	124.021	0.390368	0.390137	0.0221718	7	0.000124399	13	0	3.9395	8.65002e-06	17596.1
2	1	0	1	0	0	124.421	0.394363	0.394109	0.0320764	7	0.000135701	13	0	4.339	1.26416e-05	12286.6
2	1	0	1	0	0	124.82	0.398357	0.39814	0.0291546	7	0.000146767	13	0	4.7384	1.16076e-05	13656.2
2	1	0	1	0	0	125.22	0.402352	0.402085	0.0220838	7	0.000157902	13	0	5.1378	8.87958e-06	18207.2
2	1	0	1	0	0	125.619	0.406347	0.406107	0.0344793	7	0.000168851	13	0	5.5373	1.40023e-05	11778.3
2	1	0	1	0	0	126.019	0.410341	0.410138	0.0252699	7	0.000179685	13	0	5.9368	1.03642e-05	16230.3
2	1	0	1	0	0	126.418	0.414335	0.414066	0.0236417	7	0.000190526	13	0	6.3362	9.78921e-06	17514.2
2	1	0	1	0	0	126.817	0.41833	0.418117	0.0329247	7	0.000201086	13	0	6.7356	1.37664e-05	12699.2
2	1	0	1	0	0	127.217	0.422325	0.422067	0.0213903	7	0.000211616	13	0	7.1351	9.02813e-06	19731.7
2	1	0	1	0	0	127.616	0.426318	0.426098	0.0266979	7	0.00022213	13	0	7.5345	1.13759e-05	15960
2	1	0	1	0	0	128.016	0.430313	0.430089	0.0305649	7	0.000232408	13	0	7.934	1.31456e-05	14071.3
2	1	0	1	0	0	128.415	0.434308	0.434078	0.0196258	7	0.000242741	13	0	8.3334	8.51915e-06	22117.7
2	1	0	1	0	0	128.815	0.438302	0.438054	0.0287195	7	0.000252974	13	0	8.7328	1.25807e-05	15252.9
2	1	0	1	0	0	129.214	0.442296	0.442065	0.0278338	7	0.000263025	13	0	9.1323	1.23043e-05	15882.3
2	1	0	1	0	0	129.614	0.446291	0.446035	0.0190852	7	0.000273162	13	0	9.5318	8.51264e-06	23370.7
2	1	0	1	0	0	129.982	0.450011	0.44985	0.0128143	7	0.000282363	13	0	9.9005	5.76453e-06	35105.3
2	0	0	1	0	0	130.419	0.445642	0.445348	-0.0240618	7	0.000275415	13	0	0.3446	-1.07159e-05	18508.5
2	0	0	1	0	0	130.819	0.441647	0.441364	-0.0249367	7	0.000266824	13	0	0.744	-1.10062e-05	17699.4
2	0	0	1	0	0	131.218	0.437653	0.437371	-0.0165022	7	0.000257758	13	0	1.1434	-7.21759e-06	26503.7
2	0	0	1	0	0	131.618	0.433658	0.433396	-0.0279317	7	0.000248469	13	0	1.5429	-1.21055e-05	15516.3
2	0	0	1	0	0	132.017	0.429664	0.429374	-0.0248281	7	0.000239064	13	0	1.9424	-1.06605e-05	17293.9
2	0	0	1	0	0	132.416	0.425669	0.4254	-0.0191029	7	0.000229319	13	0	2.3418	-8.12636e-06	22268.9
2	0	0	1	0	0	132.816	0.421675	0.421424	-0.0307802	7	0.000219511	13	0	2.7412	-1.29715e-05	13691.4
2	0	0	1	0	0	133.215	0.41768	0.417438	-0.023239	7	0.000209542	13	0	3.1407	-9.70084e-06	17962.8
2	0	0	1	0	0	133.615	0.413687	0.413461	-0.0226075	7	0.00019927	13	0	3.5401	-9.34734e-06	18288.6
2	0	0	1	0	0	134.014	0.409692	0.409412	-0.0324004	7	0.000188983	13	0	3.9396	-1.32651e-05	12636
2	0	0	1	0	0	134.414	0.405697	0.405361	-0.022685	7	0.000178412	13	0	4.339	-9.19562e-06	17869.1
2	0	0	1	0	0	134.813	0.401703	0.401442	-0.0269966	7	0.000167601	13	0	4.7384	-1.08376e-05	14870.1
2	0	0	1	0	0	135.213	0.397709	0.397403	-0.0330801	7	0.000156787	13	0	5.1379	-1.31461e-05	12013.4
2	0	0	1	0	0	135.612	0.393714	0.393372	-0.0217695	7	0.000145687	13	0	5.5374	-8.56352e-06	18069.9
2	0	0	1	0	0	136.011	0.389719	0.389455	-0.0310133	7	0.00013438	13	0	5.9368	-1.20783e-05	12557.7
2	0	0	1	0	0	136.411	0.385725	0.385422	-0.0323445	7	0.000123005	13	0	6.3362	-1.24663e-05	11916.2
2	0	0	1	0	0	136.81	0.38173	0.381444	-0.0233044	7	0.000111277	13	0	6.7357	-8.88934e-06	16367.9
2	0	0	1	0	0	137.21	0.377736	0.377471	-0.0348254	7	9.93856e-05	13	0	7.1352	-1.31456e-05	10839
2	0	0	1	0	0	137.609	0.373741	0.373488	-0.0318242	7	8.73695e-05	13	0	7.5346	-1.1886e-05	11736
2	0	0	1	0	0	138.009	0.369747	0.369471	-0.0254462	7	7.49634e-05	13	0	7.934	-9.40164e-06	14519.7
2	0	0	1	0	0	138.408	0.365752	0.365441	-0.0376428	7	6.2385e-05	13	0	8.3335	-1.37562e-05	9708.13
2	0	0	1	0	0	138.808	0.361759	0.361445	-0.0314214	7	4.96055e-05	13	0	8.7329	-1.13571e-05	11503.1
2	0	0	1	0	0	139.207	0.357764	0.357508	-0.0286421	7	3.64152e-05	13	0	9.1324	-1.02398e-05	12481.9
2	0	0	1	0	0	139.606	0.353769	0.353506	-0.0405379	7	2.30854e-05	13	0	9.5318	-1.43304e-05	8720.38
2	0	0	1	0	0	139.981	0.35	0.349782	-0.0467132	7	1.0233e-05	13	0	9.9063	-1.63394e-05	7487.85
2	1	0	1	0	1	140.373	0.353919	0.353656	0.0292186	8	1.86026e-05	13	0	0.3596	1.03333e-05	12103.8
2	1	0	1	0	1	140.772	0.357913	0.357676	0.0337014	8	3.0238e-05	13	0	0.759	1.20542e-05	10613.1
2	1	0	1	0	1	141.172	0.361908	0.361659	0.0230858	8	4.22049e-05	13	0	1.1584	8.34919e-06	15665.9
2	1	0	1	0	1	141.571	0.365903	0.365664	0.0338017	8	5.41851e-05	13	0	1.5579	1.23601e-05	10817.9
2	1	0	1	0	1	141.971	0.369897	0.369687	0.0306174	8	6.6024e-05	13	0	1.9574	1.13189e-05	12074.4
2	1	0	1	0	1	142.37	0.373891	0.373663	0.0242486	8	7.79623e-05	13	0	2.3568	9.06082e-06	15409.6
2	1	0	1	0	1	142.77	0.377886	0.377664	0.0355331	8	8.96647e-05	13	0	2.7562	1.34196e-05	10628.5
2	1	0	1	0	1	143.169	0.381881	0.381642	0.0256945	8	0.000101261	13	0	3.1557	9.80608e-06	14853.1
2	1	0	1	0	1	143.569	0.385874	0.385566	0.0262294	8	0.000112851	13	0	3.5551	1.01132e-05	14699.8
2	1	0	1	0	1	143.968	0.389869	0.389574	0.0341595	8	0.000124188	13	0	3.9546	1.33076e-05	11404.5
2	1	0	1	0	1	144.367	0.393864	0.393625	0.0223998	8	0.000135501	13	0	4.354	8.81713e-06	17572.7
2	1	0	1	0	1	144.767	0.397858	0.397578	0.0298142	8	0.000146744	13	0	4.7534	1.18535e-05	13335.2
2	1	0	1	0	1	145.166	0.401852	0.401612	0.0306474	8	0.000157711	13	0	5.1529	1.23084e-05	13104.3
2	1	0	1	0	1	145.566	0.405847	0.405572	0.0209483	8	0.000168726	13	0	5.5524	8.49603e-06	19360.7
2	1	0	1	0	1	145.965	0.409841	0.409523	0.0317639	8	0.000179645	13	0	5.9518	1.3008e-05	12892.7
2	1	0	1	0	1	146.365	0.413836	0.41365	0.0264269	8	0.000190323	13	0	6.3512	1.09315e-05	15652.6
2	1	0	1	0	1	146.764	0.417831	0.417586	0.0217799	8	0.000201057	13	0	6.7507	9.09498e-06	19173
2	1	0	1	0	1	147.164	0.421825	0.421603	0.0324533	8	0.000211565	13	0	7.1502	1.36824e-05	12991
2	1	0	1	0	1	147.563	0.425819	0.425592	0.0221733	8	0.000221996	13	0	7.5496	9.43676e-06	19193.9
2	1	0	1	0	1	147.962	0.429814	0.429519	0.024496	8	0.000232464	13	0	7.949	1.05215e-05	17534.2
2	1	0	1	0	1	148.362	0.433809	0.43361	0.0307084	8	0.000242685	13	0	8.3485	1.33155e-05	14120.2
2	1	0	1	0	1	148.761	0.437802	0.437558	0.0189324	8	0.000252946	13	0	8.7479	8.28404e-06	23111.6
2	1	0	1	0	1	149.161	0.441797	0.441573	0.0283393	8	0.000263132	13	0	9.1474	1.25139e-05	15581.6
2	1	0	1	0	1	149.56	0.445792	0.445582	0.0262465	8	0.000273142	13	0	9.5468	1.1695e-05	16976.8
2	1	0	1	0	1	149.957	0.449761	0.44954	0.0184331	8	0.000283186	13	0	9.9437	8.28642e-06	24387.7
2	0	0	1	0	1	150.366	0.446141	0.445902	-0.0152696	8	0.000276454	13	0	0.2946	-6.80876e-06	29201.9
2	0	0	1	0	1	150.765	0.442146	0.441903	-0.0280256	8	0.000267844	13	0	0.6941	-1.23846e-05	15767.8
2	0	0	1	0	1	151.165	0.438153	0.437876	-0.0200463	8	0.000258901	13	0	1.0935	-8.77779e-06	21843.2
2	0	0	1	0	1	151.564	0.434158	0.433906	-0.0233028	8	0.000249562	13	0	1.493	-1.01112e-05	18620.3
2	0	0	1	0	1	151.964	0.430163	0.429879	-0.0265405	8	0.000240198	13	0	1.8924	-1.14092e-05	16197.1
2	0	0	1	0	1	152.363	0.426169	0.425926	-0.0185183	8	0.000230479	13	0	2.2918	-7.88745e-06	23000.3
2	0	0	1	0	1	152.763	0.422174	0.42192	-0.030519	8	0.000220667	13	0	2.6913	-1.28766e-05	13824.8
2	0	0	1	0	1	153.162	0.41818	0.417932	-0.0244697	8	0.000210736	13	0	3.0908	-1.02267e-05	17079.6
2	0	0	1	0	1	153.561	0.414185	0.413974	-0.0202666	8	0.00020051	13	0	3.4902	-8.38984e-06	20426.5
2	0	0	1	0	1	153.961	0.410191	0.409937	-0.0315779	8	0.000190205	13	0	3.8896	-1.2945e-05	12981.8
2	0	0	1	0	1	154.36	0.406196	0.405936	-0.0264482	8	0.000179752	13	0	4.2891	-1.07363e-05	15348.4
2	0	0	1	0	1	154.76	0.402202	0.401934	-0.0211131	8	0.000168946	13	0	4.6886	-8.48606e-06	19037.2
2	0	0	1	0	1	155.159	0.398208	0.397908	-0.0326345	8	0.000158092	13	0	5.088	-1.29855e-05	12192.9
2	0	0	1	0	1	155.559	0.394213	0.39394	-0.0283739	8	0.000147115	13	0	5.4874	-1.11776e-05	13883.9
2	0	0	1	0	1	155.958	0.390218	0.389919	-0.0222106	8	0.000135823	13	0	5.8869	-8.66034e-06	17555.6
2	0	0	1	0	1	156.358	0.386225	0.385924	-0.0332488	8	0.000124394	13	0	6.2863	-1.28315e-05	11607.2
2	0	0	1	0	1	156.757	0.38223	0.381941	-0.0313196	8	0.000112817	13	0	6.6858	-1.19622e-05	12195
2	0	0	1	0	1	157.156	0.378235	0.377955	-0.0232123	8	0.000100896	13	0	7.0852	-8.77318e-06	16282.5
2	0	0	1	0	1	157.556	0.374241	0.373994	-0.0331126	8	8.87871e-05	13	0	7.4846	-1.23839e-05	11294.6
2	0	0	1	0	1	157.955	0.370246	0.36998	-0.0355424	8	7.65513e-05	13	0	7.8841	-1.315e-05	10409.5
2	0	0	1	0	1	158.355	0.366252	0.366	-0.0256833	8	6.39726e-05	13	0	8.2836	-9.40006e-06	14250.5
2	0	0	1	0	1	158.754	0.362257	0.362038	-0.0314716	8	5.11302e-05	13	0	8.683	-1.13939e-05	11503.6
2	0	0	1	0	1	159.154	0.358263	0.35794	-0.039391	8	3.81404e-05	13	0	9.0824	-1.40996e-05	9086.83
2	0	0	1	0	1	159.553	0.354268	0.353956	-0.0301575	8	2.48301e-05	13	0	9.4819	-1.06744e-05	11736.9
2	0	0	1	0	1	159.953	0.350274	0.350002	-0.0301945	8	1.11297e-05	13	0	9.8814	-1.05681e-05	11591.6
2	1	0	1	0	0	160.32	0.35342	0.353189	0.0354405	9	1.72898e-05	13	0	0.3096	1.25172e-05	9965.71
2	1	0	1	0	0	160.719	0.357414	0.357163	0.0275178	9	2.89429e-05	13	0	0.709	9.82835e-06	12979.3
2	1	0	1	0	0	161.119	0.361408	0.361138	0.0251798	9	4.09244e-05	13	0	1.1085	9.09339e-06	14342.4
2	1	0	1	0	0	161.518	0.365403	0.365143	0.0359605	9	5.28492e-05	13	0	1.508	1.31307e-05	10154
2	1	0	1	0	0	161.917	0.369398	0.369176	0.0308184	9	6.47137e-05	13	0	1.9074	1.13774e-05	11979.1
2	1	0	1	0	0	162.317	0.373392	0.373153	0.0233063	9	7.66122e-05	13	0	2.3068	8.6968e-06	16010.9
2	1	0	1	0	0	162.716	0.377386	0.377161	0.0331975	9	8.83591e-05	13	0	2.7063	1.25208e-05	11361.1
2	1	0	1	0	0	163.116	0.381381	0.381116	0.0321241	9	9.99245e-05	13	0	3.1058	1.2243e-05	11863.9
2	1	0	1	0	0	163.515	0.385375	0.385186	0.0224479	9	0.000111514	13	0	3.5052	8.64662e-06	17159.1
2	1	0	1	0	0	163.915	0.38937	0.389104	0.0302964	9	0.000122973	13	0	3.9046	1.17884e-05	12843.3
2	1	0	1	0	0	164.314	0.393365	0.393114	0.0335649	9	0.000134183	13	0	4.3041	1.31949e-05	11712.1
2	1	0	1	0	0	164.714	0.397358	0.397101	0.0222193	9	0.000145386	13	0	4.7035	8.82331e-06	17871.9
2	1	0	1	0	0	165.113	0.401353	0.401051	0.0268319	9	0.000156516	13	0	5.103	1.07609e-05	14946.8
2	1	0	1	0	0	165.512	0.405348	0.405096	0.0336851	9	0.00016742	13	0	5.5024	1.36457e-05	12026
2	1	0	1	0	0	165.912	0.409343	0.409105	0.0237748	9	0.000178327	13	0	5.9019	9.72638e-06	17207.5
2	1	0	1	0	0	166.311	0.413336	0.413105	0.0231874	9	0.000189166	13	0	6.3013	9.57885e-06	17815.9
2	1	0	1	0	0	166.711	0.417331	0.417106	0.0329906	9	0.000199802	13	0	6.7008	1.37606e-05	12643.2
2	1	0	1	0	0	167.11	0.421326	0.42111	0.0265939	9	0.000210308	13	0	7.1002	1.1199e-05	15834.8
2	1	0	1	0	0	167.51	0.42532	0.425018	0.0206153	9	0.000220862	13	0	7.4996	8.76186e-06	20616.7
2	1	0	1	0	0	167.909	0.429314	0.429031	0.0309276	9	0.000231255	13	0	7.8991	1.32689e-05	13872.1
2	1	0	1	0	0	168.309	0.433309	0.433078	0.0281691	9	0.0002415	13	0	8.2986	1.21994e-05	15374.2
2	1	0	1	0	0	168.708	0.437303	0.43712	0.01961	9	0.000251781	13	0	8.698	8.57194e-06	22290.7
2	1	0	1	0	0	169.107	0.441298	0.441048	0.0283034	9	0.000261961	13	0	9.0974	1.24832e-05	15582.8
2	1	0	1	0	0	169.507	0.445293	0.44507	0.0295545	9	0.000271968	13	0	9.4969	1.31538e-05	15059.3
2	1	0	1	0	0	169.906	0.449287	0.449019	0.0191129	9	0.000282028	13	0	9.8964	8.58205e-06	23493
2	0	0	1	0	0	170.313	0.44664	0.44635	-0.0165997	9	0.000278957	13	0	0.3096	-7.4093e-06	26889
2	0	0	1	0	0	170.712	0.442646	0.442484	-0.0194023	9	0.000270314	13	0	0.7091	-8.58518e-06	22805.8
2	0	0	1	0	0	171.111	0.438652	0.438376	-0.0292097	9	0.000261418	13	0	1.1085	-1.28049e-05	15007.9
2	0	0	1	0	0	171.511	0.434657	0.434359	-0.0212021	9	0.000252241	13	0	1.5079	-9.20931e-06	20486.7
2	0	0	1	0	0	171.91	0.430662	0.430432	-0.0193238	9	0.000242739	13	0	1.9074	-8.31759e-06	22274.7
2	0	0	1	0	0	172.31	0.426669	0.426387	-0.0301741	9	0.00023315	13	0	2.3068	-1.28658e-05	14130.9
2	0	0	1	0	0	172.709	0.422674	0.422408	-0.0250473	9	0.000223405	13	0	2.7063	-1.05802e-05	16864.4
2	0	0	1	0	0	173.109	0.418679	0.418425	-0.0194535	9	0.000213374	13	0	3.1057	-8.13982e-06	21509
2	0	0	1	0	0	173.508	0.414685	0.41445	-0.0299938	9	0.000203225	13	0	3.5051	-1.24309e-05	13817.9
2	0	0	1	0	0	173.908	0.41069	0.410446	-0.0295112	9	0.000192976	13	0	3.9046	-1.21128e-05	13908.2
2	0	0	1	0	0	174.307	0.406696	0.40641	-0.0203005	9	0.00018245	13	0	4.3041	-8.25032e-06	20019.7
2	0	0	1	0	0	174.706	0.402701	0.402437	-0.0285761	9	0.00017169	13	0	4.7035	-1.15001e-05	14083
2	0	0	1	0	0	175.106	0.398707	0.398384	-0.0332338	9	0.000160943	13	0	5.1029	-1.32398e-05	11987.3
2	0	0	1	0	0	175.505	0.394712	0.394417	-0.0229589	9	0.000149927	13	0	5.5024	-9.05536e-06	17179.3
2	0	0	1	0	0	175.905	0.390718	0.390458	-0.0275423	9	0.000138659	13	0	5.9019	-1.07541e-05	14176.7
2	0	0	1	0	0	176.304	0.386724	0.386389	-0.0352918	9	0.000127338	13	0	6.3013	-1.36364e-05	10948.4
2	0	0	1	0	0	176.704	0.382729	0.382431	-0.0254999	9	0.000115754	13	0	6.7007	-9.75195e-06	14997.3
2	0	0	1	0	0	177.103	0.378734	0.378446	-0.0275498	9	0.000103867	13	0	7.1002	-1.04261e-05	13736.8
2	0	0	1	0	0	177.503	0.374741	0.374472	-0.0372649	9	9.19101e-05	13	0	7.4996	-1.39546e-05	10048.9
2	0	0	1	0	0	177.902	0.370746	0.370448	-0.0281002	9	7.96795e-05	13	0	7.8991	-1.04097e-05	13183.1
2	0	0	1	0	0	178.301	0.366751	0.366499	-0.0282561	9	6.71177e-05	13	0	8.2985	-1.03558e-05	12970.6
2	0	0	1	0	0	178.701	0.362757	0.362464	-0.0391701	9	5.44165e-05	13	0	8.6979	-1.41977e-05	9253.58
2	0	0	1	0	0	179.1	0.358762	0.358478	-0.0309112	9	4.14323e-05	13	0	9.0974	-1.1081e-05	11597
2	0	0	1	0	0	179.5	0.354768	0.354501	-0.0297897	9	2.80487e-05	13	0	9.4969	-1.05605e-05	11900.1
2	0	0	1	0	0	179.899	0.350773	0.350462	-0.0409183	9	1.45178e-05	13	0	9.8963	-1.43403e-05	8564.91
2	1	0	1	0	1	180.266	0.352921	0.352726	0.0241865	10	1.73568e-05	13	0	0.2597	8.53121e-06	14583.6
2	1	0	1	0	1	180.666	0.356915	0.35667	0.0273598	10	2.90724e-05	13	0	0.6592	9.75842e-06	13036.3
2	1	0	1	0	1	181.065	0.360909	0.360659	0.0362036	10	4.09109e-05	13	0	1.0586	1.30571e-05	9961.96
2	1	0	1	0	1	181.465	0.364904	0.364675	0.0256358	10	5.28511e-05	13	0	1.458	9.34872e-06	14225.2
2	1	0	1	0	1	181.864	0.368899	0.368644	0.0273412	10	6.4852e-05	13	0	1.8575	1.00791e-05	13483.1
2	1	0	1	0	1	182.264	0.372892	0.372692	0.0356888	10	7.66349e-05	13	0	2.2569	1.33009e-05	10442.8
2	1	0	1	0	1	182.663	0.376887	0.376647	0.024267	10	8.83875e-05	13	0	2.6564	9.14009e-06	15520.9
2	1	0	1	0	1	183.062	0.380882	0.380646	0.0274195	10	0.000100103	13	0	3.0558	1.04371e-05	13882.3
2	1	0	1	0	1	183.462	0.384876	0.38462	0.035093	10	0.000111565	13	0	3.4552	1.34974e-05	10960
2	1	0	1	0	1	183.861	0.38887	0.388599	0.0239437	10	0.000122995	13	0	3.8547	9.30452e-06	16229.7
2	1	0	1	0	1	184.261	0.392865	0.392603	0.0261482	10	0.000134381	13	0	4.2542	1.02658e-05	15014.6
2	1	0	1	0	1	184.66	0.396859	0.396605	0.0341743	10	0.00014551	13	0	4.6536	1.35537e-05	11605.4
2	1	0	1	0	1	185.06	0.400854	0.400616	0.023707	10	0.000156579	13	0	5.053	9.49742e-06	16898.6
2	1	0	1	0	1	185.459	0.404849	0.404571	0.0244227	10	0.000167624	13	0	5.4525	9.88073e-06	16565.3
2	1	0	1	0	1	185.859	0.408843	0.408613	0.0334094	10	0.000178514	13	0	5.852	1.36515e-05	12230.5
2	1	0	1	0	1	186.258	0.412837	0.412672	0.024968	10	0.000189243	13	0	6.2514	1.03036e-05	16528
2	1	0	1	0	1	186.657	0.416832	0.416634	0.0217279	10	0.000199992	13	0	6.6508	9.05259e-06	19175
2	1	0	1	0	1	187.057	0.420827	0.420571	0.0323892	10	0.00021055	13	0	7.0503	1.3622e-05	12984.9
2	1	0	1	0	1	187.456	0.42482	0.424603	0.0258609	10	0.000220977	13	0	7.4497	1.09806e-05	16418.7
2	1	0	1	0	1	187.856	0.428815	0.428559	0.0206905	10	0.000231453	13	0	7.8492	8.8671e-06	20712.9
2	1	0	1	0	1	188.255	0.43281	0.432571	0.0312173	10	0.000241743	13	0	8.2486	1.35037e-05	13856.8
2	1	0	1	0	1	188.655	0.436804	0.436585	0.0264602	10	0.000251895	13	0	8.648	1.15521e-05	16499.7
2	1	0	1	0	1	189.054	0.440798	0.440552	0.0195445	10	0.000262136	13	0	9.0475	8.61037e-06	22541
2	1	0	1	0	1	189.454	0.444793	0.444557	0.0298451	10	0.000272221	13	0	9.447	1.32679e-05	14895.5
2	1	0	1	0	1	189.853	0.448787	0.448572	0.026551	10	0.000282163	13	0	9.8464	1.191e-05	16894.8
2	0	0	1	0	1	190.259	0.44714	0.446879	-0.0248888	10	0.000280063	13	0	0.1948	-1.11223e-05	17955.1
2	0	0	1	0	1	190.659	0.443145	0.442898	-0.0158519	10	0.000271512	13	0	0.5942	-7.02079e-06	27939.7
2	0	0	1	0	1	191.058	0.439151	0.438932	-0.0244208	10	0.000262557	13	0	0.9936	-1.07191e-05	17973.7
2	0	0	1	0	1	191.458	0.435156	0.434894	-0.0273338	10	0.000253463	13	0	1.3931	-1.18873e-05	15910.5
2	0	0	1	0	1	191.857	0.431162	0.430946	-0.0173815	10	0.000244034	13	0	1.7926	-7.49049e-06	24793.4
2	0	0	1	0	1	192.256	0.427167	0.426916	-0.0248	10	0.000234387	13	0	2.192	-1.05875e-05	17214.4
2	0	0	1	0	1	192.656	0.423173	0.422924	-0.0297627	10	0.000224694	13	0	2.5914	-1.25873e-05	14209.9
2	0	0	1	0	1	193.055	0.419178	0.41891	-0.0194847	10	0.000214741	13	0	2.9909	-8.16236e-06	21499.4
2	0	0	1	0	1	193.455	0.415185	0.414952	-0.0243698	10	0.000204574	13	0	3.3903	-1.01123e-05	17027.3
2	0	0	1	0	1	193.854	0.41119	0.410952	-0.0318143	10	0.000194364	13	0	3.7898	-1.30741e-05	12917.2
2	0	0	1	0	1	194.254	0.407195	0.406903	-0.0218764	10	0.000183921	13	0	4.1892	-8.90157e-06	18600.1
2	0	0	1	0	1	194.653	0.4032	0.402941	-0.024246	10	0.000173153	13	0	4.5887	-9.76972e-06	16618.8
2	0	0	1	0	1	195.053	0.399207	0.398926	-0.0336537	10	0.00016241	13	0	4.9881	-1.34253e-05	11853.9
2	0	0	1	0	1	195.452	0.395212	0.394875	-0.0246094	10	0.000151453	13	0	5.3876	-9.71763e-06	16045.7
2	0	0	1	0	1	195.851	0.391217	0.390945	-0.0242117	10	0.000140216	13	0	5.787	-9.46547e-06	16146.9
2	0	0	1	0	1	196.251	0.387223	0.386872	-0.0349815	10	0.000128918	13	0	6.1864	-1.35333e-05	11059.3
2	0	0	1	0	1	196.65	0.383229	0.382933	-0.0268619	10	0.000117392	13	0	6.5859	-1.02863e-05	14255.6
2	0	0	1	0	1	197.05	0.379234	0.378988	-0.0250131	10	0.000105549	13	0	6.9854	-9.47967e-06	15151.6
2	0	0	1	0	1	197.449	0.375239	0.374933	-0.0363732	10	9.36154e-05	13	0	7.3848	-1.36375e-05	10307.9
2	0	0	1	0	1	197.849	0.371245	0.370998	-0.0297672	10	8.14545e-05	13	0	7.7842	-1.10436e-05	12463.3
2	0	0	1	0	1	198.248	0.36725	0.366976	-0.0265241	10	6.89173e-05	13	0	8.1837	-9.7337e-06	13835.6
2	0	0	1	0	1	198.648	0.363256	0.362979	-0.0382742	10	5.62372e-05	13	0	8.5832	-1.38927e-05	9483.63
2	0	0	1	0	1	199.047	0.359262	0.358982	-0.031785	10	4.33114e-05	13	0	8.9826	-1.14102e-05	11294
2	0	0	1	0	1	199.446	0.355267	0.354985	-0.0282894	10	2.99738e-05	13	0	9.382	-1.00423e-05	12548.3
2	0	0	1	0	1	199.846	0.351272	0.350996	-0.0401934	10	1.64703e-05	13	0	9.7815	-1.41077e-05	8732.69
2	0	0	0	0	1	199.971	0.35	0.349762	-0.023088	10	1.23143e-05	13	0	9.9063	-8.07531e-06	15149.1