File: ACS_Catal_2026/Figures_Na_K/main_figures/data/EC/20251112_2-148_alpha_reproducibility/20251112_2-148_006_gamma_reproducibility_2_Na1_03_CVA_C02.mpt
EC-Lab ASCII FILE
Nb header lines : 66

Cyclic Voltammetry Advanced

Run on channel : 2 (SN 69290)
User :
CE vs. WE compliance from -10 V to 10 V
Electrode connection : standard
Potential control : Ewe
Ewe ctrl range : min = -1.00 V, max = 1.00 V
Safety Limits :
	Do not start on E overload
Acquisition started on : 11/12/2025 19:49:32.045
Loaded Setting File :  C:\Users\User\Documents\EC-Lab\Data\Yatsuzuka\20251112_2-148_alpha_reproducibility\20251112_2-148_002_alpha_reproducibility_2_K1.mps
Saved on :
	File : 20251112_2-148_006_gamma_reproducibility_2_Na1_03_CVA_C02.mpr
	Directory : C:\Users\User\Documents\EC-Lab\Data\Yatsuzuka\20251112_2-148_alpha_reproducibility\
	Host : 192.109.209.127
Device : SP-150e (SN .003883)
Address : 192.109.209.128
EC-Lab for windows v11.52 (software)
Internet server v11.52 (firmware)
Command interpretor v11.50 (firmware)
Electrode material :
Initial state :
Electrolyte :
Comments :
Electrode surface area : 0.001 cm2
Characteristic mass : 0.001 g
Equivalent Weight : 0.000 g/eq.
Density : 0.000 g/cm3
Volume (V) : 0.001 cm3
Cycle Definition : Charge/Discharge alternance
Ei (V)              0.450
vs.                 Ref
ti (h:m:s)          0:00:10.0000
dti (s)             0.0000
dE/dt               5.000
dE/dt unit          mV/s
E1 (V)              0.700
vs.                 Ref
t1 (h:m:s)          0:00:0.0000
dt1 (s)             0.1000
Step percent        50
N                   10
E range min (V)     -1.000
E range max (V)     1.000
I Range             10 mA
I Range min         Unset
I Range max         Unset
I Range init        Unset
Bandwidth           5
E2 (V)              0.450
vs.                 Ref
t2 (h:m:s)          0:00:0.0000
dt2 (s)             0.1000
nc cycles           14
nr                  1
Reverse Scan        0
Ef (V)              0.000
vs.                 Eoc
tf (h:m:s)          0:00:0.0000
dtf (s)             0.1000

mode	ox/red	error	control changes	Ns changes	counter inc.	time/s	control/V	Ewe/V	<I>/mA	cycle number	(Q-Qo)/C	I Range	Ns	step time/s	P/W
2	1	0	1	0	0	232.209	0.450021	0.449649	0.00181615	1	0.0000000E+000	11	0	0.000000000000000E+000	8.16631e-07
2	1	0	1	0	0	234.861	0.463279	0.462789	0.00313753	1	8.5308e-06	11	0	2.5969	1.45201e-06
2	1	0	1	0	0	237.558	0.476763	0.476268	0.00316624	1	1.7352e-05	11	0	5.2937	1.50798e-06
2	1	0	0	0	0	240.255	0.490248	0.489801	0.00316604	1	2.61063e-05	11	0	7.9906	1.55073e-06
2	1	0	1	0	0	242.952	0.503731	0.503329	0.00327721	1	3.50173e-05	11	0	10.6873	1.64952e-06
2	1	0	0	0	0	245.649	0.517216	0.516779	0.00324684	1	4.40364e-05	11	0	13.3842	1.6779e-06
2	1	0	0	0	0	248.345	0.5307	0.530312	0.00332623	1	5.31801e-05	11	0	16.081	1.76394e-06
2	0	0	0	0	0	251.042	0.544184	0.543753	0.00346766	1	6.2529e-05	11	0	18.7778	1.88555e-06
2	1	0	0	0	0	253.739	0.557668	0.557244	0.00353175	1	7.21979e-05	11	0	21.4746	1.96805e-06
2	1	0	0	0	0	256.436	0.571152	0.570695	0.00378885	1	8.23122e-05	11	0	24.1714	2.16228e-06
2	1	0	0	0	0	259.133	0.584636	0.584225	0.00414191	1	9.33454e-05	11	0	26.8682	2.41981e-06
2	1	0	0	0	0	261.829	0.59812	0.597644	0.00480747	1	0.000105641	11	0	29.565	2.87315e-06
2	1	0	0	0	0	264.526	0.611604	0.611144	0.00578642	1	0.000120249	11	0	32.2618	3.53634e-06
2	1	0	0	0	0	267.223	0.625088	0.624682	0.00766089	1	0.00013858	11	0	34.9586	4.78562e-06
2	1	0	0	0	0	269.92	0.638572	0.638112	0.0109916	1	0.000163516	11	0	37.6554	7.01386e-06
2	1	0	0	0	0	272.617	0.652056	0.651679	0.0174988	1	0.000201239	11	0	40.3522	1.14036e-05
2	1	0	0	0	0	275.313	0.66554	0.665099	0.0299477	1	0.000263841	11	0	43.049	1.99182e-05
2	1	0	0	0	0	278.01	0.679024	0.678559	0.0528503	1	0.000373108	11	0	45.7458	3.58621e-05
2	1	0	0	0	0	280.707	0.692508	0.692038	0.0912226	1	0.000563797	11	0	48.4426	6.31295e-05
2	1	0	1	0	0	283.154	0.695255	0.694819	0.0992938	1	0.000825627	11	0	50.89	6.89912e-05
2	1	0	1	0	0	285.851	0.681771	0.681322	0.0568561	1	0.00103162	11	0	53.5868	3.87373e-05
2	1	0	1	0	0	288.548	0.668287	0.667819	0.0306537	1	0.00114622	11	0	56.2836	2.04711e-05
2	1	0	1	0	0	291.245	0.654802	0.654383	0.0157225	1	0.0012063	11	0	58.9805	1.02886e-05
2	1	0	1	0	0	293.942	0.641318	0.640884	0.00812663	1	0.00123692	11	0	61.6773	5.20823e-06
2	1	0	1	0	0	296.638	0.627834	0.627392	0.00448262	1	0.00125296	11	0	64.3741	2.81236e-06
2	1	0	1	0	0	299.335	0.61435	0.613928	0.00261559	1	0.00126198	11	0	67.0709	1.60579e-06
2	1	0	1	0	0	302.032	0.600866	0.600361	0.00161875	1	0.00126735	11	0	69.7677	9.71836e-07
2	1	0	1	0	0	304.729	0.587382	0.586937	0.00121134	1	0.00127079	11	0	72.4645	7.1098e-07
2	1	0	1	0	0	307.426	0.573898	0.573465	0.000829638	1	0.00127317	11	0	75.1613	4.75768e-07
2	1	0	1	0	0	310.122	0.560414	0.559989	0.000680429	1	0.00127482	11	0	77.8581	3.81033e-07
2	1	0	1	0	0	312.819	0.54693	0.54647	0.000461649	1	0.00127599	11	0	80.5549	2.52278e-07
2	1	0	1	0	0	315.516	0.533446	0.533002	0.000437516	1	0.00127693	11	0	83.2517	2.33197e-07
2	0	0	1	0	0	318.213	0.519962	0.519532	0.000421277	1	0.00127765	11	0	85.9485	2.18867e-07
2	1	0	1	0	0	320.91	0.506478	0.506031	0.000222442	1	0.00127812	11	0	88.6453	1.12563e-07
2	1	0	1	0	0	323.606	0.492994	0.492514	0.000173157	1	0.00127837	11	0	0.0999	8.52825e-08
2	0	0	1	0	0	326.303	0.47951	0.479044	0.000120327	1	0.00127853	11	0	0.0999	5.76418e-08
2	1	0	1	0	0	329	0.466026	0.465533	-2.61333e-05	1	0.00127847	11	0	0.1998	-1.21659e-08
2	1	0	1	0	0	331.697	0.452542	0.45209	-2.72341e-06	1	0.00127822	11	0	0.000000000000000E+000	-1.23123e-09
2	1	0	0	0	1	334.163	0.459834	0.459341	0.00263904	2	0.00128341	11	0	1.9628	1.21222e-06
2	1	0	0	0	1	336.86	0.473318	0.472845	0.00282255	2	0.00129103	11	0	4.6596	1.33463e-06
2	1	0	0	0	1	339.557	0.486802	0.486372	0.00281262	2	0.00129882	11	0	7.3564	1.36798e-06
2	1	0	0	0	1	342.254	0.500286	0.499865	0.00273528	2	0.00130655	11	0	10.0532	1.36727e-06
2	1	0	0	0	1	344.95	0.51377	0.513313	0.0027603	2	0.00131433	11	0	12.75	1.4169e-06
2	1	0	0	0	1	347.647	0.527254	0.526773	0.00283536	2	0.00132212	11	0	15.4468	1.49359e-06
2	1	0	0	0	1	350.344	0.540738	0.540304	0.00277222	2	0.00132991	11	0	18.1436	1.49784e-06
2	0	0	0	0	1	353.041	0.554222	0.553769	0.00289717	2	0.00133788	11	0	20.8404	1.60436e-06
2	1	0	0	0	1	355.738	0.567706	0.567251	0.00298289	2	0.00134615	11	0	23.5372	1.69205e-06
2	1	0	0	0	1	358.434	0.58119	0.580769	0.00318068	2	0.00135484	11	0	26.234	1.84724e-06
2	1	0	0	0	1	361.131	0.594674	0.594229	0.00360747	2	0.00136428	11	0	28.9308	2.14366e-06
2	1	0	0	0	1	363.828	0.608158	0.607741	0.00429187	2	0.00137517	11	0	31.6276	2.60834e-06
2	1	0	0	0	1	366.525	0.621642	0.621218	0.00556803	2	0.00138855	11	0	34.3244	3.45896e-06
2	1	0	0	0	1	369.222	0.635126	0.634696	0.0079837	2	0.00140675	11	0	37.0212	5.06723e-06
2	1	0	0	0	1	371.918	0.64861	0.648148	0.0128064	2	0.00143436	11	0	39.718	8.30046e-06
2	1	0	0	0	1	374.615	0.662094	0.661686	0.0221975	2	0.00148047	11	0	42.4148	1.46877e-05
2	1	0	0	0	1	377.312	0.675578	0.675157	0.040101	2	0.00156243	11	0	45.1116	2.70745e-05
2	1	0	0	0	1	380.009	0.689062	0.688602	0.0713236	2	0.00170954	11	0	47.8084	4.91136e-05
2	1	0	1	0	1	382.446	0.69875	0.698308	0.103109	2	0.00193226	11	0	50.2459	7.20017e-05
2	1	0	1	0	1	385.143	0.685266	0.684857	0.059361	2	0.00214652	11	0	52.9427	4.06538e-05
2	1	0	1	0	1	387.84	0.671782	0.671342	0.0321021	2	0.00226641	11	0	55.6395	2.15515e-05
2	1	0	1	0	1	390.537	0.658298	0.657831	0.01652	2	0.00232953	11	0	58.3363	1.08674e-05
2	1	0	1	0	1	393.233	0.644814	0.644364	0.008514	2	0.00236166	11	0	61.0331	5.48612e-06
2	1	0	1	0	1	395.93	0.63133	0.630904	0.00460228	2	0.00237828	11	0	63.7299	2.9036e-06
2	1	0	1	0	1	398.627	0.617846	0.61737	0.00261674	2	0.00238738	11	0	66.4267	1.6155e-06
2	1	0	1	0	1	401.324	0.604362	0.603904	0.00167831	2	0.00239268	11	0	69.1235	1.01354e-06
2	1	0	1	0	1	404.021	0.590878	0.590439	0.00117075	2	0.00239605	11	0	71.8203	6.91259e-07
2	1	0	1	0	1	406.717	0.577394	0.576959	0.000731373	2	0.00239833	11	0	74.5171	4.21972e-07
2	1	0	1	0	1	409.414	0.56391	0.563482	0.00056223	2	0.00239982	11	0	77.2139	3.16807e-07
2	1	0	1	0	1	412.111	0.550426	0.55	0.000444085	2	0.0024008	11	0	79.9107	2.44247e-07
2	1	0	1	0	1	414.808	0.536942	0.536481	0.000287667	2	0.00240151	11	0	82.6075	1.54328e-07
2	0	0	1	0	1	417.505	0.523458	0.523013	0.000237138	2	0.00240204	11	0	85.3043	1.24026e-07
2	1	0	1	0	1	420.201	0.509974	0.509532	0.000211234	2	0.00240233	11	0	0.0999	1.0763e-07
2	1	0	1	0	1	422.898	0.49649	0.496006	0.000124696	2	0.00240259	11	0	0.3995	6.185e-08
2	1	0	1	0	1	425.595	0.483006	0.482551	7.02639e-05	2	0.00240265	11	0	0.1997	3.39059e-08
2	1	0	1	0	1	428.292	0.469523	0.46907	7.07536e-05	2	0.00240255	11	0	0.1997	3.31884e-08
2	0	0	1	0	1	430.989	0.456039	0.455561	-8.68216e-06	2	0.00240222	11	0	0.5993	-3.95525e-09
2	1	0	0	0	0	433.455	0.456338	0.455899	0.00263889	3	0.00240542	11	0	1.2536	1.20307e-06
2	0	0	0	0	0	436.152	0.469822	0.469348	0.00272145	3	0.00241291	11	0	3.9504	1.27731e-06
2	1	0	0	0	0	438.849	0.483306	0.482852	0.00268944	3	0.00242056	11	0	6.6472	1.2986e-06
2	1	0	0	0	0	441.545	0.49679	0.49635	0.00270247	3	0.00242812	11	0	9.344	1.34137e-06
2	1	0	0	0	0	444.242	0.510274	0.509793	0.00268974	3	0.00243574	11	0	12.0408	1.37121e-06
2	1	0	0	0	0	446.939	0.523758	0.523288	0.00280644	3	0.00244343	11	0	14.7376	1.46857e-06
2	1	0	0	0	0	449.636	0.537242	0.536732	0.00277649	3	0.0024511	11	0	17.4344	1.49023e-06
2	1	0	0	0	0	452.333	0.550726	0.550206	0.00282756	3	0.00245889	11	0	20.1312	1.55574e-06
2	1	0	0	0	0	455.029	0.56421	0.563773	0.00291564	3	0.00246683	11	0	22.828	1.64376e-06
2	1	0	0	0	0	457.726	0.577694	0.577278	0.00304029	3	0.00247513	11	0	25.5248	1.75509e-06
2	0	0	0	0	0	460.423	0.591178	0.590708	0.00333631	3	0.00248408	11	0	28.2216	1.97079e-06
2	1	0	0	0	0	463.12	0.604662	0.604194	0.00383366	3	0.00249411	11	0	30.9184	2.31628e-06
2	1	0	0	0	0	465.817	0.618146	0.617671	0.00497225	3	0.00250621	11	0	33.6152	3.07122e-06
2	1	0	0	0	0	468.513	0.63163	0.631178	0.00680346	3	0.00252213	11	0	36.312	4.29419e-06
2	1	0	0	0	0	471.21	0.645114	0.644658	0.0104716	3	0.00254523	11	0	39.0088	6.75058e-06
2	1	0	0	0	0	473.907	0.658598	0.658188	0.0179232	3	0.00258276	11	0	41.7056	1.17968e-05
2	1	0	1	0	0	476.604	0.672083	0.671613	0.0323257	3	0.00264883	11	0	44.4025	2.17104e-05
2	1	0	1	0	0	479.301	0.685567	0.685148	0.0581485	3	0.00276814	11	0	47.0993	3.98403e-05
2	1	0	1	0	0	481.997	0.699051	0.698616	0.100545	3	0.00297843	11	0	49.7961	7.02423e-05
2	1	0	1	0	0	484.435	0.688762	0.688307	0.064865	3	0.00318292	11	0	52.2335	4.4647e-05
2	1	0	1	0	0	487.132	0.675278	0.67483	0.0353669	3	0.00331425	11	0	54.9303	2.38666e-05
2	1	0	1	0	0	489.828	0.661794	0.661383	0.0182066	3	0.00338373	11	0	57.6271	1.20416e-05
2	1	0	1	0	0	492.525	0.64831	0.64788	0.00919848	3	0.00341897	11	0	60.3239	5.95951e-06
2	1	0	1	0	0	495.222	0.634826	0.634371	0.00488068	3	0.00343696	11	0	63.0207	3.09616e-06
2	1	0	1	0	0	497.919	0.621342	0.620872	0.00287086	3	0.0034468	11	0	65.7175	1.78244e-06
2	0	0	1	0	0	500.616	0.607859	0.607373	0.00181952	3	0.00345252	11	0	68.4143	1.10513e-06
2	1	0	1	0	0	503.312	0.594375	0.593978	0.00118346	3	0.00345611	11	0	71.1111	7.02949e-07
2	1	0	1	0	0	506.009	0.58089	0.580421	0.000859403	3	0.00345857	11	0	73.8079	4.98816e-07
2	1	0	1	0	0	508.706	0.567406	0.566962	0.000637241	3	0.00346022	11	0	76.5047	3.61291e-07
2	1	0	1	0	0	511.403	0.553923	0.553463	0.000404242	3	0.00346132	11	0	79.2015	2.23733e-07
2	1	0	1	0	0	514.1	0.540439	0.540006	0.000381262	3	0.0034621	11	0	81.8983	2.05883e-07
2	1	0	1	0	0	516.796	0.526955	0.526546	0.000280346	3	0.00346269	11	0	84.5951	1.47615e-07
2	1	0	1	0	0	519.493	0.513471	0.513003	0.000286299	3	0.00346312	11	0	0.4994	1.46872e-07
2	1	0	1	0	0	522.19	0.499987	0.499574	0.000162373	3	0.00346336	11	0	0.000000000000000E+000	8.11176e-08
2	0	0	1	0	0	524.887	0.486503	0.486044	0.000108108	3	0.00346342	11	0	0.1997	5.25452e-08
2	0	0	1	0	0	527.584	0.473019	0.472558	3.76476e-05	3	0.00346333	11	0	0.0998	1.77907e-08
2	0	0	0	0	0	530.281	0.459534	0.45909	-0.000125716	3	0.00346308	11	0	0.1998	-5.77149e-08
2	1	0	0	0	1	532.747	0.452842	0.452414	0.00254183	4	0.00346416	11	0	0.5544	1.14996e-06
2	0	0	0	0	1	535.444	0.466326	0.465899	0.00258848	4	0.00347142	11	0	3.2512	1.20597e-06
2	1	0	0	0	1	538.14	0.47981	0.479389	0.00269415	4	0.00347885	11	0	5.948	1.29154e-06
2	1	0	0	0	1	540.837	0.493294	0.492843	0.00261784	4	0.00348633	11	0	8.6448	1.29019e-06
2	1	0	0	0	1	543.534	0.506778	0.506339	0.00268286	4	0.00349387	11	0	11.3416	1.35844e-06
2	1	0	0	0	1	546.231	0.520262	0.519783	0.00271232	4	0.00350135	11	0	14.0384	1.40982e-06
2	1	0	0	0	1	548.928	0.533746	0.533243	0.00269095	4	0.00350888	11	0	16.7352	1.43493e-06
2	1	0	0	0	1	551.624	0.54723	0.546775	0.00274696	4	0.00351642	11	0	19.432	1.50197e-06
2	1	0	1	0	1	554.321	0.560715	0.560229	0.00280917	4	0.00352412	11	0	22.1289	1.57378e-06
2	1	0	1	0	1	557.018	0.574199	0.573742	0.00294305	4	0.00353207	11	0	24.8257	1.68855e-06
2	1	0	1	0	1	559.715	0.587683	0.587195	0.00312263	4	0.00354066	11	0	27.5225	1.83359e-06
2	1	0	1	0	1	562.412	0.601167	0.600699	0.00364658	4	0.00355007	11	0	30.2193	2.19049e-06
2	1	0	1	0	1	565.108	0.614651	0.614216	0.00438612	4	0.00356114	11	0	32.9161	2.69402e-06
2	1	0	1	0	1	567.805	0.628135	0.627683	0.00589453	4	0.00357518	11	0	35.6129	3.6999e-06
2	1	0	1	0	1	570.502	0.641619	0.641137	0.00893303	4	0.00359499	11	0	38.3097	5.7273e-06
2	1	0	1	0	1	573.199	0.655103	0.654688	0.0147301	4	0.00362631	11	0	41.0065	9.64359e-06
2	1	0	1	0	1	575.896	0.668587	0.668126	0.0262229	4	0.0036803	11	0	43.7033	1.75202e-05
2	1	0	1	0	1	578.592	0.682071	0.681622	0.0477093	4	0.00377774	11	0	46.4001	3.25197e-05
2	1	0	1	0	1	581.289	0.695555	0.695123	0.0840395	4	0.00395182	11	0	49.0969	5.84178e-05
2	1	0	1	0	1	583.727	0.692258	0.691797	0.0721748	4	0.00416455	11	0	51.5343	4.99303e-05
2	1	0	1	0	1	586.423	0.678774	0.678348	0.0400455	4	0.00431196	11	0	54.2311	2.71647e-05
2	1	0	1	0	1	589.12	0.665291	0.664895	0.0210227	4	0.00439149	11	0	56.9279	1.39779e-05
2	1	0	1	0	1	591.817	0.651807	0.651391	0.0107116	4	0.00443244	11	0	59.6247	6.97742e-06
2	1	0	1	0	1	594.514	0.638323	0.637845	0.00557939	4	0.00445325	11	0	62.3215	3.55879e-06
2	1	0	1	0	1	597.211	0.624839	0.624395	0.00310135	4	0.00446439	11	0	65.0183	1.93647e-06
2	1	0	1	0	1	599.907	0.611355	0.610918	0.0019525	4	0.00447075	11	0	67.7151	1.19282e-06
2	1	0	0	0	1	602.604	0.59787	0.597426	0.00129467	4	0.00447458	11	0	70.412	7.73467e-07
2	0	0	0	0	1	605.301	0.584386	0.584005	0.000863614	4	0.00447709	11	0	73.1088	5.04355e-07
2	1	0	0	0	1	607.998	0.570902	0.570445	0.000602981	4	0.00447878	11	0	75.8056	3.43967e-07
2	1	0	0	0	1	610.695	0.557418	0.556999	0.000479361	4	0.00447992	11	0	78.5024	2.67003e-07
2	1	0	0	0	1	613.392	0.543934	0.543472	0.0004046	4	0.00448074	11	0	81.1992	2.19889e-07
2	1	0	0	0	1	616.088	0.53045	0.530032	0.000273622	4	0.00448132	11	0	83.896	1.45028e-07
2	0	0	0	0	1	618.785	0.516966	0.516515	0.000207102	4	0.00448164	11	0	86.5928	1.06971e-07
2	1	0	0	0	1	621.482	0.503482	0.503038	8.98837e-05	4	0.00448188	11	0	0.3996	4.52149e-08
2	1	0	0	0	1	624.179	0.489998	0.489521	0.000104748	4	0.00448188	11	0	0.000000000000000E+000	5.12761e-08
2	1	0	0	0	1	626.876	0.476514	0.476037	1.45342e-05	4	0.00448179	11	0	0.2997	6.91883e-09
2	0	0	0	0	1	629.572	0.46303	0.462562	4.19073e-05	4	0.00448153	11	0	0.2997	1.93847e-08
2	1	0	0	0	1	632.173	0.450021	0.449554	0.00238834	4	0.00448118	11	0	2.0017	1.07369e-06
2	1	0	1	0	0	634.735	0.462831	0.462354	0.00261684	5	0.00448795	11	0	2.5521	1.20991e-06
2	1	0	1	0	0	637.432	0.476315	0.475903	0.00265893	5	0.00449539	11	0	5.2489	1.26539e-06
2	1	0	1	0	0	640.129	0.489799	0.489392	0.00265572	5	0.00450286	11	0	7.9457	1.29968e-06
2	0	0	1	0	0	642.826	0.503283	0.50286	0.002646	5	0.00451029	11	0	10.6425	1.33057e-06
2	1	0	1	0	0	645.523	0.516767	0.516338	0.00262598	5	0.0045177	11	0	13.3393	1.35589e-06
2	1	0	1	0	0	648.219	0.530251	0.529785	0.0025985	5	0.00452514	11	0	16.0361	1.37665e-06
2	0	0	1	0	0	650.916	0.543735	0.543285	0.00271055	5	0.00453267	11	0	18.7329	1.4726e-06
2	0	0	1	0	0	653.613	0.557219	0.556823	0.00273196	5	0.00454033	11	0	21.4297	1.52122e-06
2	1	0	1	0	0	656.31	0.570703	0.570275	0.00286183	5	0.00454811	11	0	24.1265	1.63203e-06
2	1	0	1	0	0	659.007	0.584187	0.583777	0.00310045	5	0.00455637	11	0	26.8233	1.80997e-06
2	1	0	1	0	0	661.703	0.597671	0.597258	0.00339877	5	0.00456539	11	0	29.5201	2.02995e-06
2	1	0	1	0	0	664.4	0.611155	0.610718	0.00413891	5	0.0045758	11	0	32.2169	2.52771e-06
2	1	0	1	0	0	667.097	0.624638	0.624224	0.00535988	5	0.00458871	11	0	34.9137	3.34576e-06
2	1	0	1	0	0	669.794	0.638122	0.637676	0.00763045	5	0.00460624	11	0	37.6105	4.86575e-06
2	1	0	1	0	0	672.491	0.651606	0.651195	0.0124321	5	0.00463291	11	0	40.3073	8.09575e-06
2	1	0	1	0	0	675.187	0.665091	0.664673	0.021814	5	0.00467796	11	0	43.0041	1.44992e-05
2	1	0	1	0	0	677.884	0.678574	0.678167	0.0396925	5	0.00475885	11	0	45.7009	2.69182e-05
2	1	0	1	0	0	680.581	0.692058	0.691633	0.0706533	5	0.00490448	11	0	48.3977	4.88662e-05
2	1	0	0	0	0	683.019	0.695754	0.695344	0.0805192	5	0.00511142	11	0	50.8352	5.59885e-05
2	1	0	0	0	0	685.715	0.68227	0.681885	0.0453698	5	0.00527686	11	0	53.532	3.0937e-05
2	1	0	0	0	0	688.412	0.668786	0.668369	0.0240136	5	0.00536746	11	0	56.2288	1.60499e-05
2	1	0	0	0	0	691.109	0.655302	0.654891	0.0123067	5	0.00541445	11	0	58.9256	8.05957e-06
2	1	0	0	0	0	693.806	0.641818	0.641379	0.00635714	5	0.00543835	11	0	61.6224	4.07733e-06
2	1	0	0	0	0	696.503	0.628334	0.627927	0.00358216	5	0.00545093	11	0	64.3192	2.24933e-06
2	1	0	0	0	0	699.199	0.61485	0.614406	0.00213646	5	0.00545808	11	0	67.016	1.31265e-06
2	1	0	0	0	0	701.896	0.601366	0.600922	0.00138355	5	0.00546235	11	0	69.7128	8.31409e-07
2	1	0	0	0	0	704.593	0.587882	0.587449	0.000971193	5	0.0054652	11	0	72.4096	5.70527e-07
2	1	0	0	0	0	707.29	0.574398	0.573943	0.00066148	5	0.00546718	11	0	75.1064	3.79652e-07
2	1	0	0	0	0	709.987	0.560914	0.560446	0.000548014	5	0.00546855	11	0	77.8032	3.07133e-07
2	0	0	0	0	0	712.683	0.54743	0.546977	0.000432415	5	0.00546955	11	0	80.5	2.36521e-07
2	0	0	0	0	0	715.38	0.533946	0.53352	0.000391944	5	0.00547029	11	0	83.1968	2.0911e-07
2	1	0	0	0	0	718.077	0.520462	0.520032	0.000301142	5	0.00547083	11	0	85.8936	1.56603e-07
2	1	0	0	0	0	720.774	0.506978	0.50649	0.000288044	5	0.00547124	11	0	0.0999	1.45892e-07
2	1	0	0	0	0	723.471	0.493494	0.493027	0.000170826	5	0.00547149	11	0	0.0999	8.42217e-08
2	1	0	0	0	0	726.167	0.48001	0.479589	5.34599e-05	5	0.00547152	11	0	0.000000000000000E+000	2.56388e-08
2	1	0	0	0	0	728.864	0.466526	0.466139	4.96835e-06	5	0.00547142	11	0	0.3995	2.31594e-09
2	0	0	0	0	0	731.561	0.453042	0.452608	-5.40694e-06	5	0.0054711	11	0	1.1986	-2.44722e-09
2	1	0	1	0	1	734.027	0.459335	0.458864	0.00257944	6	0.00547586	11	0	1.8529	1.18361e-06
2	1	0	1	0	1	736.724	0.472818	0.472346	0.00262118	6	0.00548322	11	0	4.5497	1.2381e-06
2	1	0	1	0	1	739.421	0.486303	0.485841	0.00264961	6	0.00549069	11	0	7.2465	1.28729e-06
2	1	0	1	0	1	742.118	0.499787	0.499355	0.00269529	6	0.00549823	11	0	9.9433	1.34591e-06
2	1	0	1	0	1	744.814	0.51327	0.512868	0.00268693	6	0.00550571	11	0	12.6401	1.37804e-06
2	1	0	1	0	1	747.511	0.526755	0.526323	0.00264697	6	0.00551323	11	0	15.3369	1.39316e-06
2	1	0	1	0	1	750.208	0.540238	0.539822	0.00262794	6	0.0055208	11	0	18.0337	1.41862e-06
2	1	0	1	0	1	752.905	0.553722	0.553268	0.00270305	6	0.00552834	11	0	20.7305	1.49551e-06
2	1	0	1	0	1	755.602	0.567206	0.566769	0.00283244	6	0.00553603	11	0	23.4273	1.60534e-06
2	1	0	1	0	1	758.298	0.58069	0.580258	0.00300063	6	0.00554414	11	0	26.1241	1.74114e-06
2	1	0	1	0	1	760.995	0.594174	0.593731	0.00327869	6	0.00555284	11	0	28.8209	1.94666e-06
2	1	0	1	0	1	763.692	0.607658	0.607217	0.00383033	6	0.00556263	11	0	31.5177	2.32584e-06
2	1	0	1	0	1	766.389	0.621142	0.62071	0.00478788	6	0.00557448	11	0	34.2145	2.97189e-06
2	1	0	1	0	1	769.086	0.634626	0.634205	0.00670602	6	0.00559012	11	0	36.9113	4.253e-06
2	1	0	1	0	1	771.782	0.64811	0.647667	0.0105936	6	0.00561319	11	0	39.6081	6.86115e-06
2	1	0	1	0	1	774.479	0.661594	0.661175	0.0182221	6	0.00565125	11	0	42.3049	1.2048e-05
2	1	0	1	0	1	777.176	0.675078	0.674657	0.0329926	6	0.00571856	11	0	45.0017	2.22587e-05
2	1	0	1	0	1	779.873	0.688562	0.688199	0.0592106	6	0.00584027	11	0	47.6985	4.07487e-05
2	1	0	0	0	1	782.31	0.69925	0.698794	0.0900067	6	0.00602762	11	0	50.136	6.28961e-05
2	1	0	0	0	1	785.007	0.685766	0.68536	0.0513743	6	0.00621367	11	0	52.8328	3.52099e-05
2	1	0	0	0	1	787.704	0.672282	0.671851	0.0275784	6	0.00631679	11	0	55.5296	1.85286e-05
2	1	0	0	0	1	790.401	0.658798	0.658398	0.0141588	6	0.00637076	11	0	58.2264	9.32215e-06
2	1	0	0	0	1	793.098	0.645314	0.644858	0.00732056	6	0.00639816	11	0	60.9232	4.72073e-06
2	1	0	0	0	1	795.794	0.63183	0.631436	0.00401004	6	0.00641244	11	0	63.62	2.53209e-06
2	1	0	0	0	1	798.491	0.618346	0.617935	0.00226214	6	0.00642033	11	0	66.3168	1.39786e-06
2	1	0	0	0	1	801.188	0.604862	0.604402	0.00143639	6	0.00642497	11	0	69.0136	8.68156e-07
2	1	0	0	0	1	803.885	0.591378	0.590973	0.000984585	6	0.00642786	11	0	71.7104	5.81864e-07
2	1	0	0	0	1	806.582	0.577894	0.577466	0.000693931	6	0.00642982	11	0	74.4072	4.00721e-07
2	1	0	0	0	1	809.278	0.56441	0.563985	0.000537786	6	0.00643115	11	0	77.104	3.03303e-07
2	1	0	0	0	1	811.975	0.550926	0.550497	0.000433298	6	0.00643212	11	0	79.8008	2.38529e-07
2	1	0	0	0	1	814.672	0.537442	0.536986	0.000305042	6	0.00643283	11	0	82.4976	1.63803e-07
2	1	0	0	0	1	817.369	0.523958	0.523535	0.000293048	6	0.00643335	11	0	85.1944	1.53421e-07
2	1	0	0	0	1	820.066	0.510474	0.51	0.000265233	6	0.00643371	11	0	0.0999	1.35269e-07
2	0	0	0	0	1	822.762	0.49699	0.496526	0.000155962	6	0.00643399	11	0	0.2996	7.7439e-08
2	0	0	0	0	1	825.459	0.483506	0.483063	0.000108583	6	0.00643406	11	0	0.0998	5.24526e-08
2	1	0	0	0	1	828.156	0.470022	0.469588	-4.77033e-05	6	0.00643396	11	0	0.3995	-2.24009e-08
2	1	0	0	0	1	830.853	0.456538	0.456089	1.27494e-05	6	0.0064337	11	0	0.0998	5.81487e-09
2	0	0	1	0	0	833.319	0.455838	0.455398	0.00248702	7	0.00643642	11	0	1.1927	1.13258e-06
2	1	0	1	0	0	836.016	0.469322	0.468887	0.00263614	7	0.00644369	11	0	3.8895	1.23605e-06
2	0	0	1	0	0	838.713	0.482806	0.48238	0.00259949	7	0.00645108	11	0	6.5863	1.25394e-06
2	1	0	1	0	0	841.409	0.49629	0.495887	0.00267514	7	0.00645851	11	0	9.2831	1.32657e-06
2	1	0	1	0	0	844.106	0.509774	0.509349	0.00262481	7	0.00646598	11	0	11.9799	1.33694e-06
2	1	0	1	0	0	846.803	0.523258	0.522791	0.00260473	7	0.00647338	11	0	14.6767	1.36173e-06
2	1	0	1	0	0	849.5	0.536742	0.536327	0.00266863	7	0.00648075	11	0	17.3735	1.43126e-06
2	1	0	1	0	0	852.197	0.550226	0.549824	0.0026818	7	0.00648826	11	0	20.0703	1.47452e-06
2	1	0	1	0	0	854.893	0.56371	0.563273	0.00274751	7	0.00649589	11	0	22.7671	1.5476e-06
2	1	0	1	0	0	857.59	0.577194	0.576766	0.00289454	7	0.00650376	11	0	25.4639	1.66947e-06
2	1	0	1	0	0	860.287	0.590678	0.590224	0.00311725	7	0.00651209	11	0	28.1607	1.83988e-06
2	1	0	1	0	0	862.984	0.604162	0.603726	0.00356162	7	0.00652133	11	0	30.8575	2.15024e-06
2	1	0	1	0	0	865.681	0.617647	0.617179	0.0044631	7	0.00653233	11	0	33.5544	2.75453e-06
2	1	0	1	0	0	868.378	0.631131	0.630668	0.00600798	7	0.0065465	11	0	36.2512	3.78904e-06
2	1	0	1	0	0	871.074	0.644615	0.644158	0.00916221	7	0.00656672	11	0	38.948	5.90191e-06
2	1	0	1	0	0	873.771	0.658099	0.657666	0.0152645	7	0.00659896	11	0	41.6448	1.00389e-05
2	1	0	1	0	0	876.468	0.671583	0.671151	0.0274373	7	0.00665514	11	0	44.3416	1.84146e-05
2	1	0	1	0	0	879.165	0.685067	0.684646	0.049845	7	0.00675694	11	0	47.0384	3.41262e-05
2	1	0	1	0	0	881.862	0.698551	0.698123	0.0872206	7	0.00693813	11	0	49.7352	6.08907e-05
2	1	0	0	0	0	884.299	0.689262	0.688821	0.0581861	7	0.00712148	11	0	52.1726	4.00798e-05
2	1	0	0	0	0	886.996	0.675778	0.675338	0.0316947	7	0.00723942	11	0	54.8694	2.14046e-05
2	1	0	0	0	0	889.693	0.662294	0.66186	0.0163947	7	0.00730192	11	0	57.5662	1.0851e-05
2	1	0	0	0	0	892.389	0.64881	0.648365	0.00840415	7	0.00733382	11	0	60.263	5.44896e-06
2	1	0	0	0	0	895.086	0.635326	0.634894	0.00447016	7	0.00735029	11	0	62.9598	2.83808e-06
2	1	0	0	0	0	897.783	0.621842	0.621415	0.00256795	7	0.00735926	11	0	65.6566	1.59576e-06
2	1	0	0	0	0	900.48	0.608358	0.607933	0.00158984	7	0.00736449	11	0	68.3534	9.66516e-07
2	1	0	0	0	0	903.177	0.594874	0.594402	0.00109606	7	0.00736772	11	0	71.0502	6.51499e-07
2	1	0	0	0	0	905.873	0.58139	0.580959	0.000774883	7	0.0073699	11	0	73.747	4.50176e-07
2	1	0	0	0	0	908.57	0.567906	0.56745	0.000593431	7	0.00737131	11	0	76.4438	3.36742e-07
2	1	0	1	0	0	911.267	0.554421	0.554005	0.000450314	7	0.00737234	11	0	79.1407	2.49476e-07
2	1	0	1	0	0	913.964	0.540937	0.540529	0.000325747	7	0.0073731	11	0	81.8375	1.76076e-07
2	1	0	1	0	0	916.661	0.527453	0.526985	0.000301064	7	0.0073736	11	0	84.5343	1.58656e-07
2	1	0	1	0	0	919.357	0.513969	0.51346	0.000101638	7	0.0073739	11	0	0.3996	5.21868e-08
2	1	0	1	0	0	922.054	0.500485	0.500037	0.000119922	7	0.00737409	11	0	0.000000000000000E+000	5.99652e-08
2	1	0	1	0	0	924.751	0.487001	0.486553	7.16628e-05	7	0.00737413	11	0	0.000000000000000E+000	3.48677e-08
2	1	0	1	0	0	927.448	0.473517	0.47308	6.07882e-05	7	0.00737395	11	0	0.000000000000000E+000	2.87577e-08
2	1	0	1	0	0	930.145	0.460033	0.459563	-5.6099e-05	7	0.00737357	11	0	0.899	-2.5781e-08
2	1	0	1	0	1	932.611	0.452342	0.451892	0.00249512	8	0.00737431	11	0	0.4645	1.12753e-06
2	1	0	1	0	1	935.308	0.465826	0.465416	0.00257405	8	0.0073815	11	0	3.1613	1.19801e-06
2	1	0	1	0	1	938.004	0.47931	0.478882	0.00263443	8	0.0073888	11	0	5.8581	1.26158e-06
2	1	0	1	0	1	940.701	0.492794	0.492333	0.00258172	8	0.00739612	11	0	8.5549	1.27106e-06
2	1	0	1	0	1	943.398	0.506279	0.505832	0.00262726	8	0.0074035	11	0	11.2518	1.32895e-06
2	1	0	1	0	1	946.095	0.519763	0.519352	0.00263727	8	0.00741087	11	0	13.9486	1.36967e-06
2	1	0	1	0	1	948.792	0.533247	0.532768	0.00266994	8	0.00741827	11	0	16.6454	1.42246e-06
2	1	0	1	0	1	951.489	0.546731	0.546312	0.00261417	8	0.00742572	11	0	19.3422	1.42815e-06
2	1	0	1	0	1	954.185	0.560215	0.559821	0.00267281	8	0.00743323	11	0	22.039	1.4963e-06
2	1	0	1	0	1	956.882	0.573699	0.573284	0.00286082	8	0.00744099	11	0	24.7358	1.64006e-06
2	1	0	1	0	1	959.579	0.587183	0.586726	0.0029773	8	0.00744919	11	0	27.4326	1.74686e-06
2	1	0	1	0	1	962.276	0.600667	0.600231	0.00336339	8	0.00745813	11	0	30.1294	2.01881e-06
2	1	0	1	0	1	964.973	0.614151	0.613745	0.00408554	8	0.00746844	11	0	32.8262	2.50748e-06
2	1	0	1	0	1	967.669	0.627635	0.62721	0.00539614	8	0.00748142	11	0	35.523	3.38451e-06
2	1	0	1	0	1	970.366	0.641119	0.640667	0.00787516	8	0.00749925	11	0	38.2198	5.04536e-06
2	1	0	1	0	1	973.063	0.654603	0.654198	0.0130522	8	0.00752702	11	0	40.9166	8.53873e-06
2	1	0	1	0	1	975.76	0.668087	0.667619	0.023086	8	0.00757455	11	0	43.6134	1.54127e-05
2	1	0	1	0	1	978.457	0.681571	0.68108	0.0419001	8	0.00766002	11	0	46.3102	2.85373e-05
2	1	0	1	0	1	981.153	0.695055	0.69463	0.0744036	8	0.00781356	11	0	49.007	5.16829e-05
2	1	0	0	0	1	983.591	0.692758	0.692326	0.0661879	8	0.00800661	11	0	51.4444	4.58236e-05
2	1	0	0	0	1	986.288	0.679274	0.678852	0.0365456	8	0.00814169	11	0	54.1412	2.48091e-05
2	1	0	1	0	1	988.984	0.665789	0.665373	0.0191391	8	0.0082141	11	0	56.8381	1.27347e-05
2	1	0	1	0	1	991.681	0.652305	0.651913	0.00974495	8	0.00825121	11	0	59.5349	6.35285e-06
2	1	0	1	0	1	994.378	0.638821	0.638365	0.00509417	8	0.00827015	11	0	62.2317	3.25194e-06
2	1	0	1	0	1	997.075	0.625337	0.624925	0.00287556	8	0.00828025	11	0	64.9285	1.79701e-06
2	0	0	1	0	1	999.772	0.611853	0.611358	0.00178625	8	0.00828608	11	0	67.6253	1.09204e-06
2	1	0	1	0	1	1002.47	0.598369	0.597931	0.00113892	8	0.00828956	11	0	70.3221	6.80997e-07
2	1	0	1	0	1	1005.17	0.584885	0.584455	0.000821647	8	0.00829195	11	0	73.0189	4.80216e-07
2	1	0	1	0	1	1007.86	0.571401	0.57096	0.000606614	8	0.00829354	11	0	75.7157	3.46352e-07
2	1	0	1	0	1	1010.56	0.557917	0.557496	0.000521709	8	0.00829473	11	0	78.4125	2.90851e-07
2	0	0	1	0	1	1013.26	0.544433	0.543989	0.000374817	8	0.00829551	11	0	81.1093	2.03896e-07
2	1	0	1	0	1	1015.95	0.530949	0.530521	0.00030669	8	0.00829608	11	0	83.8061	1.62705e-07
2	1	0	1	0	1	1018.65	0.517465	0.517024	0.000173479	8	0.00829639	11	0	0.000000000000000E+000	8.96927e-08
2	0	0	1	0	1	1021.35	0.503981	0.503587	0.00020092	8	0.00829668	11	0	0.2997	1.01181e-07
2	0	0	1	0	1	1024.04	0.490497	0.490066	7.14168e-05	8	0.00829669	11	0	0.2996	3.4999e-08
2	1	0	1	0	1	1026.74	0.477013	0.476545	3.7068e-05	8	0.00829664	11	0	0.1998	1.76646e-08
2	1	0	1	0	1	1029.44	0.463529	0.463084	-2.44503e-05	8	0.00829633	11	0	0.3995	-1.13226e-08
2	1	0	1	0	1	1032.11	0.45017	0.449708	-0.000991794	8	0.00829592	11	0	1.4733	-4.46018e-07
2	1	0	1	0	0	1034.6	0.462331	0.461869	0.00258054	9	0.00830227	11	0	2.4522	1.19187e-06
2	1	0	1	0	0	1037.3	0.475815	0.475395	0.00251667	9	0.00830947	11	0	5.149	1.19641e-06
2	1	0	1	0	0	1039.99	0.489299	0.488827	0.00265486	9	0.00831677	11	0	7.8458	1.29777e-06
2	1	0	1	0	0	1042.69	0.502783	0.502301	0.00261291	9	0.00832404	11	0	10.5426	1.31247e-06
2	1	0	1	0	0	1045.39	0.516267	0.515816	0.00256163	9	0.00833137	11	0	13.2394	1.32133e-06
2	1	0	1	0	0	1048.08	0.529751	0.529327	0.00259628	9	0.0083386	11	0	15.9362	1.37428e-06
2	1	0	1	0	0	1050.78	0.543235	0.542793	0.00257583	9	0.0083459	11	0	18.633	1.39814e-06
2	1	0	1	0	0	1053.48	0.556719	0.556275	0.00270938	9	0.0083534	11	0	21.3298	1.50716e-06
2	1	0	1	0	0	1056.17	0.570203	0.569791	0.00274242	9	0.008361	11	0	24.0266	1.56261e-06
2	1	0	1	0	0	1058.87	0.583687	0.583209	0.00283771	9	0.00836902	11	0	26.7234	1.65498e-06
2	1	0	1	0	0	1061.57	0.597171	0.59675	0.00327465	9	0.00837757	11	0	29.4202	1.95415e-06
2	1	0	1	0	0	1064.26	0.610655	0.610199	0.00379069	9	0.00838731	11	0	32.117	2.31307e-06
2	1	0	1	0	0	1066.96	0.624139	0.623712	0.00494087	9	0.00839932	11	0	34.8138	3.08168e-06
2	1	0	1	0	0	1069.66	0.637623	0.637182	0.00702638	9	0.00841537	11	0	37.5106	4.47708e-06
2	1	0	1	0	0	1072.35	0.651107	0.65066	0.0110448	9	0.00843951	11	0	40.2074	7.18639e-06
2	1	0	1	0	0	1075.05	0.664591	0.66419	0.0194722	9	0.00847985	11	0	42.9042	1.29333e-05
2	1	0	1	0	0	1077.75	0.678075	0.677593	0.0352081	9	0.00855175	11	0	45.601	2.38568e-05
2	1	0	1	0	0	1080.45	0.691559	0.691119	0.0632998	9	0.00868186	11	0	48.2978	4.37477e-05
2	1	0	1	0	0	1082.88	0.696253	0.695864	0.0754282	9	0.00887094	11	0	50.7353	5.24878e-05
2	1	0	1	0	0	1085.58	0.682769	0.682323	0.0423408	9	0.00902576	11	0	53.4321	2.88901e-05
2	1	0	1	0	0	1088.28	0.669285	0.668798	0.0223215	9	0.00911001	11	0	56.1289	1.49286e-05
2	1	0	1	0	0	1090.97	0.655801	0.655359	0.0114138	9	0.00915353	11	0	58.8257	7.48015e-06
2	1	0	1	0	0	1093.67	0.642317	0.641914	0.00590103	9	0.00917569	11	0	61.5225	3.78795e-06
2	1	0	1	0	0	1096.37	0.628833	0.628366	0.00324967	9	0.00918733	11	0	64.2193	2.04198e-06
2	1	0	1	0	0	1099.06	0.615349	0.614887	0.00200805	9	0.00919388	11	0	66.9161	1.23472e-06
2	1	0	1	0	0	1101.76	0.601865	0.601385	0.00121123	9	0.0091978	11	0	69.6129	7.28415e-07
2	1	0	1	0	0	1104.46	0.588381	0.587924	0.00093495	9	0.00920038	11	0	72.3097	5.4968e-07
2	1	0	1	0	0	1107.15	0.574897	0.574452	0.000653259	9	0.0092021	11	0	75.0065	3.75266e-07
2	1	0	1	0	0	1109.85	0.561413	0.56098	0.000470232	9	0.0092033	11	0	77.7033	2.63791e-07
2	1	0	1	0	0	1112.55	0.547929	0.547487	0.000380013	9	0.00920418	11	0	80.4001	2.08052e-07
2	0	0	1	0	0	1115.24	0.534445	0.533997	0.000344671	9	0.00920478	11	0	83.0969	1.84054e-07
2	0	0	1	0	0	1117.94	0.520961	0.520509	0.000231932	9	0.00920517	11	0	0.5993	1.20723e-07
2	1	0	1	0	0	1120.64	0.507478	0.507054	0.000151587	9	0.00920544	11	0	0.3995	7.68627e-08
2	0	0	1	0	0	1123.33	0.493994	0.49354	0.000134968	9	0.00920553	11	0	0.3995	6.66122e-08
2	0	0	1	0	0	1126.03	0.48051	0.480104	0.000125887	9	0.00920544	11	0	0.4994	6.04387e-08
2	1	0	1	0	0	1128.73	0.467025	0.466602	7.26787e-06	9	0.00920521	11	0	0.3995	3.39121e-09
2	0	0	1	0	0	1131.43	0.453542	0.453083	-7.34948e-05	9	0.00920482	11	0	1.1985	-3.32993e-08
2	1	0	1	0	1	1133.89	0.458835	0.458383	0.00250158	10	0.00920921	11	0	1.753	1.14668e-06
2	1	0	1	0	1	1136.59	0.472319	0.471874	0.00262123	10	0.00921636	11	0	4.4498	1.23689e-06
2	1	0	1	0	1	1139.28	0.485803	0.485336	0.0025514	10	0.00922364	11	0	7.1466	1.23829e-06
2	0	0	1	0	1	1141.98	0.499287	0.498827	0.00259062	10	0.00923087	11	0	9.8434	1.29227e-06
2	1	0	1	0	1	1144.68	0.512771	0.512322	0.00260695	10	0.0092381	11	0	12.5402	1.3356e-06
2	1	0	1	0	1	1147.38	0.526255	0.525828	0.00253212	10	0.00924535	11	0	15.237	1.33146e-06
2	0	0	1	0	1	1150.07	0.539739	0.539317	0.00260651	10	0.0092526	11	0	17.9338	1.40574e-06
2	1	0	1	0	1	1152.77	0.553223	0.552756	0.00267708	10	0.00925998	11	0	20.6306	1.47977e-06
2	1	0	1	0	1	1155.47	0.566707	0.566288	0.00268481	10	0.00926755	11	0	23.3274	1.52037e-06
2	1	0	1	0	1	1158.16	0.580191	0.579746	0.00293433	10	0.00927542	11	0	26.0242	1.70116e-06
2	1	0	1	0	1	1160.86	0.593675	0.593197	0.00316413	10	0.00928389	11	0	28.721	1.87695e-06
2	1	0	1	0	1	1163.56	0.607159	0.606682	0.00367429	10	0.00929336	11	0	31.4178	2.22912e-06
2	1	0	1	0	1	1166.25	0.620643	0.620218	0.0045721	10	0.00930473	11	0	34.1146	2.8357e-06
2	1	0	1	0	1	1168.95	0.634127	0.63371	0.00620267	10	0.00931944	11	0	36.8114	3.93069e-06
2	1	0	1	0	1	1171.65	0.647611	0.647206	0.00963848	10	0.00934059	11	0	39.5082	6.23808e-06
2	1	0	1	0	1	1174.34	0.661096	0.660641	0.0164412	10	0.00937508	11	0	42.2051	1.08617e-05
2	1	0	1	0	1	1177.04	0.67458	0.674137	0.0298678	10	0.00943593	11	0	44.9019	2.0135e-05
2	1	0	1	0	1	1179.74	0.688064	0.687631	0.0538859	10	0.00954617	11	0	47.5987	3.70536e-05
2	1	0	1	0	1	1182.17	0.699749	0.699331	0.0856714	10	0.00971763	11	0	50.0361	5.99127e-05
2	1	0	1	0	1	1184.87	0.686265	0.68582	0.0488018	10	0.00989456	11	0	52.7329	3.34692e-05
2	1	0	1	0	1	1187.57	0.672781	0.672344	0.0261086	10	0.00999239	11	0	55.4297	1.7554e-05
2	1	0	1	0	1	1190.26	0.659297	0.658868	0.0133711	10	0.0100435	11	0	58.1265	8.80982e-06
2	1	0	1	0	1	1192.96	0.645813	0.645429	0.00686709	10	0.0100695	11	0	60.8233	4.43222e-06
2	1	0	1	0	1	1195.66	0.632329	0.631885	0.00380088	10	0.0100831	11	0	63.5201	2.40172e-06
2	1	0	1	0	1	1198.36	0.618846	0.618475	0.00224205	10	0.0100907	11	0	66.2169	1.38665e-06
2	1	0	1	0	1	1201.05	0.605361	0.6049	0.00138457	10	0.0100952	11	0	68.9137	8.37527e-07
2	0	0	1	0	1	1203.75	0.591877	0.591418	0.00105894	10	0.0100981	11	0	71.6105	6.26276e-07
2	1	0	1	0	1	1206.45	0.578393	0.577916	0.00073261	10	0.0101001	11	0	74.3073	4.23387e-07
2	1	0	1	0	1	1209.14	0.56491	0.564482	0.0005613	10	0.0101015	11	0	77.0041	3.16844e-07
2	1	0	1	0	1	1211.84	0.551426	0.550969	0.000480022	10	0.0101025	11	0	79.7009	2.64477e-07
2	1	0	1	0	1	1214.54	0.537942	0.537544	0.000305313	10	0.0101033	11	0	82.3977	1.64119e-07
2	1	0	1	0	1	1217.23	0.524458	0.524019	0.000261946	10	0.0101038	11	0	85.0945	1.37265e-07
2	1	0	1	0	1	1219.93	0.510974	0.510503	0.000246106	10	0.0101043	11	0	87.7913	1.25638e-07
2	0	0	1	0	1	1222.63	0.49749	0.497011	0.00020861	10	0.0101045	11	0	0.000000000000000E+000	1.03681e-07
2	1	0	1	0	1	1225.32	0.484005	0.483599	0.000263909	10	0.0101047	11	0	0.1998	1.27626e-07
2	1	0	1	0	1	1228.02	0.470521	0.47005	0.000106881	10	0.0101046	11	0	0.000000000000000E+000	5.02397e-08
2	0	0	1	0	1	1230.72	0.457037	0.456579	-3.56737e-06	10	0.0101045	11	0	0.1998	-1.62878e-09
2	1	0	1	0	0	1233.18	0.455339	0.454873	0.00247384	11	0.010107	11	0	1.0638	1.12528e-06
2	1	0	1	0	0	1235.88	0.468823	0.468369	0.00256199	11	0.0101143	11	0	3.7606	1.19996e-06
2	1	0	1	0	0	1238.58	0.482307	0.481859	0.0025901	11	0.0101218	11	0	6.4574	1.24806e-06
2	1	0	1	0	0	1241.27	0.495791	0.49532	0.00273916	11	0.0101292	11	0	9.1542	1.35676e-06
2	1	0	1	0	0	1243.97	0.509275	0.508807	0.00262381	11	0.0101366	11	0	11.851	1.33501e-06
2	1	0	1	0	0	1246.67	0.522759	0.522324	0.00259109	11	0.0101439	11	0	14.5478	1.35339e-06
2	0	0	1	0	0	1249.36	0.536243	0.535838	0.00251011	11	0.0101512	11	0	17.2446	1.34501e-06
2	1	0	1	0	0	1252.06	0.549728	0.54935	0.00266203	11	0.0101586	11	0	19.9415	1.46239e-06
2	1	0	1	0	0	1254.76	0.563212	0.562753	0.00276444	11	0.0101661	11	0	22.6383	1.5557e-06
2	1	0	1	0	0	1257.45	0.576696	0.576279	0.00285448	11	0.0101739	11	0	25.3351	1.64498e-06
2	1	0	1	0	0	1260.15	0.59018	0.589699	0.00305579	11	0.0101822	11	0	28.0319	1.802e-06
2	1	0	1	0	0	1262.85	0.603664	0.603209	0.0034311	11	0.0101912	11	0	30.7287	2.06967e-06
2	1	0	1	0	0	1265.54	0.617148	0.616713	0.00416985	11	0.0102019	11	0	33.4255	2.5716e-06
2	1	0	1	0	0	1268.24	0.630632	0.630202	0.00563101	11	0.0102152	11	0	36.1223	3.54868e-06
2	1	0	1	0	0	1270.94	0.644116	0.643682	0.00839372	11	0.0102341	11	0	38.8191	5.40289e-06
2	1	0	1	0	0	1273.64	0.657599	0.657169	0.0140413	11	0.0102637	11	0	41.5159	9.2275e-06
2	1	0	1	0	0	1276.33	0.671084	0.67065	0.0250214	11	0.010315	11	0	44.2127	1.67806e-05
2	1	0	1	0	0	1279.03	0.684568	0.684124	0.0455761	11	0.0104079	11	0	46.9095	3.11797e-05
2	1	0	1	0	0	1281.73	0.698051	0.697616	0.0803966	11	0.0105743	11	0	49.6063	5.6086e-05
2	1	0	1	0	0	1284.16	0.689761	0.689324	0.0558571	11	0.0107492	11	0	52.0437	3.85037e-05
2	1	0	1	0	0	1286.86	0.676278	0.675873	0.0303763	11	0.0108623	11	0	54.7405	2.05305e-05
2	1	0	1	0	0	1289.56	0.662794	0.662384	0.0156754	11	0.010922	11	0	57.4373	1.03831e-05
2	1	0	1	0	0	1292.25	0.64931	0.648906	0.00795591	11	0.0109523	11	0	60.1341	5.16264e-06
2	1	0	1	0	0	1294.95	0.635826	0.635394	0.00429468	11	0.010968	11	0	62.8309	2.72881e-06
2	1	0	1	0	0	1297.65	0.622342	0.621901	0.00249833	11	0.0109765	11	0	65.5277	1.55371e-06
2	0	0	1	0	0	1300.34	0.608857	0.608398	0.00150291	11	0.0109815	11	0	68.2246	9.14366e-07
2	0	0	1	0	0	1303.04	0.595373	0.594918	0.000956329	11	0.0109845	11	0	70.9214	5.68938e-07
2	1	0	1	0	0	1305.74	0.581889	0.58145	0.000766263	11	0.0109866	11	0	73.6182	4.45544e-07
2	0	0	1	0	0	1308.43	0.568405	0.567965	0.000608206	11	0.0109881	11	0	76.315	3.45439e-07
2	0	0	1	0	0	1311.13	0.554921	0.554481	0.000530428	11	0.0109892	11	0	79.0118	2.94113e-07
2	1	0	1	0	0	1313.83	0.541437	0.540968	0.000357065	11	0.01099	11	0	81.7086	1.93161e-07
2	1	0	1	0	0	1316.52	0.527953	0.527482	0.000299302	11	0.0109905	11	0	84.4054	1.57877e-07
2	1	0	1	0	0	1319.22	0.514469	0.514002	0.000154711	11	0.0109909	11	0	0.000000000000000E+000	7.95217e-08
2	1	0	1	0	0	1321.92	0.500985	0.500531	0.000181274	11	0.0109911	11	0	0.000000000000000E+000	9.07335e-08
2	0	0	1	0	0	1324.62	0.487501	0.487049	0.000123585	11	0.0109912	11	0	0.000000000000000E+000	6.01919e-08
2	1	0	1	0	0	1327.31	0.474017	0.473531	5.63296e-05	11	0.0109911	11	0	0.3995	2.66738e-08
2	1	0	1	0	0	1330.01	0.460533	0.460041	1.68889e-05	11	0.0109909	11	0	0.000000000000000E+000	7.76958e-09
2	1	0	1	0	1	1332.48	0.451844	0.4514	0.00243169	12	0.0109915	11	0	0.3547	1.09766e-06
2	1	0	1	0	1	1335.17	0.465328	0.464876	0.00262852	12	0.0109986	11	0	3.0515	1.22194e-06
2	0	0	1	0	1	1337.87	0.478812	0.478363	0.00259491	12	0.0110059	11	0	5.7483	1.24131e-06
2	1	0	1	0	1	1340.57	0.492296	0.491847	0.00256548	12	0.0110131	11	0	8.4451	1.26182e-06
2	1	0	1	0	1	1343.26	0.50578	0.505368	0.00260574	12	0.0110203	11	0	11.1419	1.31686e-06
2	1	0	1	0	1	1345.96	0.519264	0.518844	0.00257804	12	0.0110275	11	0	13.8387	1.3376e-06
2	1	0	1	0	1	1348.66	0.532748	0.532326	0.00255652	12	0.0110347	11	0	16.5355	1.3609e-06
2	1	0	1	0	1	1351.35	0.546232	0.545778	0.00260404	12	0.011042	11	0	19.2323	1.42123e-06
2	1	0	1	0	1	1354.05	0.559716	0.559254	0.0026171	12	0.0110493	11	0	21.9291	1.46362e-06
2	1	0	1	0	1	1356.75	0.5732	0.57269	0.00271145	12	0.0110569	11	0	24.6259	1.55282e-06
2	1	0	1	0	1	1359.44	0.586684	0.586245	0.00294283	12	0.0110648	11	0	27.3227	1.72522e-06
2	1	0	1	0	1	1362.14	0.600167	0.599712	0.00334339	12	0.0110736	11	0	30.0195	2.00507e-06
2	1	0	1	0	1	1364.84	0.613651	0.613178	0.00397752	12	0.0110836	11	0	32.7163	2.43893e-06
2	1	0	1	0	1	1367.53	0.627135	0.626733	0.00513972	12	0.011096	11	0	35.4131	3.22123e-06
2	1	0	1	0	1	1370.23	0.640619	0.640149	0.00737249	12	0.0111129	11	0	38.1099	4.71949e-06
2	1	0	1	0	1	1372.93	0.654103	0.653665	0.0119094	12	0.0111386	11	0	40.8067	7.78476e-06
2	1	0	1	0	1	1375.62	0.667587	0.667193	0.0211471	12	0.0111822	11	0	43.5035	1.41092e-05
2	1	0	1	0	1	1378.32	0.681071	0.680607	0.0387325	12	0.011261	11	0	46.2003	2.63616e-05
2	1	0	1	0	1	1381.02	0.694555	0.694141	0.0691045	12	0.0114032	11	0	48.8971	4.79683e-05
2	1	0	1	0	1	1383.45	0.693257	0.692756	0.0641882	12	0.0115873	11	0	51.3346	4.44667e-05
2	1	0	1	0	1	1386.15	0.679773	0.679303	0.0353966	12	0.011718	11	0	54.0314	2.40451e-05
2	1	0	1	0	1	1388.85	0.666289	0.665845	0.018388	12	0.0117879	11	0	56.7282	1.22435e-05
2	1	0	1	0	1	1391.55	0.652805	0.652325	0.00931401	12	0.0118236	11	0	59.425	6.07576e-06
2	1	0	1	0	1	1394.24	0.639321	0.638895	0.00487406	12	0.0118416	11	0	62.1218	3.11401e-06
2	1	0	1	0	1	1396.94	0.625837	0.62535	0.00263234	12	0.0118512	11	0	64.8186	1.64613e-06
2	1	0	1	0	1	1399.64	0.612353	0.611929	0.00169555	12	0.0118568	11	0	67.5154	1.03756e-06
2	1	0	1	0	1	1402.33	0.598869	0.598454	0.00111601	12	0.0118602	11	0	70.2122	6.67877e-07
2	1	0	1	0	1	1405.03	0.585385	0.584936	0.000796064	12	0.0118625	11	0	72.909	4.65646e-07
2	1	0	1	0	1	1407.73	0.571901	0.571484	0.000556845	12	0.011864	11	0	75.6058	3.18228e-07
2	1	0	1	0	1	1410.42	0.558417	0.55792	0.000404747	12	0.0118651	11	0	78.3026	2.25817e-07
2	1	0	1	0	1	1413.12	0.544933	0.544486	0.000341466	12	0.0118659	11	0	80.9994	1.85923e-07
2	1	0	1	0	1	1415.82	0.531449	0.530976	0.000293048	12	0.0118665	11	0	0.0999	1.55601e-07
2	1	0	1	0	1	1418.51	0.517965	0.517507	0.000184733	12	0.011867	11	0	0.000000000000000E+000	9.56006e-08
2	1	0	1	0	1	1421.21	0.504481	0.504026	0.000209163	12	0.0118673	11	0	0.1998	1.05423e-07
2	1	0	1	0	1	1423.91	0.490997	0.490511	0.000119979	12	0.0118674	11	0	0.1997	5.88512e-08
2	1	0	1	0	1	1426.6	0.477513	0.477054	3.23414e-05	12	0.0118675	11	0	0.1997	1.54286e-08
2	1	0	1	0	1	1429.3	0.464029	0.463543	2.02502e-06	12	0.0118673	11	0	0.0999	9.38684e-10
2	1	0	1	0	1	1432	0.450545	0.450067	-0.000123067	12	0.0118669	11	0	1.1986	-5.53884e-08
2	1	0	1	0	0	1434.46	0.461832	0.461407	0.00256568	13	0.011873	11	0	2.3623	1.18382e-06
2	0	0	1	0	0	1437.16	0.475316	0.474878	0.00257472	13	0.0118802	11	0	5.0591	1.22268e-06
2	0	0	1	0	0	1439.86	0.488799	0.488313	0.00261327	13	0.0118875	11	0	7.7559	1.2761e-06
2	1	0	1	0	0	1442.55	0.502283	0.50182	0.00262242	13	0.0118948	11	0	10.4527	1.31598e-06
2	1	0	1	0	0	1445.25	0.515768	0.51534	0.00262418	13	0.0119021	11	0	13.1495	1.35234e-06
2	1	0	1	0	0	1447.95	0.529252	0.52882	0.00260327	13	0.0119095	11	0	15.8463	1.37666e-06
2	1	0	1	0	0	1450.64	0.542735	0.5423	0.00259774	13	0.0119168	11	0	18.5431	1.40875e-06
2	1	0	1	0	0	1453.34	0.556219	0.555779	0.00271886	13	0.0119242	11	0	21.2399	1.51108e-06
2	1	0	1	0	0	1456.04	0.569703	0.569238	0.00280659	13	0.0119318	11	0	23.9367	1.59762e-06
2	1	0	1	0	0	1458.73	0.583187	0.58277	0.00287206	13	0.0119399	11	0	26.6335	1.67375e-06
2	1	0	1	0	0	1461.43	0.596671	0.596219	0.00311289	13	0.0119484	11	0	29.3303	1.85597e-06
2	1	0	1	0	0	1464.13	0.610155	0.609657	0.00370102	13	0.0119579	11	0	32.0271	2.25635e-06
2	1	0	1	0	0	1466.83	0.623639	0.623189	0.00474302	13	0.0119695	11	0	34.7239	2.9558e-06
2	1	0	1	0	0	1469.52	0.637123	0.636675	0.0065604	13	0.0119847	11	0	37.4207	4.17684e-06
2	1	0	1	0	0	1472.22	0.650607	0.650193	0.010359	13	0.0120072	11	0	40.1175	6.73537e-06
2	1	0	1	0	0	1474.92	0.664091	0.66364	0.0180349	13	0.0120447	11	0	42.8143	1.19687e-05
2	1	0	1	0	0	1477.61	0.677575	0.67715	0.0328234	13	0.0121117	11	0	45.5111	2.22264e-05
2	1	0	1	0	0	1480.31	0.691059	0.690632	0.0591745	13	0.012233	11	0	48.2079	4.08678e-05
2	1	0	1	0	0	1482.75	0.696753	0.696334	0.0735425	13	0.0124124	11	0	50.6454	5.12102e-05
2	1	0	1	0	0	1485.44	0.683269	0.68282	0.0412353	13	0.0125633	11	0	53.3422	2.81563e-05
2	1	0	1	0	0	1488.14	0.669785	0.669347	0.0217304	13	0.0126453	11	0	56.039	1.45452e-05
2	1	0	1	0	0	1490.84	0.656301	0.655883	0.0109934	13	0.0126875	11	0	58.7358	7.2104e-06
2	1	0	1	0	0	1493.53	0.642817	0.642356	0.00568282	13	0.0127088	11	0	61.4326	3.65039e-06
2	1	0	1	0	0	1496.23	0.629333	0.628875	0.0032035	13	0.0127201	11	0	64.1294	2.0146e-06
2	1	0	1	0	0	1498.93	0.615849	0.615366	0.00192484	13	0.0127265	11	0	66.8262	1.18448e-06
2	1	0	1	0	0	1501.62	0.602365	0.601902	0.00125302	13	0.0127303	11	0	69.523	7.54194e-07
2	0	0	1	0	0	1504.32	0.588881	0.588419	0.000928073	13	0.0127329	11	0	72.2198	5.46096e-07
2	1	0	1	0	0	1507.02	0.575397	0.574953	0.000716079	13	0.0127346	11	0	74.9166	4.11712e-07
2	1	0	1	0	0	1509.71	0.561913	0.561488	0.000522996	13	0.012736	11	0	77.6134	2.93656e-07
2	1	0	1	0	0	1512.41	0.548429	0.548033	0.00040357	13	0.012737	11	0	80.3102	2.2117e-07
2	0	0	1	0	0	1515.11	0.534945	0.534474	0.000356182	13	0.0127377	11	0	83.007	1.9037e-07
2	1	0	1	0	0	1517.81	0.521461	0.521008	0.000256921	13	0.0127383	11	0	85.7038	1.33858e-07
2	1	0	1	0	0	1520.5	0.507977	0.50752	0.000217604	13	0.0127387	11	0	0.3995	1.10438e-07
2	1	0	1	0	0	1523.2	0.494493	0.493976	0.000144948	13	0.0127389	11	0	0.000000000000000E+000	7.16007e-08
2	1	0	1	0	0	1525.9	0.481009	0.480569	0.000156428	13	0.012739	11	0	0.000000000000000E+000	7.51746e-08
2	0	0	1	0	0	1528.59	0.467524	0.467062	3.52866e-05	13	0.012739	11	0	0.0999	1.6481e-08
2	0	0	1	0	0	1531.29	0.45404	0.453586	3.23769e-05	13	0.0127388	11	0	0.0999	1.46857e-08
2	1	0	1	0	1	1533.76	0.458335	0.457891	0.00261547	14	0.0127431	11	0	1.6531	1.1976e-06
2	1	0	1	0	1	1536.45	0.471819	0.471337	0.00262928	14	0.0127505	11	0	4.3499	1.23928e-06
2	1	0	1	0	1	1539.15	0.485303	0.484847	0.00264802	14	0.0127579	11	0	7.0467	1.28388e-06
2	1	0	1	0	1	1541.85	0.498787	0.498308	0.00266761	14	0.0127653	11	0	9.7435	1.32929e-06
2	1	0	1	0	1	1544.54	0.512271	0.511798	0.00261723	14	0.0127727	11	0	12.4403	1.33949e-06
2	1	0	1	0	1	1547.24	0.525755	0.525314	0.00264833	14	0.01278	11	0	15.1371	1.3912e-06
2	0	0	1	0	1	1549.94	0.539239	0.5388	0.00269893	14	0.0127874	11	0	17.8339	1.45418e-06
2	1	0	1	0	1	1552.63	0.552723	0.552301	0.00272912	14	0.012795	11	0	20.5307	1.50729e-06
2	0	0	1	0	1	1555.33	0.566207	0.565764	0.00279008	14	0.0128027	11	0	23.2275	1.57852e-06
2	1	0	1	0	1	1558.03	0.579691	0.579273	0.00289767	14	0.0128106	11	0	25.9243	1.67854e-06
2	1	0	1	0	1	1560.72	0.593175	0.592716	0.00311047	14	0.0128189	11	0	28.6211	1.84363e-06
2	1	0	0	0	1	1563.42	0.60666	0.606215	0.00353602	14	0.0128282	11	0	31.318	2.14359e-06
2	1	0	0	0	1	1566.12	0.620144	0.61969	0.00442859	14	0.0128392	11	0	34.0148	2.74435e-06
2	1	0	0	0	1	1568.81	0.633628	0.633171	0.00602469	14	0.0128533	11	0	36.7116	3.81466e-06
2	1	0	0	0	1	1571.51	0.647112	0.646682	0.00904168	14	0.0128734	11	0	39.4084	5.84709e-06
2	1	0	0	0	1	1574.21	0.660596	0.660223	0.0152764	14	0.0129057	11	0	42.1052	1.00858e-05
2	1	0	0	0	1	1576.9	0.67408	0.67368	0.0276924	14	0.0129623	11	0	44.802	1.86558e-05
2	1	0	0	0	1	1579.6	0.687564	0.687123	0.0504496	14	0.0130652	11	0	47.4988	3.46651e-05
2	1	0	0	0	1	1582.08	0.700024	0.699499	0.0872625	14	0.0132302	11	0	49.9814	6.104e-05
2	1	0	1	0	1	1584.74	0.686765	0.686328	0.0477687	14	0.0133997	11	0	52.633	3.2785e-05
2	1	0	1	0	1	1587.43	0.673281	0.672836	0.0255033	14	0.0134954	11	0	55.3298	1.71596e-05
2	1	0	1	0	1	1590.13	0.659797	0.659364	0.0131042	14	0.0135452	11	0	58.0266	8.64041e-06
2	1	0	1	0	1	1592.83	0.646313	0.645895	0.00670033	14	0.0135704	11	0	60.7234	4.32771e-06
2	1	0	1	0	1	1595.52	0.632829	0.63239	0.00368051	14	0.0135835	11	0	63.4202	2.32752e-06
2	1	0	1	0	1	1598.22	0.619345	0.618918	0.00209786	14	0.0135907	11	0	66.117	1.2984e-06
2	1	0	1	0	1	1600.92	0.605861	0.60537	0.0013292	14	0.013595	11	0	68.8138	8.04656e-07
2	0	0	1	0	1	1603.61	0.592377	0.591935	0.00102278	14	0.0135978	11	0	71.5106	6.0542e-07
2	1	0	1	0	1	1606.31	0.578892	0.578455	0.000784356	14	0.0135998	11	0	74.2075	4.53715e-07
2	0	0	1	0	1	1609.01	0.565408	0.564936	0.000584694	14	0.0136013	11	0	76.9043	3.30315e-07
2	0	0	1	0	1	1611.7	0.551924	0.551448	0.000522921	14	0.0136025	11	0	79.6011	2.88364e-07
2	1	0	1	0	1	1614.4	0.53844	0.538024	0.0004483	14	0.0136034	11	0	82.2979	2.41196e-07
2	1	0	1	0	1	1617.1	0.524956	0.524534	0.000304602	14	0.0136041	11	0	84.9947	1.59774e-07
2	1	0	1	0	1	1619.79	0.511472	0.51105	0.000342939	14	0.0136048	11	0	87.6915	1.75259e-07
2	0	0	1	0	1	1622.49	0.497988	0.497521	0.000211677	14	0.0136052	11	0	0.000000000000000E+000	1.05314e-07
2	1	0	1	0	1	1625.19	0.484504	0.484073	0.000229078	14	0.0136055	11	0	0.000000000000000E+000	1.10891e-07
2	1	0	1	0	1	1627.88	0.47102	0.470525	0.000129289	14	0.0136056	11	0	0.1998	6.08339e-08
2	1	0	1	0	1	1630.58	0.457536	0.457123	8.5209e-05	14	0.0136055	11	0	0.2997	3.8951e-08
2	1	0	1	0	0	1633.05	0.454839	0.454411	0.00257356	15	0.0136078	11	0	0.9929	1.16945e-06
2	0	0	1	0	0	1635.74	0.468323	0.46785	0.00263557	15	0.0136152	11	0	3.6897	1.23305e-06
2	1	0	1	0	0	1638.44	0.481807	0.481361	0.00272707	15	0.0136226	11	0	6.3865	1.31271e-06
2	1	0	0	0	0	1641.14	0.495292	0.494838	0.00260865	15	0.01363	11	0	9.0834	1.29086e-06
2	1	0	0	0	0	1643.83	0.508776	0.508319	0.00264993	15	0.0136375	11	0	11.7802	1.34701e-06
2	1	0	0	0	0	1646.53	0.52226	0.521831	0.00264213	15	0.013645	11	0	14.477	1.37874e-06
2	1	0	0	0	0	1649.23	0.535744	0.535276	0.0026266	15	0.0136524	11	0	17.1738	1.40596e-06
2	1	0	0	0	0	1651.92	0.549228	0.548803	0.00270254	15	0.0136599	11	0	19.8706	1.48316e-06
2	1	0	0	0	0	1654.62	0.562712	0.56227	0.00275905	15	0.0136675	11	0	22.5674	1.55133e-06
2	1	0	0	0	0	1657.32	0.576196	0.575769	0.002816	15	0.0136753	11	0	25.2642	1.62137e-06
2	1	0	0	0	0	1660.02	0.58968	0.589256	0.00304544	15	0.0136836	11	0	27.961	1.79454e-06
2	1	0	0	0	0	1662.71	0.603164	0.602746	0.00351542	15	0.0136928	11	0	30.6578	2.1189e-06
2	1	0	0	0	0	1665.41	0.616648	0.616216	0.00423499	15	0.0137033	11	0	33.3546	2.60967e-06
2	1	0	0	0	0	1668.11	0.630132	0.629715	0.00545942	15	0.0137164	11	0	36.0514	3.43788e-06
2	1	0	0	0	0	1670.8	0.643616	0.643186	0.00800474	15	0.0137344	11	0	38.7482	5.14854e-06
2	1	0	0	0	0	1673.5	0.6571	0.656683	0.0132028	15	0.0137624	11	0	41.445	8.67002e-06
2	1	0	0	0	0	1676.2	0.670584	0.670178	0.0234833	15	0.0138107	11	0	44.1418	1.5738e-05
2	1	0	0	0	0	1678.89	0.684068	0.683656	0.0428805	15	0.013898	11	0	46.8386	2.93155e-05
2	1	0	0	0	0	1681.59	0.697552	0.697132	0.0761723	15	0.0140551	11	0	49.5354	5.31021e-05
2	1	0	1	0	0	1684.03	0.69026	0.689813	0.0550627	15	0.0142266	11	0	51.9729	3.7983e-05
2	1	0	1	0	0	1686.72	0.676776	0.67641	0.0299572	15	0.014338	11	0	54.6697	2.02633e-05
2	1	0	1	0	0	1689.42	0.663292	0.662846	0.0153938	15	0.0143968	11	0	57.3665	1.02037e-05
2	1	0	1	0	0	1692.12	0.649808	0.649348	0.00783492	15	0.0144266	11	0	60.0633	5.08759e-06
2	1	0	1	0	0	1694.81	0.636324	0.635888	0.00423913	15	0.0144419	11	0	62.7601	2.69561e-06
2	1	0	1	0	0	1697.51	0.62284	0.622427	0.00252674	15	0.0144503	11	0	65.4569	1.57271e-06
2	1	0	1	0	0	1700.21	0.609356	0.608911	0.00162539	15	0.0144555	11	0	68.1537	9.89718e-07
2	1	0	1	0	0	1702.9	0.595872	0.595467	0.00109713	15	0.0144588	11	0	70.8505	6.53307e-07
2	1	0	1	0	0	1705.6	0.582388	0.581958	0.000788563	15	0.0144611	11	0	73.5473	4.58911e-07
2	1	0	1	0	0	1708.3	0.568904	0.568457	0.000593626	15	0.0144627	11	0	76.2441	3.37451e-07
2	1	0	1	0	0	1711	0.55542	0.554951	0.000515735	15	0.014464	11	0	78.9409	2.86207e-07
2	1	0	1	0	0	1713.69	0.541936	0.541503	0.000474759	15	0.014465	11	0	81.6377	2.57083e-07
2	1	0	1	0	0	1716.39	0.528452	0.528026	0.000364288	15	0.0144658	11	0	84.3345	1.92353e-07
2	1	0	1	0	0	1719.09	0.514968	0.514488	0.000333769	15	0.0144665	11	0	87.0313	1.7172e-07
2	0	0	1	0	0	1721.78	0.501484	0.501057	0.000147265	15	0.0144669	11	0	0.0999	7.37881e-08
2	0	0	1	0	0	1724.48	0.488	0.487524	0.000172831	15	0.0144672	11	0	0.000000000000000E+000	8.4259e-08
2	1	0	1	0	0	1727.18	0.474516	0.474027	0.00021418	15	0.0144674	11	0	0.2996	1.01527e-07
2	1	0	1	0	0	1729.87	0.461032	0.46055	3.20038e-05	15	0.0144674	11	0	0.000000000000000E+000	1.47394e-08
2	1	0	0	0	0	1732.07	0.450021	0.449649	0.00113604	15	0.0144674	11	0	0.029	5.10817e-07