File: ACS_Catal_2026/Figures_Na_K/main_figures/data/EC/20251112_2-148_alpha_reproducibility/20251112_2-148_006_gamma_reproducibility_2_Na2_03_CVA_C02.mpt
EC-Lab ASCII FILE
Nb header lines : 66

Cyclic Voltammetry Advanced

Run on channel : 2 (SN 69290)
User :
CE vs. WE compliance from -10 V to 10 V
Electrode connection : standard
Potential control : Ewe
Ewe ctrl range : min = -1.00 V, max = 1.00 V
Safety Limits :
	Do not start on E overload
Acquisition started on : 11/12/2025 21:00:04.183
Loaded Setting File :  C:\Users\User\Documents\EC-Lab\Data\Yatsuzuka\20251112_2-148_alpha_reproducibility\20251112_2-148_002_alpha_reproducibility_2_K1.mps
Saved on :
	File : 20251112_2-148_006_gamma_reproducibility_2_Na2_r_03_CVA_C02.mpr
	Directory : C:\Users\User\Documents\EC-Lab\Data\Yatsuzuka\20251112_2-148_alpha_reproducibility\
	Host : 192.109.209.127
Device : SP-150e (SN .003883)
Address : 192.109.209.128
EC-Lab for windows v11.52 (software)
Internet server v11.52 (firmware)
Command interpretor v11.50 (firmware)
Electrode material :
Initial state :
Electrolyte :
Comments :
Electrode surface area : 0.001 cm2
Characteristic mass : 0.001 g
Equivalent Weight : 0.000 g/eq.
Density : 0.000 g/cm3
Volume (V) : 0.001 cm3
Cycle Definition : Charge/Discharge alternance
Ei (V)              0.450
vs.                 Ref
ti (h:m:s)          0:00:10.0000
dti (s)             0.0000
dE/dt               5.000
dE/dt unit          mV/s
E1 (V)              0.700
vs.                 Ref
t1 (h:m:s)          0:00:0.0000
dt1 (s)             0.1000
Step percent        50
N                   10
E range min (V)     -1.000
E range max (V)     1.000
I Range             10 mA
I Range min         Unset
I Range max         Unset
I Range init        Unset
Bandwidth           5
E2 (V)              0.450
vs.                 Ref
t2 (h:m:s)          0:00:0.0000
dt2 (s)             0.1000
nc cycles           14
nr                  1
Reverse Scan        0
Ef (V)              0.000
vs.                 Eoc
tf (h:m:s)          0:00:0.0000
dtf (s)             0.1000

mode	ox/red	error	control changes	Ns changes	counter inc.	time/s	control/V	Ewe/V	<I>/mA	cycle number	(Q-Qo)/C	I Range	Ns	step time/s	P/W
2	1	0	1	0	0	232.278	0.450021	0.449535	0.00296052	1	0.0000000E+000	11	0	0.000000000000000E+000	1.33086e-06
2	1	0	1	0	0	234.93	0.463279	0.462859	0.00311318	1	8.87094e-06	11	0	2.5969	1.44096e-06
2	1	0	1	0	0	237.627	0.476763	0.476319	0.00322496	1	1.7941e-05	11	0	5.2937	1.53611e-06
2	1	0	0	0	0	240.324	0.490248	0.489784	0.00324169	1	2.69793e-05	11	0	7.9906	1.58773e-06
2	1	0	1	0	0	243.021	0.503731	0.503313	0.00334196	1	3.59115e-05	11	0	10.6873	1.68205e-06
2	1	0	0	0	0	245.718	0.517216	0.516752	0.00325442	1	4.47991e-05	11	0	13.3842	1.68172e-06
2	1	0	0	0	0	248.414	0.5307	0.530262	0.00318061	1	5.37591e-05	11	0	16.081	1.68656e-06
2	1	0	0	0	0	251.111	0.544184	0.543688	0.00313867	1	6.27191e-05	11	0	18.7778	1.70646e-06
2	1	0	0	0	0	253.808	0.557668	0.557217	0.00329731	1	7.18413e-05	11	0	21.4746	1.83732e-06
2	0	0	0	0	0	256.505	0.571152	0.570649	0.00329444	1	8.10577e-05	11	0	24.1714	1.87997e-06
2	1	0	0	0	0	259.202	0.584636	0.584185	0.00355949	1	9.05328e-05	11	0	26.8682	2.0794e-06
2	1	0	0	0	0	261.898	0.59812	0.597656	0.00376001	1	0.000100468	11	0	29.565	2.24719e-06
2	1	0	0	0	0	264.595	0.611604	0.611181	0.00409709	1	0.000111312	11	0	32.2618	2.50407e-06
2	1	0	0	0	0	267.292	0.625088	0.624665	0.00504352	1	0.000123791	11	0	34.9586	3.15051e-06
2	1	0	0	0	0	269.989	0.638572	0.638135	0.00678723	1	0.000139573	11	0	37.6554	4.33117e-06
2	1	0	0	0	0	272.686	0.652056	0.651598	0.0106854	1	0.000162863	11	0	40.3522	6.96257e-06
2	1	0	0	0	0	275.382	0.66554	0.665086	0.0194227	1	0.000202474	11	0	43.049	1.29178e-05
2	1	0	0	0	0	278.079	0.679024	0.678602	0.0359186	1	0.000275056	11	0	45.7458	2.43745e-05
2	1	0	0	0	0	280.776	0.692508	0.692052	0.0653244	1	0.000408494	11	0	48.4426	4.52079e-05
2	1	0	1	0	0	283.223	0.695255	0.694863	0.0708278	1	0.000598692	11	0	50.89	4.92156e-05
2	1	0	1	0	0	285.92	0.681771	0.681331	0.0380369	1	0.000740929	11	0	53.5868	2.59157e-05
2	1	0	1	0	0	288.617	0.668287	0.667792	0.0190979	1	0.000814956	11	0	56.2836	1.27534e-05
2	1	0	1	0	0	291.314	0.654802	0.654362	0.00923156	1	0.000851241	11	0	58.9805	6.04078e-06
2	1	0	1	0	0	294.011	0.641318	0.64089	0.0043108	1	0.000868258	11	0	61.6773	2.76275e-06
2	1	0	1	0	0	296.707	0.627834	0.627397	0.00222002	1	0.000876289	11	0	64.3741	1.39283e-06
2	1	0	1	0	0	299.404	0.61435	0.613874	0.00120667	1	0.000880373	11	0	67.0709	7.40741e-07
2	1	0	1	0	0	302.101	0.600866	0.600413	0.000873035	1	0.000882738	11	0	69.7677	5.24181e-07
2	0	0	1	0	0	304.798	0.587382	0.586941	0.000487187	1	0.000884208	11	0	72.4645	2.8595e-07
2	0	0	1	0	0	307.495	0.573898	0.573493	0.000404106	1	0.000885226	11	0	75.1613	2.31752e-07
2	0	0	1	0	0	310.191	0.560414	0.559989	0.000253252	1	0.000885911	11	0	77.8581	1.41818e-07
2	0	0	1	0	0	312.888	0.54693	0.546472	0.000276896	1	0.000886349	11	0	0.0999	1.51316e-07
2	1	0	1	0	0	315.585	0.533446	0.533022	0.000106525	1	0.000886633	11	0	0.0999	5.67801e-08
2	1	0	1	0	0	318.282	0.519962	0.519527	0.000115042	1	0.000886769	11	0	0.1998	5.97675e-08
2	1	0	1	0	0	320.979	0.506478	0.50604	9.62347e-05	1	0.000886682	11	0	0.1998	4.86986e-08
2	1	0	1	0	0	323.675	0.492994	0.492562	0.000171384	1	0.000886518	11	0	0.000000000000000E+000	8.44175e-08
2	0	0	1	0	0	326.372	0.47951	0.479053	-0.000138854	1	0.000886197	11	0	0.000000000000000E+000	-6.65185e-08
2	1	0	1	0	0	329.069	0.466026	0.465559	-9.77041e-05	1	0.000885677	11	0	0.2996	-4.5487e-08
2	0	0	1	0	0	331.766	0.452542	0.452064	-0.000230984	1	0.000885097	11	0	0.000000000000000E+000	-1.04419e-07
2	1	0	0	0	1	334.232	0.459834	0.459382	0.00275684	2	0.000890385	11	0	1.9528	1.26644e-06
2	1	0	0	0	1	336.929	0.473318	0.472828	0.00279783	2	0.000898133	11	0	4.6496	1.32289e-06
2	0	0	0	0	1	339.626	0.486802	0.486344	0.00266361	2	0.000905924	11	0	7.3464	1.29543e-06
2	1	0	0	0	1	342.323	0.500286	0.499852	0.00292829	2	0.000913793	11	0	10.0432	1.46371e-06
2	1	0	0	0	1	345.019	0.51377	0.513375	0.00263374	2	0.000921526	11	0	12.74	1.3521e-06
2	1	0	0	0	1	347.716	0.527254	0.526786	0.00287082	2	0.0009293	11	0	15.4368	1.51231e-06
2	1	0	0	0	1	350.413	0.540738	0.540279	0.00264934	2	0.000937026	11	0	18.1336	1.43138e-06
2	1	0	0	0	1	353.11	0.554222	0.553806	0.00290637	2	0.000944749	11	0	20.8304	1.60956e-06
2	0	0	0	0	1	355.807	0.567706	0.5673	0.00270887	2	0.0009526	11	0	23.5272	1.53674e-06
2	1	0	0	0	1	358.503	0.58119	0.580762	0.00301998	2	0.000960619	11	0	26.224	1.75389e-06
2	1	0	0	0	1	361.2	0.594674	0.594233	0.00296008	2	0.000968861	11	0	28.9208	1.75898e-06
2	1	0	0	0	1	363.897	0.608158	0.607686	0.00325464	2	0.000977751	11	0	31.6176	1.9778e-06
2	1	0	0	0	1	366.594	0.621642	0.621226	0.00407848	2	0.000987684	11	0	34.3144	2.53366e-06
2	1	0	0	0	1	369.291	0.635126	0.634651	0.00511387	2	0.00100012	11	0	37.0112	3.24552e-06
2	1	0	0	0	1	371.987	0.64861	0.648148	0.0084436	2	0.00101835	11	0	39.708	5.4727e-06
2	1	0	0	0	1	374.684	0.662094	0.66174	0.0152448	2	0.00104936	11	0	42.4048	1.00881e-05
2	1	0	0	0	1	377.381	0.675578	0.675154	0.0287721	2	0.00110721	11	0	45.1016	1.94256e-05
2	1	0	0	0	1	380.078	0.689062	0.688623	0.0538009	2	0.00121589	11	0	47.7984	3.70485e-05
2	1	0	1	0	1	382.515	0.69875	0.698267	0.0796306	2	0.00138737	11	0	50.2359	5.56034e-05
2	1	0	1	0	1	385.212	0.685266	0.684814	0.0432448	2	0.00154818	11	0	52.9327	2.96146e-05
2	1	0	1	0	1	387.909	0.671782	0.671346	0.0219729	2	0.00163266	11	0	55.6295	1.47514e-05
2	1	0	1	0	1	390.606	0.658298	0.657874	0.0105214	2	0.0016742	11	0	58.3263	6.92175e-06
2	1	0	1	0	1	393.302	0.644814	0.644415	0.00475274	2	0.00169358	11	0	61.0231	3.06274e-06
2	1	0	1	0	1	395.999	0.63133	0.630875	0.00237871	2	0.00170251	11	0	63.7199	1.50067e-06
2	1	0	1	0	1	398.696	0.617846	0.617403	0.00129437	2	0.00170686	11	0	66.4167	7.99146e-07
2	1	0	1	0	1	401.393	0.604362	0.603932	0.000659194	2	0.0017092	11	0	69.1135	3.98108e-07
2	1	0	1	0	1	404.09	0.590878	0.590415	0.000455331	2	0.0017106	11	0	71.8103	2.68834e-07
2	1	0	1	0	1	406.786	0.577394	0.576994	0.000275277	2	0.00171136	11	0	74.5071	1.58833e-07
2	1	0	1	0	1	409.483	0.56391	0.563417	0.000217208	2	0.0017119	11	0	0.1998	1.22379e-07
2	1	0	1	0	1	412.18	0.550426	0.549979	0.000300397	2	0.00171223	11	0	0.0999	1.65212e-07
2	1	0	1	0	1	414.877	0.536942	0.536517	0.000180788	2	0.00171241	11	0	0.0999	9.69958e-08
2	1	0	1	0	1	417.574	0.523458	0.523036	-2.24756e-06	2	0.0017124	11	0	0.0999	-1.17555e-09
2	1	0	1	0	1	420.27	0.509974	0.50951	0.000112254	2	0.00171224	11	0	0.1998	5.71947e-08
2	1	0	1	0	1	422.967	0.49649	0.496059	-0.000142743	2	0.00171195	11	0	0.0999	-7.08088e-08
2	0	0	1	0	1	425.664	0.483006	0.48253	-0.000218753	2	0.00171155	11	0	0.0999	-1.05555e-07
2	0	0	1	0	1	428.361	0.469523	0.469033	-0.000198576	2	0.00171105	11	0	0.000000000000000E+000	-9.31386e-08
2	0	0	1	0	1	431.058	0.456039	0.455624	-0.000214362	2	0.00171037	11	0	0.1997	-9.76686e-08
2	1	0	0	0	0	433.524	0.456338	0.455866	0.00291703	3	0.00171351	11	0	1.2536	1.32978e-06
2	0	0	0	0	0	436.221	0.469822	0.469349	0.00263359	3	0.00172115	11	0	3.9504	1.23607e-06
2	1	0	0	0	0	438.918	0.483306	0.48285	0.0028684	3	0.0017289	11	0	6.6472	1.385e-06
2	1	0	0	0	0	441.614	0.49679	0.496325	0.00261659	3	0.00173663	11	0	9.344	1.29868e-06
2	1	0	0	0	0	444.311	0.510274	0.509803	0.00275368	3	0.00174434	11	0	12.0408	1.40384e-06
2	1	0	0	0	0	447.008	0.523758	0.523328	0.00276604	3	0.00175194	11	0	14.7376	1.44755e-06
2	1	0	0	0	0	449.705	0.537242	0.536782	0.00269768	3	0.00175962	11	0	17.4344	1.44807e-06
2	1	0	0	0	0	452.402	0.550726	0.550304	0.00265493	3	0.00176725	11	0	20.1312	1.46102e-06
2	1	0	0	0	0	455.098	0.56421	0.563756	0.00284169	3	0.00177503	11	0	22.828	1.60202e-06
2	1	0	0	0	0	457.795	0.577694	0.577232	0.00272748	3	0.00178284	11	0	25.5248	1.57439e-06
2	1	0	0	0	0	460.492	0.591178	0.590772	0.00302476	3	0.00179088	11	0	28.2216	1.78694e-06
2	0	0	0	0	0	463.189	0.604662	0.60421	0.00309246	3	0.00179935	11	0	30.9184	1.86849e-06
2	1	0	0	0	0	465.886	0.618146	0.617718	0.00370063	3	0.0018088	11	0	33.6152	2.28595e-06
2	1	0	0	0	0	468.582	0.63163	0.63121	0.00475204	3	0.0018202	11	0	36.312	2.99953e-06
2	1	0	0	0	0	471.279	0.645114	0.644687	0.00707729	3	0.00183603	11	0	39.0088	4.56264e-06
2	1	0	0	0	0	473.976	0.658598	0.658216	0.0125979	3	0.00186201	11	0	41.7056	8.29215e-06
2	1	0	1	0	0	476.673	0.672083	0.671643	0.0238249	3	0.00190965	11	0	44.4025	1.60018e-05
2	1	0	1	0	0	479.37	0.685567	0.68515	0.0446476	3	0.00199957	11	0	47.0993	3.05903e-05
2	1	0	1	0	0	482.066	0.699051	0.698596	0.08116	3	0.00216561	11	0	49.7961	5.66981e-05
2	1	0	1	0	0	484.504	0.688762	0.688305	0.0496953	3	0.00232661	11	0	52.2335	3.42055e-05
2	1	0	1	0	0	487.201	0.675278	0.674848	0.025506	3	0.00242462	11	0	54.9303	1.72126e-05
2	1	0	1	0	0	489.897	0.661794	0.661387	0.0123238	3	0.00247348	11	0	57.6271	8.15083e-06
2	1	0	1	0	0	492.594	0.64831	0.647867	0.00568763	3	0.00249647	11	0	60.3239	3.68483e-06
2	1	0	1	0	0	495.291	0.634826	0.634404	0.00279973	3	0.00250708	11	0	63.0207	1.77616e-06
2	0	0	1	0	0	497.988	0.621342	0.620867	0.00136742	3	0.0025122	11	0	65.7175	8.48984e-07
2	1	0	1	0	0	500.685	0.607859	0.607453	0.0008532	3	0.00251485	11	0	68.4143	5.18279e-07
2	1	0	1	0	0	503.381	0.594375	0.593919	0.000551936	3	0.00251646	11	0	71.1111	3.27805e-07
2	0	0	1	0	0	506.078	0.58089	0.580413	0.000462106	3	0.00251749	11	0	73.8079	2.68213e-07
2	1	0	1	0	0	508.775	0.567406	0.566964	0.000365801	3	0.00251822	11	0	76.5047	2.07396e-07
2	0	0	1	0	0	511.472	0.553923	0.553475	9.84315e-05	3	0.00251866	11	0	0.000000000000000E+000	5.44794e-08
2	0	0	1	0	0	514.169	0.540439	0.540007	0.000141227	3	0.00251887	11	0	0.0998	7.62633e-08
2	1	0	1	0	0	516.865	0.526955	0.526479	0.000177674	3	0.00251898	11	0	0.000000000000000E+000	9.35414e-08
2	1	0	1	0	0	519.562	0.513471	0.513007	0.000218014	3	0.00251897	11	0	0.0998	1.11843e-07
2	0	0	1	0	0	522.259	0.499987	0.49956	-5.71535e-05	3	0.00251876	11	0	0.0998	-2.85516e-08
2	0	0	1	0	0	524.956	0.486503	0.486053	0.000131271	3	0.00251846	11	0	0.000000000000000E+000	6.38046e-08
2	0	0	1	0	0	527.653	0.473019	0.472543	-0.000233172	3	0.00251802	11	0	0.000000000000000E+000	-1.10184e-07
2	1	0	0	0	0	530.35	0.459534	0.459088	-9.84901e-05	3	0.00251736	11	0	0.2997	-4.52156e-08
2	0	0	0	0	1	532.816	0.452842	0.452396	0.00254522	4	0.00251832	11	0	0.5644	1.15145e-06
2	1	0	0	0	1	535.513	0.466326	0.465876	0.00266567	4	0.00252571	11	0	3.2612	1.24187e-06
2	1	0	0	0	1	538.209	0.47981	0.479385	0.0025394	4	0.00253335	11	0	5.958	1.21735e-06
2	1	0	0	0	1	540.906	0.493294	0.492793	0.00253138	4	0.00254103	11	0	8.6548	1.24745e-06
2	0	0	0	0	1	543.603	0.506778	0.506348	0.00264859	4	0.00254869	11	0	11.3516	1.34111e-06
2	0	0	0	0	1	546.3	0.520262	0.519813	0.00260842	4	0.00255633	11	0	14.0484	1.35589e-06
2	1	0	0	0	1	548.997	0.533746	0.533329	0.00264121	4	0.00256397	11	0	16.7452	1.40863e-06
2	1	0	0	0	1	551.693	0.54723	0.546746	0.00281344	4	0.00257158	11	0	19.442	1.53823e-06
2	1	0	1	0	1	554.39	0.560715	0.560257	0.00275837	4	0.00257917	11	0	22.1389	1.54539e-06
2	1	0	1	0	1	557.087	0.574199	0.5738	0.00285216	4	0.0025869	11	0	24.8357	1.63657e-06
2	1	0	1	0	1	559.784	0.587683	0.587227	0.00303648	4	0.00259487	11	0	27.5325	1.7831e-06
2	1	0	1	0	1	562.481	0.601167	0.600727	0.00312065	4	0.00260319	11	0	30.2293	1.87466e-06
2	1	0	1	0	1	565.177	0.614651	0.614197	0.00359835	4	0.00261216	11	0	32.9261	2.2101e-06
2	1	0	1	0	1	567.874	0.628135	0.627725	0.00428004	4	0.00262268	11	0	35.6229	2.68669e-06
2	1	0	1	0	1	570.571	0.641619	0.641171	0.00623627	4	0.00263656	11	0	38.3197	3.99851e-06
2	1	0	1	0	1	573.268	0.655103	0.654667	0.0105238	4	0.00265851	11	0	41.0165	6.8896e-06
2	1	0	1	0	1	575.965	0.668587	0.668135	0.0197968	4	0.00269795	11	0	43.7133	1.32269e-05
2	1	0	1	0	1	578.661	0.682071	0.681663	0.0375242	4	0.00277273	11	0	46.4101	2.55789e-05
2	1	0	1	0	1	581.358	0.695555	0.695122	0.0688558	4	0.00291251	11	0	49.1069	4.78632e-05
2	1	0	1	0	1	583.796	0.692258	0.691803	0.0576763	4	0.00308618	11	0	51.5443	3.99006e-05
2	1	0	1	0	1	586.492	0.678774	0.67837	0.0300563	4	0.00320039	11	0	54.2411	2.03893e-05
2	1	0	1	0	1	589.189	0.665291	0.664812	0.0147164	4	0.00325811	11	0	56.9379	9.78366e-06
2	1	0	1	0	1	591.886	0.651807	0.651364	0.00678649	4	0.00328554	11	0	59.6347	4.42047e-06
2	1	0	1	0	1	594.583	0.638323	0.637856	0.00330289	4	0.00329814	11	0	62.3315	2.10677e-06
2	1	0	1	0	1	597.28	0.624839	0.624412	0.00169896	4	0.00330403	11	0	65.0283	1.06085e-06
2	1	0	1	0	1	599.976	0.611355	0.61091	0.000863274	4	0.00330707	11	0	67.7251	5.27383e-07
2	1	0	0	0	1	602.673	0.59787	0.597414	0.000411517	4	0.00330879	11	0	70.422	2.45846e-07
2	0	0	0	0	1	605.37	0.584386	0.58396	0.000380833	4	0.00330982	11	0	73.1188	2.22391e-07
2	1	0	0	0	1	608.067	0.570902	0.570445	0.000360818	4	0.00331049	11	0	0.000000000000000E+000	2.05827e-07
2	1	0	0	0	1	610.764	0.557418	0.556988	0.000160082	4	0.00331092	11	0	0.0999	8.91639e-08
2	0	0	0	0	1	613.461	0.543934	0.543475	0.000148015	4	0.00331118	11	0	0.0999	8.04423e-08
2	1	0	0	0	1	616.157	0.53045	0.529998	0.000312768	4	0.00331136	11	0	0.0999	1.65767e-07
2	1	0	0	0	1	618.854	0.516966	0.51653	-7.33981e-05	4	0.00331137	11	0	0.000000000000000E+000	-3.79123e-08
2	1	0	0	0	1	621.551	0.503482	0.503028	-3.80044e-05	4	0.00331123	11	0	0.0999	-1.91173e-08
2	1	0	0	0	1	624.248	0.489998	0.489527	0.000129913	4	0.00331103	11	0	0.0999	6.35959e-08
2	1	0	0	0	1	626.945	0.476514	0.476079	2.27019e-05	4	0.00331065	11	0	0.0999	1.08079e-08
2	0	0	0	0	1	629.641	0.46303	0.462536	-0.000126378	4	0.00331012	11	0	0.000000000000000E+000	-5.84545e-08
2	0	0	0	0	1	632.242	0.450021	0.449458	-0.00320636	4	0.00330942	11	0	0.000000000000000E+000	-1.44113e-06
2	0	0	1	0	0	634.804	0.462831	0.462393	0.0025431	5	0.00331636	11	0	2.5521	1.17591e-06
2	0	0	1	0	0	637.501	0.476315	0.475876	0.00255809	5	0.00332399	11	0	5.2489	1.21734e-06
2	0	0	1	0	0	640.198	0.489799	0.489312	0.0026046	5	0.00333159	11	0	7.9457	1.27446e-06
2	1	0	1	0	0	642.895	0.503283	0.502874	0.00256546	5	0.00333913	11	0	10.6425	1.2901e-06
2	1	0	1	0	0	645.592	0.516767	0.516294	0.00245257	5	0.00334659	11	0	13.3393	1.26625e-06
2	1	0	1	0	0	648.288	0.530251	0.529817	0.00266056	5	0.003354	11	0	16.0361	1.40961e-06
2	1	0	1	0	0	650.985	0.543735	0.543332	0.0027682	5	0.00336148	11	0	18.7329	1.50405e-06
2	0	0	1	0	0	653.682	0.557219	0.556796	0.00257383	5	0.00336902	11	0	21.4297	1.4331e-06
2	1	0	1	0	0	656.379	0.570703	0.570253	0.00258917	5	0.00337664	11	0	24.1265	1.47648e-06
2	1	0	1	0	0	659.076	0.584187	0.583709	0.00273442	5	0.00338442	11	0	26.8233	1.5961e-06
2	1	0	1	0	0	661.772	0.597671	0.597217	0.00313228	5	0.00339248	11	0	29.5201	1.87065e-06
2	1	0	1	0	0	664.469	0.611155	0.610696	0.0031005	5	0.00340105	11	0	32.2169	1.89346e-06
2	1	0	1	0	0	667.166	0.624638	0.624173	0.00391494	5	0.00341095	11	0	34.9137	2.4436e-06
2	1	0	1	0	0	669.863	0.638122	0.637674	0.00549501	5	0.00342349	11	0	37.6105	3.50402e-06
2	1	0	1	0	0	672.56	0.651606	0.651162	0.00869216	5	0.00344236	11	0	40.3073	5.66001e-06
2	1	0	1	0	0	675.256	0.665091	0.66464	0.0161283	5	0.00347526	11	0	43.0041	1.07195e-05
2	1	0	1	0	0	677.953	0.678574	0.678117	0.030988	5	0.00353735	11	0	45.7009	2.10135e-05
2	1	0	1	0	0	680.65	0.692058	0.691643	0.0578838	5	0.0036546	11	0	48.3977	4.00349e-05
2	1	0	0	0	0	683.088	0.695754	0.695327	0.0662108	5	0.00382706	11	0	50.8352	4.60382e-05
2	1	0	0	0	0	685.784	0.68227	0.681842	0.0352888	5	0.00395985	11	0	53.532	2.40614e-05
2	1	0	0	0	0	688.481	0.668786	0.668341	0.01739	5	0.00402805	11	0	56.2288	1.16225e-05
2	1	0	0	0	0	691.178	0.655302	0.654853	0.00808039	5	0.00406089	11	0	58.9256	5.29147e-06
2	1	0	0	0	0	693.875	0.641818	0.641395	0.00365206	5	0.00407595	11	0	61.6224	2.34241e-06
2	1	0	0	0	0	696.572	0.628334	0.62795	0.00183021	5	0.00408293	11	0	64.3192	1.14928e-06
2	1	0	0	0	0	699.268	0.61485	0.614418	0.00113234	5	0.00408639	11	0	67.016	6.9573e-07
2	1	0	0	0	0	701.965	0.601366	0.600934	0.000529471	5	0.00408835	11	0	69.7128	3.18177e-07
2	1	0	0	0	0	704.662	0.587882	0.587384	0.000576271	5	0.00408959	11	0	72.4096	3.38492e-07
2	1	0	0	0	0	707.359	0.574398	0.573966	0.000461701	5	0.0040904	11	0	75.1064	2.65001e-07
2	1	0	0	0	0	710.056	0.560914	0.56046	0.000193931	5	0.00409093	11	0	0.0999	1.0869e-07
2	1	0	0	0	0	712.752	0.54743	0.547	0.000184512	5	0.00409131	11	0	0.0999	1.00928e-07
2	0	0	0	0	0	715.449	0.533946	0.533475	6.12597e-05	5	0.00409149	11	0	0.0999	3.26805e-08
2	1	0	0	0	0	718.146	0.520462	0.520033	0.000218508	5	0.00409154	11	0	0.000000000000000E+000	1.13631e-07
2	0	0	0	0	0	720.843	0.506978	0.506551	7.65651e-05	5	0.00409157	11	0	0.0999	3.87841e-08
2	0	0	0	0	0	723.54	0.493494	0.492973	1.54907e-05	5	0.00409144	11	0	0.0999	7.63652e-09
2	1	0	0	0	0	726.236	0.48001	0.479596	0.000173327	5	0.00409125	11	0	0.000000000000000E+000	8.31271e-08
2	0	0	0	0	0	728.933	0.466526	0.466085	-0.000285319	5	0.00409083	11	0	0.0999	-1.32983e-07
2	1	0	0	0	0	731.63	0.453042	0.452569	-6.92038e-05	5	0.00409027	11	0	0.1997	-3.13195e-08
2	0	0	1	0	1	734.096	0.459335	0.458815	0.0026439	6	0.00409512	11	0	1.8529	1.21306e-06
2	1	0	1	0	1	736.793	0.472818	0.472327	0.00279059	6	0.00410271	11	0	4.5497	1.31807e-06
2	0	0	1	0	1	739.49	0.486303	0.48584	0.00251068	6	0.00411024	11	0	7.2465	1.21979e-06
2	1	0	1	0	1	742.187	0.499787	0.499354	0.00281576	6	0.00411784	11	0	9.9433	1.40606e-06
2	1	0	1	0	1	744.883	0.51327	0.51279	0.00256291	6	0.00412538	11	0	12.6401	1.31423e-06
2	1	0	1	0	1	747.58	0.526755	0.526287	0.0026402	6	0.00413288	11	0	15.3369	1.3895e-06
2	1	0	1	0	1	750.277	0.540238	0.539769	0.00290339	6	0.00414047	11	0	18.0337	1.56716e-06
2	1	0	1	0	1	752.974	0.553722	0.553299	0.002728	6	0.00414795	11	0	20.7305	1.5094e-06
2	1	0	1	0	1	755.671	0.567206	0.566789	0.00273882	6	0.00415545	11	0	23.4273	1.55233e-06
2	1	0	1	0	1	758.367	0.58069	0.580233	0.00265901	6	0.00416304	11	0	26.1241	1.54285e-06
2	1	0	1	0	1	761.064	0.594174	0.593725	0.00298768	6	0.00417091	11	0	28.8209	1.77386e-06
2	1	0	1	0	1	763.761	0.607658	0.607196	0.00309666	6	0.00417924	11	0	31.5177	1.88028e-06
2	1	0	1	0	1	766.458	0.621142	0.620713	0.0036938	6	0.00418853	11	0	34.2145	2.29279e-06
2	1	0	1	0	1	769.155	0.634626	0.634171	0.00480178	6	0.00420006	11	0	36.9113	3.04515e-06
2	1	0	1	0	1	771.851	0.64811	0.647651	0.0075139	6	0.00421644	11	0	39.6081	4.86639e-06
2	1	0	1	0	1	774.548	0.661594	0.661155	0.0135767	6	0.00424421	11	0	42.3049	8.97633e-06
2	1	0	1	0	1	777.245	0.675078	0.674631	0.0259488	6	0.00429591	11	0	45.0017	1.75059e-05
2	1	0	1	0	1	779.942	0.688562	0.688161	0.0489634	6	0.00439443	11	0	47.6985	3.36947e-05
2	1	0	0	0	1	782.379	0.69925	0.698813	0.0765735	6	0.00455291	11	0	50.136	5.35105e-05
2	1	0	0	0	1	785.076	0.685766	0.685291	0.0413008	6	0.00470744	11	0	52.8328	2.8303e-05
2	1	0	0	0	1	787.773	0.672282	0.67184	0.0208401	6	0.00478814	11	0	55.5296	1.40012e-05
2	1	0	0	0	1	790.47	0.658798	0.658375	0.00981144	6	0.00482753	11	0	58.2264	6.45961e-06
2	1	0	0	0	1	793.167	0.645314	0.644895	0.00465147	6	0.00484562	11	0	60.9232	2.99971e-06
2	1	0	0	0	1	795.863	0.63183	0.631383	0.00206141	6	0.00485381	11	0	63.62	1.30154e-06
2	1	0	0	0	1	798.56	0.618346	0.617878	0.00121071	6	0.00485774	11	0	66.3168	7.4807e-07
2	1	0	0	0	1	801.257	0.604862	0.6044	0.000797389	6	0.00485992	11	0	69.0136	4.81942e-07
2	1	0	0	0	1	803.954	0.591378	0.590925	0.000370752	6	0.0048612	11	0	71.7104	2.19086e-07
2	1	0	0	0	1	806.651	0.577894	0.57743	0.000552356	6	0.00486206	11	0	74.4072	3.18947e-07
2	0	0	0	0	1	809.347	0.56441	0.563984	0.000169869	6	0.00486261	11	0	0.1997	9.58034e-08
2	0	0	0	0	1	812.044	0.550926	0.550473	0.000135358	6	0.00486299	11	0	0.0999	7.45111e-08
2	0	0	0	0	1	814.741	0.537442	0.536984	8.4365e-05	6	0.0048632	11	0	0.0999	4.53026e-08
2	0	0	0	0	1	817.438	0.523958	0.523457	-4.66137e-05	6	0.0048633	11	0	0.0999	-2.44003e-08
2	0	0	0	0	1	820.135	0.510474	0.510042	0.000225351	6	0.00486331	11	0	0.0999	1.14938e-07
2	0	0	0	0	1	822.831	0.49699	0.496538	-0.000115635	6	0.00486316	11	0	0.000000000000000E+000	-5.74171e-08
2	1	0	0	0	1	825.528	0.483506	0.483068	9.80702e-05	6	0.00486282	11	0	0.1997	4.73746e-08
2	0	0	0	0	1	828.225	0.470022	0.469563	-0.00027347	6	0.00486241	11	0	0.000000000000000E+000	-1.28411e-07
2	1	0	0	0	1	830.922	0.456538	0.456034	-0.000143295	6	0.0048618	11	0	0.1997	-6.53472e-08
2	1	0	1	0	0	833.388	0.455838	0.455396	0.00279691	7	0.00486456	11	0	1.1637	1.2737e-06
2	1	0	1	0	0	836.085	0.469322	0.468862	0.00264876	7	0.00487205	11	0	3.8605	1.24191e-06
2	1	0	1	0	0	838.782	0.482806	0.482332	0.00279526	7	0.0048796	11	0	6.5573	1.34824e-06
2	0	0	1	0	0	841.478	0.49629	0.495841	0.00252128	7	0.00488722	11	0	9.2541	1.25015e-06
2	0	0	1	0	0	844.175	0.509774	0.50932	0.0025814	7	0.00489476	11	0	11.9509	1.31476e-06
2	1	0	1	0	0	846.872	0.523258	0.522814	0.00252416	7	0.00490229	11	0	14.6477	1.31966e-06
2	1	0	1	0	0	849.569	0.536742	0.536222	0.00247896	7	0.00490972	11	0	17.3445	1.32927e-06
2	1	0	1	0	0	852.266	0.550226	0.549793	0.00266171	7	0.00491711	11	0	20.0413	1.46339e-06
2	1	0	1	0	0	854.962	0.56371	0.563265	0.00285587	7	0.00492463	11	0	22.7381	1.60861e-06
2	1	0	1	0	0	857.659	0.577194	0.576757	0.00287895	7	0.00493225	11	0	25.4349	1.66045e-06
2	1	0	1	0	0	860.356	0.590678	0.590197	0.00273674	7	0.00494005	11	0	28.1317	1.61521e-06
2	1	0	1	0	0	863.053	0.604162	0.603697	0.00306169	7	0.00494818	11	0	30.8285	1.84834e-06
2	1	0	1	0	0	865.75	0.617647	0.617247	0.00333146	7	0.00495705	11	0	33.5254	2.05633e-06
2	1	0	1	0	0	868.447	0.631131	0.630669	0.00435971	7	0.00496757	11	0	36.2222	2.74954e-06
2	1	0	1	0	0	871.143	0.644615	0.644145	0.00654382	7	0.0049821	11	0	38.919	4.21517e-06
2	1	0	1	0	0	873.84	0.658099	0.657651	0.0114175	7	0.00500563	11	0	41.6158	7.50871e-06
2	1	0	1	0	0	876.537	0.671583	0.671128	0.0214476	7	0.00504896	11	0	44.3126	1.43941e-05
2	1	0	1	0	0	879.234	0.685067	0.684628	0.0415818	7	0.00513162	11	0	47.0094	2.84681e-05
2	1	0	1	0	0	881.931	0.698551	0.698078	0.0757754	7	0.005286	11	0	49.7062	5.28972e-05
2	1	0	0	0	0	884.368	0.689262	0.688813	0.0483882	7	0.00544262	11	0	52.1436	3.33305e-05
2	1	0	0	0	0	887.065	0.675778	0.675361	0.0249445	7	0.00553779	11	0	54.8404	1.68466e-05
2	1	0	0	0	0	889.762	0.662294	0.66184	0.0120154	7	0.00558487	11	0	57.5372	7.95228e-06
2	1	0	0	0	0	892.458	0.64881	0.648367	0.00542719	7	0.00560679	11	0	60.234	3.51881e-06
2	1	0	0	0	0	895.155	0.635326	0.634925	0.00255964	7	0.00561673	11	0	62.9308	1.62518e-06
2	1	0	0	0	0	897.852	0.621842	0.621424	0.0015358	7	0.00562149	11	0	65.6276	9.54383e-07
2	1	0	0	0	0	900.549	0.608358	0.60791	0.000818781	7	0.00562403	11	0	68.3244	4.97746e-07
2	0	0	0	0	0	903.246	0.594874	0.594393	0.000544011	7	0.00562549	11	0	71.0212	3.23357e-07
2	1	0	0	0	0	905.942	0.58139	0.580926	0.000465247	7	0.00562659	11	0	73.718	2.70274e-07
2	1	0	0	0	0	908.639	0.567906	0.567495	0.000561563	7	0.0056274	11	0	0.8989	3.18684e-07
2	1	0	1	0	0	911.336	0.554421	0.553965	0.000242395	7	0.00562793	11	0	0.000000000000000E+000	1.34279e-07
2	1	0	1	0	0	914.033	0.540937	0.540506	0.00033879	7	0.00562838	11	0	0.0999	1.83118e-07
2	0	0	1	0	0	916.73	0.527453	0.527039	8.32324e-05	7	0.0056286	11	0	0.0999	4.38667e-08
2	0	0	1	0	0	919.426	0.513969	0.513521	-1.80561e-05	7	0.00562862	11	0	0.0999	-9.2722e-09
2	0	0	1	0	0	922.123	0.500485	0.50004	-7.2324e-05	7	0.00562849	11	0	0.0999	-3.61649e-08
2	1	0	1	0	0	924.82	0.487001	0.486531	-0.00018198	7	0.00562822	11	0	0.0999	-8.85386e-08
2	0	0	1	0	0	927.517	0.473517	0.47306	-0.000167961	7	0.00562786	11	0	0.000000000000000E+000	-7.94555e-08
2	0	0	1	0	0	930.214	0.460033	0.459542	-0.000283577	7	0.00562732	11	0	0.0999	-1.30316e-07
2	0	0	1	0	1	932.68	0.452342	0.451909	0.00235378	8	0.005628	11	0	0.4545	1.06369e-06
2	1	0	1	0	1	935.377	0.465826	0.465389	0.0026564	8	0.00563541	11	0	3.1513	1.23626e-06
2	0	0	1	0	1	938.073	0.47931	0.478882	0.00260206	8	0.005643	11	0	5.8481	1.24608e-06
2	1	0	1	0	1	940.77	0.492794	0.492332	0.00263441	8	0.00565059	11	0	8.5449	1.297e-06
2	1	0	1	0	1	943.467	0.506279	0.505921	0.00277097	8	0.00565816	11	0	11.2418	1.40189e-06
2	1	0	1	0	1	946.164	0.519763	0.519327	0.00282447	8	0.0056657	11	0	13.9386	1.46682e-06
2	0	0	1	0	1	948.861	0.533247	0.532795	0.00251431	8	0.0056732	11	0	16.6354	1.33961e-06
2	1	0	1	0	1	951.558	0.546731	0.546274	0.00283756	8	0.00568072	11	0	19.3322	1.55009e-06
2	1	0	1	0	1	954.254	0.560215	0.559806	0.00257708	8	0.00568825	11	0	22.029	1.44266e-06
2	1	0	1	0	1	956.951	0.573699	0.573231	0.00285515	8	0.00569588	11	0	24.7258	1.63666e-06
2	1	0	1	0	1	959.648	0.587183	0.586766	0.00295809	8	0.00570364	11	0	27.4226	1.73571e-06
2	1	0	1	0	1	962.345	0.600667	0.600222	0.00305464	8	0.0057118	11	0	30.1194	1.83346e-06
2	0	0	1	0	1	965.042	0.614151	0.613724	0.00319113	8	0.00572059	11	0	32.8162	1.95847e-06
2	1	0	1	0	1	967.738	0.627635	0.627214	0.00420784	8	0.00573074	11	0	35.513	2.63921e-06
2	1	0	1	0	1	970.435	0.641119	0.640666	0.0056511	8	0.00574399	11	0	38.2098	3.62047e-06
2	1	0	1	0	1	973.132	0.654603	0.654146	0.00973013	8	0.00576441	11	0	40.9066	6.36493e-06
2	1	0	1	0	1	975.829	0.668087	0.66765	0.018296	8	0.00580102	11	0	43.6034	1.22153e-05
2	1	0	1	0	1	978.526	0.681571	0.681167	0.0348237	8	0.00587065	11	0	46.3002	2.37208e-05
2	1	0	1	0	1	981.222	0.695055	0.694624	0.0651497	8	0.00600227	11	0	48.997	4.52546e-05
2	1	0	0	0	1	983.66	0.692758	0.692322	0.0568197	8	0.0061715	11	0	51.4344	3.93376e-05
2	1	0	0	0	1	986.357	0.679274	0.678827	0.0295216	8	0.00628449	11	0	54.1312	2.004e-05
2	1	0	1	0	1	989.053	0.665789	0.665392	0.014484	8	0.00634148	11	0	56.8281	9.63753e-06
2	1	0	1	0	1	991.75	0.652305	0.651855	0.00686741	8	0.00636839	11	0	59.5249	4.47656e-06
2	1	0	1	0	1	994.447	0.638821	0.638383	0.00315792	8	0.00638062	11	0	62.2217	2.01597e-06
2	1	0	1	0	1	997.144	0.625337	0.624875	0.00151215	8	0.00638625	11	0	64.9185	9.44902e-07
2	1	0	1	0	1	999.841	0.611853	0.611398	0.00074833	8	0.00638915	11	0	67.6153	4.57527e-07
2	1	0	1	0	1	1002.54	0.598369	0.597938	0.000498814	8	0.00639087	11	0	70.3121	2.9826e-07
2	1	0	1	0	1	1005.23	0.584885	0.584424	0.000367733	8	0.00639205	11	0	73.0089	2.14912e-07
2	1	0	1	0	1	1007.93	0.571401	0.570942	0.000450949	8	0.00639287	11	0	75.7057	2.57466e-07
2	1	0	1	0	1	1010.63	0.557917	0.557492	0.00022975	8	0.00639342	11	0	0.000000000000000E+000	1.28084e-07
2	1	0	1	0	1	1013.32	0.544433	0.544013	0.000137154	8	0.00639378	11	0	0.0999	7.46136e-08
2	0	0	1	0	1	1016.02	0.530949	0.530503	0.00010367	8	0.00639408	11	0	0.000000000000000E+000	5.49974e-08
2	1	0	1	0	1	1018.72	0.517465	0.517008	0.00022022	8	0.00639427	11	0	0.0999	1.13856e-07
2	1	0	1	0	1	1021.42	0.503981	0.503531	0.000275918	8	0.0063943	11	0	0.000000000000000E+000	1.38933e-07
2	0	0	1	0	1	1024.11	0.490497	0.490053	-0.000137374	8	0.00639413	11	0	0.0999	-6.73208e-08
2	1	0	1	0	1	1026.81	0.477013	0.476559	0.000151661	8	0.00639385	11	0	0.000000000000000E+000	7.22755e-08
2	1	0	1	0	1	1029.51	0.463529	0.463084	-0.000235663	8	0.00639336	11	0	0.0999	-1.09132e-07
2	1	0	1	0	1	1032.18	0.45017	0.449699	-0.00142772	8	0.0063928	11	0	0.000000000000000E+000	-6.42044e-07
2	1	0	1	0	0	1034.67	0.462331	0.461886	0.00287391	9	0.0063994	11	0	2.4522	1.32742e-06
2	1	0	1	0	0	1037.37	0.475815	0.47534	0.00250622	9	0.00640689	11	0	5.149	1.19131e-06
2	1	0	1	0	0	1040.06	0.489299	0.488889	0.00258944	9	0.00641452	11	0	7.8458	1.26595e-06
2	1	0	1	0	0	1042.76	0.502783	0.502344	0.00285883	9	0.00642209	11	0	10.5426	1.43612e-06
2	1	0	1	0	0	1045.46	0.516267	0.515855	0.00282248	9	0.00642958	11	0	13.2394	1.45599e-06
2	0	0	1	0	0	1048.15	0.529751	0.529357	0.00251144	9	0.0064371	11	0	15.9362	1.32945e-06
2	1	0	1	0	0	1050.85	0.543235	0.542803	0.00254912	9	0.0064446	11	0	18.633	1.38367e-06
2	1	0	1	0	0	1053.55	0.556719	0.556294	0.00289967	9	0.00645206	11	0	21.3298	1.61307e-06
2	1	0	1	0	0	1056.24	0.570203	0.569794	0.00258951	9	0.00645968	11	0	24.0266	1.47549e-06
2	1	0	1	0	0	1058.94	0.583687	0.583246	0.00288333	9	0.00646748	11	0	26.7234	1.68169e-06
2	1	0	1	0	0	1061.64	0.597171	0.596744	0.00296464	9	0.00647537	11	0	29.4202	1.76913e-06
2	1	0	1	0	0	1064.33	0.610655	0.610174	0.00299415	9	0.00648377	11	0	32.117	1.82695e-06
2	1	0	1	0	0	1067.03	0.624139	0.623671	0.00357524	9	0.00649327	11	0	34.8138	2.22977e-06
2	1	0	1	0	0	1069.73	0.637623	0.637153	0.00520173	9	0.00650516	11	0	37.5106	3.3143e-06
2	1	0	1	0	0	1072.42	0.651107	0.650635	0.00823734	9	0.00652285	11	0	40.2074	5.3595e-06
2	1	0	1	0	0	1075.12	0.664591	0.664156	0.0151102	9	0.00655366	11	0	42.9042	1.00355e-05
2	1	0	1	0	0	1077.82	0.678075	0.67767	0.0294538	9	0.00661189	11	0	45.601	1.996e-05
2	1	0	1	0	0	1080.51	0.691559	0.691132	0.0550494	9	0.00672288	11	0	48.2978	3.80464e-05
2	1	0	1	0	0	1082.95	0.696253	0.695801	0.0662797	9	0.00689007	11	0	50.7353	4.61175e-05
2	1	0	1	0	0	1085.65	0.682769	0.682322	0.0352323	9	0.00702247	11	0	53.4321	2.40398e-05
2	1	0	1	0	0	1088.35	0.669285	0.668811	0.0171725	9	0.00709034	11	0	56.1289	1.14851e-05
2	1	0	1	0	0	1091.04	0.655801	0.655365	0.008073	9	0.00712288	11	0	58.8257	5.29076e-06
2	1	0	1	0	0	1093.74	0.642317	0.64186	0.00374854	9	0.00713772	11	0	61.5225	2.40604e-06
2	1	0	1	0	0	1096.44	0.628833	0.628383	0.00168685	9	0.00714462	11	0	64.2193	1.05999e-06
2	1	0	1	0	0	1099.13	0.615349	0.614916	0.00111033	9	0.0071481	11	0	66.9161	6.82761e-07
2	1	0	1	0	0	1101.83	0.601865	0.601436	0.000834022	9	0.0071501	11	0	69.6129	5.01611e-07
2	0	0	1	0	0	1104.53	0.588381	0.587893	0.000349556	9	0.00715133	11	0	72.3097	2.05502e-07
2	0	0	1	0	0	1107.22	0.574897	0.57442	0.000282572	9	0.00715225	11	0	75.0065	1.62315e-07
2	1	0	1	0	0	1109.92	0.561413	0.560925	0.000440034	9	0.00715292	11	0	0.0999	2.46826e-07
2	1	0	1	0	0	1112.62	0.547929	0.547493	9.59959e-05	9	0.00715338	11	0	0.000000000000000E+000	5.25571e-08
2	1	0	1	0	0	1115.31	0.534445	0.533999	0.000431373	9	0.00715379	11	0	0.000000000000000E+000	2.30353e-07
2	0	0	1	0	0	1118.01	0.520961	0.520564	-3.18644e-05	9	0.00715403	11	0	0.000000000000000E+000	-1.65874e-08
2	1	0	1	0	0	1120.71	0.507478	0.507021	0.000160945	9	0.00715416	11	0	0.0999	8.16022e-08
2	0	0	1	0	0	1123.4	0.493994	0.493524	-5.5688e-05	9	0.0071541	11	0	0.0999	-2.74834e-08
2	1	0	1	0	0	1126.1	0.48051	0.480061	6.55085e-05	9	0.00715399	11	0	0.0999	3.14481e-08
2	1	0	1	0	0	1128.8	0.467025	0.466533	3.34411e-05	9	0.00715366	11	0	0.1997	1.56014e-08
2	1	0	1	0	0	1131.49	0.453542	0.453127	-0.000230641	9	0.00715324	11	0	0.000000000000000E+000	-1.0451e-07
2	1	0	1	0	1	1133.96	0.458835	0.458398	0.00281034	10	0.00715783	11	0	1.753	1.28825e-06
2	1	0	1	0	1	1136.66	0.472319	0.471872	0.00265692	10	0.00716537	11	0	4.4498	1.25373e-06
2	1	0	1	0	1	1139.35	0.485803	0.48538	0.00265603	10	0.00717305	11	0	7.1466	1.28919e-06
2	1	0	1	0	1	1142.05	0.499287	0.498838	0.00285581	10	0.00718064	11	0	9.8434	1.42459e-06
2	1	0	1	0	1	1144.75	0.512771	0.512335	0.00250482	10	0.00718815	11	0	12.5402	1.28331e-06
2	1	0	1	0	1	1147.44	0.526255	0.525829	0.00252859	10	0.0071956	11	0	15.237	1.3296e-06
2	1	0	1	0	1	1150.14	0.539739	0.539299	0.00265007	10	0.007203	11	0	17.9338	1.42918e-06
2	0	0	1	0	1	1152.84	0.553223	0.552798	0.00264684	10	0.00721051	11	0	20.6306	1.46317e-06
2	1	0	1	0	1	1155.53	0.566707	0.566247	0.00264095	10	0.00721798	11	0	23.3274	1.49543e-06
2	1	0	1	0	1	1158.23	0.580191	0.57975	0.0028149	10	0.00722563	11	0	26.0242	1.63194e-06
2	0	0	1	0	1	1160.93	0.593675	0.593186	0.00269511	10	0.00723342	11	0	28.721	1.5987e-06
2	1	0	1	0	1	1163.63	0.607159	0.606699	0.00314862	10	0.00724161	11	0	31.4178	1.91026e-06
2	0	0	1	0	1	1166.32	0.620643	0.620187	0.00340964	10	0.00725073	11	0	34.1146	2.11462e-06
2	1	0	1	0	1	1169.02	0.634127	0.633685	0.0046476	10	0.00726179	11	0	36.8114	2.94511e-06
2	1	0	1	0	1	1171.72	0.647611	0.647193	0.00690827	10	0.00727743	11	0	39.5082	4.47098e-06
2	1	0	1	0	1	1174.41	0.661096	0.660651	0.0129212	10	0.00730361	11	0	42.2051	8.53638e-06
2	1	0	1	0	1	1177.11	0.67458	0.674181	0.0246755	10	0.00735255	11	0	44.9019	1.66358e-05
2	1	0	1	0	1	1179.81	0.688064	0.687586	0.0469358	10	0.00744641	11	0	47.5987	3.22724e-05
2	1	0	1	0	1	1182.24	0.699749	0.699358	0.0773118	10	0.00759917	11	0	50.0361	5.40686e-05
2	1	0	1	0	1	1184.94	0.686265	0.685826	0.0416362	10	0.00775473	11	0	52.7329	2.85552e-05
2	1	0	1	0	1	1187.64	0.672781	0.672334	0.0207193	10	0.00783575	11	0	55.4297	1.39303e-05
2	1	0	1	0	1	1190.33	0.659297	0.658916	0.0100596	10	0.0078751	11	0	58.1265	6.6284e-06
2	1	0	1	0	1	1193.03	0.645813	0.645435	0.00440249	10	0.00789318	11	0	60.8233	2.84152e-06
2	1	0	1	0	1	1195.73	0.632329	0.631896	0.00226848	10	0.00790144	11	0	63.5201	1.43344e-06
2	1	0	1	0	1	1198.42	0.618846	0.618441	0.00123328	10	0.00790544	11	0	66.2169	7.62711e-07
2	0	0	1	0	1	1201.12	0.605361	0.604955	0.00069681	10	0.00790766	11	0	68.9137	4.21538e-07
2	0	0	1	0	1	1203.82	0.591877	0.591427	0.000400151	10	0.00790906	11	0	71.6105	2.3666e-07
2	0	0	1	0	1	1206.51	0.578393	0.577925	0.000329865	10	0.00790999	11	0	74.3073	1.90637e-07
2	1	0	1	0	1	1209.21	0.56491	0.564447	0.000271377	10	0.00791068	11	0	0.000000000000000E+000	1.53178e-07
2	1	0	1	0	1	1211.91	0.551426	0.550975	0.000467457	10	0.00791119	11	0	0.000000000000000E+000	2.57557e-07
2	1	0	1	0	1	1214.61	0.537942	0.537529	2.71469e-05	10	0.00791154	11	0	0.000000000000000E+000	1.45922e-08
2	1	0	1	0	1	1217.3	0.524458	0.524011	0.000349885	10	0.00791177	11	0	0.0998	1.83344e-07
2	0	0	1	0	1	1220	0.510974	0.510493	2.26594e-05	10	0.00791178	11	0	0.0998	1.15675e-08
2	1	0	1	0	1	1222.7	0.49749	0.497023	0.000215655	10	0.00791175	11	0	0.0998	1.07186e-07
2	0	0	1	0	1	1225.39	0.484005	0.483573	-0.000179064	10	0.00791148	11	0	0.0999	-8.65905e-08
2	1	0	1	0	1	1228.09	0.470521	0.470053	0.000136977	10	0.00791113	11	0	0.000000000000000E+000	6.43865e-08
2	0	0	1	0	1	1230.79	0.457037	0.456593	-0.000216812	10	0.00791053	11	0	0.1998	-9.89949e-08
2	1	0	1	0	0	1233.25	0.455339	0.454853	0.00256317	11	0.00791292	11	0	1.0538	1.16587e-06
2	0	0	1	0	0	1235.95	0.468823	0.468362	0.00244205	11	0.00792021	11	0	3.7506	1.14377e-06
2	1	0	1	0	0	1238.65	0.482307	0.481855	0.00281696	11	0.00792769	11	0	6.4474	1.35737e-06
2	0	0	1	0	0	1241.34	0.495791	0.495338	0.0025692	11	0.00793514	11	0	9.1442	1.27262e-06
2	1	0	1	0	0	1244.04	0.509275	0.508775	0.00264468	11	0.00794256	11	0	11.841	1.34555e-06
2	1	0	1	0	0	1246.74	0.522759	0.522343	0.00275341	11	0.00795002	11	0	14.5378	1.43823e-06
2	1	0	1	0	0	1249.43	0.536243	0.535801	0.00273911	11	0.00795744	11	0	17.2346	1.46762e-06
2	1	0	1	0	0	1252.13	0.549728	0.549307	0.00255391	11	0.00796477	11	0	19.9315	1.40288e-06
2	1	0	1	0	0	1254.83	0.563212	0.562764	0.00253937	11	0.00797208	11	0	22.6283	1.42907e-06
2	1	0	1	0	0	1257.52	0.576696	0.576239	0.00286758	11	0.00797956	11	0	25.3251	1.65241e-06
2	1	0	1	0	0	1260.22	0.59018	0.589681	0.00281717	11	0.00798723	11	0	28.0219	1.66123e-06
2	1	0	1	0	0	1262.92	0.603664	0.603207	0.00288322	11	0.0079952	11	0	30.7187	1.73918e-06
2	1	0	1	0	0	1265.61	0.617148	0.616699	0.0032351	11	0.0080039	11	0	33.4155	1.99508e-06
2	1	0	1	0	0	1268.31	0.630632	0.630247	0.00418906	11	0.00801414	11	0	36.1123	2.64014e-06
2	1	0	1	0	0	1271.01	0.644116	0.643653	0.00628692	11	0.00802801	11	0	38.8091	4.04659e-06
2	1	0	1	0	0	1273.7	0.657599	0.657197	0.0108585	11	0.00805037	11	0	41.5059	7.13619e-06
2	1	0	1	0	0	1276.4	0.671084	0.670617	0.0205878	11	0.00809147	11	0	44.2027	1.38066e-05
2	1	0	1	0	0	1279.1	0.684568	0.684136	0.0395626	11	0.00817048	11	0	46.8995	2.70662e-05
2	1	0	1	0	0	1281.79	0.698051	0.697598	0.0735958	11	0.00831946	11	0	49.5963	5.13403e-05
2	1	0	1	0	0	1284.23	0.689761	0.689284	0.0491577	11	0.00847707	11	0	52.0337	3.38836e-05
2	1	0	1	0	0	1286.93	0.676278	0.675832	0.0248803	11	0.00857348	11	0	54.7305	1.68149e-05
2	1	0	1	0	0	1289.63	0.662794	0.662338	0.0117656	11	0.00862093	11	0	57.4273	7.79277e-06
2	1	0	1	0	0	1292.32	0.64931	0.648835	0.00561513	11	0.00864294	11	0	60.1241	3.64329e-06
2	1	0	1	0	0	1295.02	0.635826	0.635391	0.00268316	11	0.00865295	11	0	62.8209	1.70486e-06
2	1	0	1	0	0	1297.72	0.622342	0.621898	0.00151529	11	0.00865768	11	0	65.5177	9.42358e-07
2	0	0	1	0	0	1300.41	0.608857	0.608385	0.000814166	11	0.00866026	11	0	68.2146	4.95327e-07
2	0	0	1	0	0	1303.11	0.595373	0.594939	0.000472886	11	0.00866182	11	0	70.9114	2.81338e-07
2	0	0	1	0	0	1305.81	0.581889	0.581418	0.00035758	11	0.00866291	11	0	73.6082	2.07904e-07
2	1	0	1	0	0	1308.5	0.568405	0.567984	0.000363099	11	0.0086637	11	0	76.305	2.06234e-07
2	1	0	1	0	0	1311.2	0.554921	0.554498	0.000567882	11	0.0086643	11	0	0.0999	3.1489e-07
2	0	0	1	0	0	1313.9	0.541437	0.54097	3.01339e-05	11	0.00866471	11	0	0.000000000000000E+000	1.63015e-08
2	1	0	1	0	0	1316.59	0.527953	0.527528	0.000407396	11	0.00866498	11	0	0.000000000000000E+000	2.14913e-07
2	1	0	1	0	0	1319.29	0.514469	0.514013	0.000161922	11	0.0086652	11	0	0.1998	8.323e-08
2	1	0	1	0	0	1321.99	0.500985	0.500594	0.000225866	11	0.00866525	11	0	0.0999	1.13067e-07
2	1	0	1	0	0	1324.68	0.487501	0.487051	0.000172076	11	0.0086651	11	0	0.000000000000000E+000	8.381e-08
2	1	0	1	0	0	1327.38	0.474017	0.473548	7.8331e-05	11	0.00866478	11	0	0.1998	3.70935e-08
2	1	0	1	0	0	1330.08	0.460533	0.46008	-2.2184e-05	11	0.00866439	11	0	0.0999	-1.02064e-08
2	1	0	1	0	1	1332.54	0.451844	0.4514	0.00239981	12	0.00866476	11	0	0.3547	1.08327e-06
2	1	0	1	0	1	1335.24	0.465328	0.46487	0.00265428	12	0.00867214	11	0	3.0515	1.2339e-06
2	1	0	1	0	1	1337.94	0.478812	0.478361	0.00262888	12	0.00867964	11	0	5.7483	1.25755e-06
2	1	0	1	0	1	1340.63	0.492296	0.491846	0.00276325	12	0.00868717	11	0	8.4451	1.35909e-06
2	1	0	1	0	1	1343.33	0.50578	0.505323	0.00273791	12	0.00869473	11	0	11.1419	1.38353e-06
2	1	0	1	0	1	1346.03	0.519264	0.518822	0.0024959	12	0.00870217	11	0	13.8387	1.29492e-06
2	1	0	1	0	1	1348.72	0.532748	0.532286	0.0024222	12	0.00870957	11	0	16.5355	1.2893e-06
2	1	0	1	0	1	1351.42	0.546232	0.545842	0.0026487	12	0.00871696	11	0	19.2323	1.44577e-06
2	1	0	1	0	1	1354.12	0.559716	0.559292	0.00267015	12	0.00872449	11	0	21.9291	1.49339e-06
2	1	0	1	0	1	1356.82	0.5732	0.572772	0.00290388	12	0.00873206	11	0	24.6259	1.66326e-06
2	1	0	1	0	1	1359.51	0.586684	0.586226	0.0026236	12	0.00873975	11	0	27.3227	1.53802e-06
2	1	0	1	0	1	1362.21	0.600167	0.599731	0.00287666	12	0.00874761	11	0	30.0195	1.72522e-06
2	1	0	1	0	1	1364.91	0.613651	0.613198	0.0033855	12	0.00875609	11	0	32.7163	2.07598e-06
2	1	0	1	0	1	1367.6	0.627135	0.626676	0.00376033	12	0.0087658	11	0	35.4131	2.35651e-06
2	1	0	1	0	1	1370.3	0.640619	0.640208	0.00528983	12	0.00877838	11	0	38.1099	3.38659e-06
2	1	0	1	0	1	1373	0.654103	0.653684	0.00913099	12	0.00879776	11	0	40.8067	5.96879e-06
2	1	0	1	0	1	1375.69	0.667587	0.667127	0.017359	12	0.00883248	11	0	43.5035	1.15806e-05
2	1	0	1	0	1	1378.39	0.681071	0.680639	0.0333203	12	0.00889897	11	0	46.2003	2.26791e-05
2	1	0	1	0	1	1381.09	0.694555	0.694132	0.0627321	12	0.00902575	11	0	48.8971	4.35444e-05
2	1	0	1	0	1	1383.52	0.693257	0.692791	0.0575186	12	0.0091942	11	0	51.3346	3.98484e-05
2	1	0	1	0	1	1386.22	0.679773	0.679321	0.0301509	12	0.0093086	11	0	54.0314	2.04822e-05
2	1	0	1	0	1	1388.92	0.666289	0.665859	0.0145423	12	0.00936593	11	0	56.7282	9.68314e-06
2	1	0	1	0	1	1391.61	0.652805	0.652391	0.00663285	12	0.00939271	11	0	59.425	4.32722e-06
2	1	0	1	0	1	1394.31	0.639321	0.638869	0.00290173	12	0.00940467	11	0	62.1218	1.85382e-06
2	1	0	1	0	1	1397.01	0.625837	0.625392	0.00149599	12	0.0094101	11	0	64.8186	9.35581e-07
2	1	0	1	0	1	1399.7	0.612353	0.611905	0.000771708	12	0.0094128	11	0	67.5154	4.72212e-07
2	1	0	1	0	1	1402.4	0.598869	0.598413	0.000692459	12	0.00941436	11	0	70.2122	4.14377e-07
2	1	0	1	0	1	1405.1	0.585385	0.584923	0.000459641	12	0.00941535	11	0	72.909	2.68854e-07
2	1	0	1	0	1	1407.8	0.571901	0.571449	0.000296727	12	0.00941609	11	0	0.2997	1.69564e-07
2	1	0	1	0	1	1410.49	0.558417	0.557982	0.000369722	12	0.00941659	11	0	0.0999	2.06298e-07
2	0	0	1	0	1	1413.19	0.544933	0.544475	0.000109015	12	0.0094169	11	0	0.000000000000000E+000	5.93561e-08
2	1	0	1	0	1	1415.89	0.531449	0.53101	0.000243011	12	0.00941714	11	0	0.0999	1.29041e-07
2	1	0	1	0	1	1418.58	0.517965	0.517501	0.000268692	12	0.00941722	11	0	0.000000000000000E+000	1.39048e-07
2	1	0	1	0	1	1421.28	0.504481	0.504021	0.000194151	12	0.00941723	11	0	0.0999	9.78564e-08
2	0	0	1	0	1	1423.98	0.490997	0.490595	-0.000173398	12	0.00941698	11	0	0.0999	-8.50682e-08
2	1	0	1	0	1	1426.67	0.477513	0.477033	3.44753e-05	12	0.00941664	11	0	0.1997	1.64459e-08
2	1	0	1	0	1	1429.37	0.464029	0.463613	-0.000105407	12	0.00941616	11	0	0.000000000000000E+000	-4.8868e-08
2	1	0	1	0	1	1432.07	0.450545	0.450123	-0.000397681	12	0.00941548	11	0	0.0999	-1.79005e-07
2	1	0	1	0	0	1434.53	0.461832	0.461372	0.00270716	13	0.00942174	11	0	2.2973	1.24901e-06
2	1	0	1	0	0	1437.23	0.475316	0.474838	0.0024822	13	0.00942912	11	0	4.9941	1.17864e-06
2	1	0	1	0	0	1439.93	0.488799	0.488317	0.00279813	13	0.00943651	11	0	7.6909	1.36637e-06
2	0	0	1	0	0	1442.62	0.502283	0.501825	0.00245678	13	0.00944385	11	0	10.3877	1.23288e-06
2	1	0	1	0	0	1445.32	0.515768	0.515338	0.00270448	13	0.00945121	11	0	13.0845	1.39372e-06
2	1	0	1	0	0	1448.02	0.529252	0.528835	0.00276142	13	0.00945862	11	0	15.7813	1.46033e-06
2	1	0	1	0	0	1450.71	0.542735	0.542272	0.00262554	13	0.00946589	11	0	18.4781	1.42376e-06
2	0	0	1	0	0	1453.41	0.556219	0.555789	0.0025271	13	0.00947321	11	0	21.1749	1.40453e-06
2	1	0	1	0	0	1456.11	0.569703	0.569284	0.00267232	13	0.0094806	11	0	23.8717	1.52131e-06
2	1	0	1	0	0	1458.8	0.583187	0.582747	0.00282038	13	0.00948807	11	0	26.5685	1.64357e-06
2	1	0	1	0	0	1461.5	0.596671	0.596215	0.00294536	13	0.00949584	11	0	29.2653	1.75607e-06
2	1	0	1	0	0	1464.2	0.610155	0.609717	0.00318754	13	0.00950412	11	0	31.9621	1.9435e-06
2	1	0	1	0	0	1466.89	0.623639	0.623218	0.00367457	13	0.00951336	11	0	34.6589	2.29006e-06
2	1	0	1	0	0	1469.59	0.637123	0.63668	0.00483687	13	0.00952479	11	0	37.3557	3.07954e-06
2	1	0	1	0	0	1472.29	0.650607	0.650184	0.00772656	13	0.00954164	11	0	40.0525	5.02369e-06
2	1	0	1	0	0	1474.98	0.664091	0.663645	0.0143909	13	0.00957093	11	0	42.7493	9.55045e-06
2	1	0	1	0	0	1477.68	0.677575	0.677165	0.0282769	13	0.00962687	11	0	45.4461	1.91482e-05
2	1	0	1	0	0	1480.38	0.691059	0.690611	0.0538299	13	0.00973444	11	0	48.1429	3.71755e-05
2	1	0	1	0	0	1482.82	0.696753	0.696312	0.0674898	13	0.00990011	11	0	50.5804	4.69939e-05
2	1	0	1	0	0	1485.51	0.683269	0.682805	0.0356807	13	0.0100355	11	0	53.2772	2.43629e-05
2	1	0	1	0	0	1488.21	0.669785	0.66937	0.0176008	13	0.0101047	11	0	55.974	1.17814e-05
2	1	0	1	0	0	1490.91	0.656301	0.655844	0.00827538	13	0.0101376	11	0	58.6708	5.42736e-06
2	1	0	1	0	0	1493.6	0.642817	0.642368	0.00363815	13	0.0101524	11	0	61.3676	2.33703e-06
2	1	0	1	0	0	1496.3	0.629333	0.628873	0.00175949	13	0.0101591	11	0	64.0644	1.1065e-06
2	1	0	1	0	0	1499	0.615849	0.615431	0.00108252	13	0.0101624	11	0	66.7612	6.66219e-07
2	1	0	1	0	0	1501.69	0.602365	0.601912	0.000560744	13	0.0101643	11	0	69.458	3.37519e-07
2	1	0	1	0	0	1504.39	0.588881	0.588418	0.000517698	13	0.0101655	11	0	72.1548	3.04623e-07
2	1	0	1	0	0	1507.09	0.575397	0.574933	0.000281863	13	0.0101662	11	0	74.8516	1.62052e-07
2	0	0	1	0	0	1509.78	0.561913	0.56142	0.000358316	13	0.0101668	11	0	0.1997	2.01166e-07
2	0	0	1	0	0	1512.48	0.548429	0.548012	0.00018591	13	0.0101671	11	0	0.0999	1.01881e-07
2	1	0	1	0	0	1515.18	0.534945	0.53451	0.000275608	13	0.0101674	11	0	0.1997	1.47315e-07
2	1	0	1	0	0	1517.87	0.521461	0.520996	0.000116729	13	0.0101675	11	0	0.1997	6.08155e-08
2	0	0	1	0	0	1520.57	0.507977	0.50754	5.79265e-05	13	0.0101676	11	0	0.000000000000000E+000	2.94e-08
2	1	0	1	0	0	1523.27	0.494493	0.494043	-0.000113329	13	0.0101673	11	0	0.000000000000000E+000	-5.59893e-08
2	1	0	1	0	0	1525.96	0.481009	0.480584	-0.000168751	13	0.0101669	11	0	0.1997	-8.10992e-08
2	0	0	1	0	0	1528.66	0.467524	0.467056	-0.000143942	13	0.0101664	11	0	0.000000000000000E+000	-6.72289e-08
2	0	0	1	0	0	1531.36	0.45404	0.453598	-1.64894e-05	13	0.0101657	11	0	0.2997	-7.47955e-09
2	1	0	1	0	1	1533.82	0.458335	0.457888	0.00257173	14	0.0101696	11	0	1.6631	1.17756e-06
2	0	0	1	0	1	1536.52	0.471819	0.471408	0.00255356	14	0.0101768	11	0	4.3599	1.20377e-06
2	0	0	1	0	1	1539.22	0.485303	0.484854	0.00242758	14	0.0101841	11	0	7.0567	1.17702e-06
2	0	0	1	0	1	1541.91	0.498787	0.498377	0.00253601	14	0.0101914	11	0	9.7535	1.26389e-06
2	1	0	1	0	1	1544.61	0.512271	0.511786	0.00258879	14	0.0101987	11	0	12.4503	1.32491e-06
2	1	0	1	0	1	1547.31	0.525755	0.525319	0.0025653	14	0.0102059	11	0	15.1471	1.3476e-06
2	1	0	1	0	1	1550.01	0.539239	0.538798	0.00264318	14	0.010213	11	0	17.8439	1.42414e-06
2	1	0	1	0	1	1552.7	0.552723	0.552311	0.00273281	14	0.0102201	11	0	20.5407	1.50936e-06
2	0	0	1	0	1	1555.4	0.566207	0.565747	0.00236344	14	0.0102273	11	0	23.2375	1.33711e-06
2	1	0	1	0	1	1558.1	0.579691	0.57925	0.00279843	14	0.0102346	11	0	25.9343	1.62099e-06
2	1	0	1	0	1	1560.79	0.593175	0.592743	0.00258444	14	0.0102421	11	0	28.6311	1.53191e-06
2	1	0	0	0	1	1563.49	0.60666	0.606221	0.00291571	14	0.0102499	11	0	31.328	1.76757e-06
2	1	0	0	0	1	1566.19	0.620144	0.619725	0.00349371	14	0.0102586	11	0	34.0248	2.16514e-06
2	1	0	0	0	1	1568.88	0.633628	0.633183	0.00422579	14	0.0102691	11	0	36.7216	2.6757e-06
2	1	0	0	0	1	1571.58	0.647112	0.646682	0.00664764	14	0.0102838	11	0	39.4184	4.29891e-06
2	1	0	0	0	1	1574.28	0.660596	0.660173	0.0123125	14	0.0103086	11	0	42.1152	8.12835e-06
2	1	0	0	0	1	1576.97	0.67408	0.673651	0.0235546	14	0.0103555	11	0	44.812	1.58676e-05
2	1	0	0	0	1	1579.67	0.687564	0.687173	0.0455154	14	0.0104462	11	0	47.5088	3.12769e-05
2	1	0	0	0	1	1582.15	0.700024	0.699575	0.080142	14	0.0105994	11	0	49.9914	5.60653e-05
2	1	0	1	0	1	1584.8	0.686765	0.68632	0.0425717	14	0.0107553	11	0	52.643	2.92178e-05
2	1	0	1	0	1	1587.5	0.673281	0.672825	0.0214318	14	0.0108383	11	0	55.3398	1.44199e-05
2	1	0	1	0	1	1590.2	0.659797	0.65937	0.00981482	14	0.0108783	11	0	58.0366	6.4716e-06
2	1	0	1	0	1	1592.89	0.646313	0.645846	0.00440622	14	0.0108963	11	0	60.7334	2.84574e-06
2	1	0	1	0	1	1595.59	0.632829	0.632331	0.0021062	14	0.0109043	11	0	63.4302	1.33182e-06
2	0	0	1	0	1	1598.29	0.619345	0.61895	0.000913416	14	0.010908	11	0	66.127	5.65358e-07
2	1	0	1	0	1	1600.99	0.605861	0.605411	0.00065988	14	0.0109099	11	0	68.8238	3.99499e-07
2	1	0	1	0	1	1603.68	0.592377	0.59195	0.000424684	14	0.0109111	11	0	71.5206	2.51391e-07
2	1	0	1	0	1	1606.38	0.578892	0.578407	0.000297557	14	0.0109119	11	0	0.3996	1.72109e-07
2	1	0	1	0	1	1609.08	0.565408	0.564966	0.000364327	14	0.0109124	11	0	0.000000000000000E+000	2.05832e-07
2	1	0	1	0	1	1611.77	0.551924	0.551463	0.000347017	14	0.0109128	11	0	0.0999	1.91367e-07
2	0	0	1	0	1	1614.47	0.53844	0.537987	9.92099e-05	14	0.0109129	11	0	0.000000000000000E+000	5.33737e-08
2	1	0	1	0	1	1617.17	0.524956	0.524554	6.03147e-05	14	0.010913	11	0	0.0999	3.16383e-08
2	1	0	1	0	1	1619.86	0.511472	0.511019	0.000199919	14	0.010913	11	0	0.000000000000000E+000	1.02163e-07
2	0	0	1	0	1	1622.56	0.497988	0.497545	-0.000134017	14	0.0109127	11	0	0.000000000000000E+000	-6.66797e-08
2	0	0	1	0	1	1625.26	0.484504	0.484078	8.9095e-05	14	0.0109124	11	0	0.000000000000000E+000	4.31289e-08
2	1	0	1	0	1	1627.95	0.47102	0.470571	2.1472e-05	14	0.0109119	11	0	0.000000000000000E+000	1.01041e-08
2	0	0	1	0	1	1630.65	0.457536	0.457136	-0.00034147	14	0.0109112	11	0	0.0999	-1.56098e-07
2	1	0	1	0	0	1633.12	0.454839	0.454365	0.00264324	15	0.0109132	11	0	0.9539	1.20099e-06
2	0	0	1	0	0	1635.81	0.468323	0.467857	0.00231426	15	0.0109202	11	0	3.6507	1.08274e-06
2	1	0	1	0	0	1638.51	0.481807	0.481389	0.00272151	15	0.0109274	11	0	6.3475	1.3101e-06
2	0	0	0	0	0	1641.21	0.495292	0.494835	0.00240835	15	0.0109346	11	0	9.0444	1.19174e-06
2	1	0	0	0	0	1643.9	0.508776	0.508336	0.00243712	15	0.0109417	11	0	11.7412	1.23888e-06
2	1	0	0	0	0	1646.6	0.52226	0.521858	0.0026113	15	0.0109489	11	0	14.438	1.36272e-06
2	1	0	0	0	0	1649.3	0.535744	0.535289	0.00266729	15	0.010956	11	0	17.1348	1.42777e-06
2	1	0	0	0	0	1651.99	0.549228	0.548835	0.00241056	15	0.0109632	11	0	19.8316	1.323e-06
2	1	0	0	0	0	1654.69	0.562712	0.562299	0.00257399	15	0.0109704	11	0	22.5284	1.44735e-06
2	1	0	0	0	0	1657.39	0.576196	0.575779	0.0027071	15	0.0109777	11	0	25.2252	1.55869e-06
2	1	0	0	0	0	1660.08	0.58968	0.589224	0.00282138	15	0.0109851	11	0	27.922	1.66242e-06
2	1	0	0	0	0	1662.78	0.603164	0.602711	0.00289798	15	0.0109929	11	0	30.6188	1.74664e-06
2	1	0	0	0	0	1665.48	0.616648	0.616165	0.0030645	15	0.0110013	11	0	33.3156	1.88824e-06
2	0	0	0	0	0	1668.17	0.630132	0.629697	0.0038227	15	0.0110111	11	0	36.0124	2.40714e-06
2	1	0	0	0	0	1670.87	0.643616	0.643158	0.00599327	15	0.0110244	11	0	38.7092	3.85462e-06
2	1	0	0	0	0	1673.57	0.6571	0.656665	0.0102154	15	0.0110457	11	0	41.406	6.7081e-06
2	1	0	0	0	0	1676.27	0.670584	0.670158	0.0199461	15	0.0110852	11	0	44.1028	1.3367e-05
2	1	0	0	0	0	1678.96	0.684068	0.683701	0.0388545	15	0.0111619	11	0	46.7996	2.65648e-05
2	1	0	0	0	0	1681.66	0.697552	0.697158	0.0723087	15	0.0113081	11	0	49.4964	5.04106e-05
2	1	0	1	0	0	1684.1	0.69026	0.689826	0.0502958	15	0.0114692	11	0	51.9339	3.46953e-05
2	1	0	1	0	0	1686.79	0.676776	0.676357	0.0255575	15	0.0115686	11	0	54.6307	1.7286e-05
2	1	0	1	0	0	1689.49	0.663292	0.662879	0.0120245	15	0.0116172	11	0	57.3275	7.97081e-06
2	1	0	1	0	0	1692.19	0.649808	0.649375	0.00539667	15	0.0116394	11	0	60.0243	3.50446e-06
2	1	0	1	0	0	1694.88	0.636324	0.635909	0.00236752	15	0.0116491	11	0	62.7211	1.50553e-06
2	0	0	1	0	0	1697.58	0.62284	0.622395	0.00120425	15	0.0116536	11	0	65.4179	7.49517e-07
2	0	0	1	0	0	1700.28	0.609356	0.608916	0.000612657	15	0.0116559	11	0	68.1147	3.73057e-07
2	0	0	1	0	0	1702.97	0.595872	0.595461	0.000364751	15	0.0116572	11	0	70.8115	2.17195e-07
2	1	0	1	0	0	1705.67	0.582388	0.581978	0.000270281	15	0.011658	11	0	73.5083	1.57298e-07
2	1	0	1	0	0	1708.37	0.568904	0.568506	0.000233362	15	0.0116586	11	0	0.6992	1.32668e-07
2	1	0	1	0	0	1711.06	0.55542	0.555002	0.000318033	15	0.011659	11	0	0.0999	1.76509e-07
2	1	0	1	0	0	1713.76	0.541936	0.541509	0.000271709	15	0.0116593	11	0	0.0999	1.47133e-07
2	0	0	1	0	0	1716.46	0.528452	0.527988	4.88215e-05	15	0.0116594	11	0	0.0999	2.57771e-08
2	1	0	1	0	0	1719.15	0.514968	0.514521	0.000229874	15	0.0116594	11	0	0.0999	1.18275e-07
2	0	0	1	0	0	1721.85	0.501484	0.501022	-2.25641e-06	15	0.0116592	11	0	0.1998	-1.13051e-09
2	0	0	1	0	0	1724.55	0.488	0.487539	-8.23502e-05	15	0.0116589	11	0	0.000000000000000E+000	-4.01489e-08
2	1	0	1	0	0	1727.25	0.474516	0.474061	0.000122255	15	0.0116585	11	0	0.000000000000000E+000	5.79565e-08
2	0	0	1	0	0	1729.94	0.461032	0.460553	-0.000226504	15	0.0116579	11	0	0.0999	-1.04317e-07
2	1	0	0	0	0	1732.14	0.450021	0.449649	-0.000749071	15	0.0116574	11	0	0.029	-3.36819e-07