File: ACS_Catal_2026/Figures_Na_K/main_figures/data/EC/20251112_2-148_alpha_reproducibility/20251112_2-148_005_gamma_reproducibility_Na2_01_CVA_C01.mpt
EC-Lab ASCII FILE
Nb header lines : 66

Cyclic Voltammetry Advanced

Run on channel : 1 (SN 69187)
User :
CE vs. WE compliance from -10 V to 10 V
Electrode connection : standard
Potential control : Ewe
Ewe ctrl range : min = -1.00 V, max = 1.00 V
Safety Limits :
	Do not start on E overload
Acquisition started on : 11/12/2025 20:57:12.203
Loaded Setting File :  C:\Users\User\Documents\EC-Lab\Data\Yatsuzuka\20251030_2-147_gamma_reproducibility\20251030_2-147_001_gamma1_K_1.mps
Saved on :
	File : 20251112_2-148_005_gamma_reproducibility_Na2_01_CVA_C01.mpr
	Directory : C:\Users\User\Documents\EC-Lab\Data\Yatsuzuka\20251112_2-148_alpha_reproducibility\
	Host : 192.109.209.127
Device : SP-150e (SN .003883)
Address : 192.109.209.128
EC-Lab for windows v11.52 (software)
Internet server v11.52 (firmware)
Command interpretor v11.50 (firmware)
Electrode material :
Initial state :
Electrolyte :
Comments :
Electrode surface area : 0.001 cm2
Characteristic mass : 0.001 g
Equivalent Weight : 0.000 g/eq.
Density : 0.000 g/cm3
Volume (V) : 0.001 cm3
Cycle Definition : Charge/Discharge alternance
Ei (V)              0.350
vs.                 Ref
ti (h:m:s)          0:00:10.0000
dti (s)             0.0000
dE/dt               10.000
dE/dt unit          mV/s
E1 (V)              0.450
vs.                 Ref
t1 (h:m:s)          0:00:0.0000
dt1 (s)             0.1000
Step percent        50
N                   10
E range min (V)     -1.000
E range max (V)     1.000
I Range             Auto
I Range min         Unset
I Range max         Unset
I Range init        Unset
Bandwidth           5
E2 (V)              0.350
vs.                 Ref
t2 (h:m:s)          0:00:0.0000
dt2 (s)             0.1000
nc cycles           9
nr                  1
Reverse Scan        0
Ef (V)              0.000
vs.                 Eoc
tf (h:m:s)          0:00:0.0000
dtf (s)             0.1000

mode	ox/red	error	control changes	Ns changes	counter inc.	time/s	control/V	Ewe/V	<I>/mA	cycle number	(Q-Qo)/C	I Range	Ns	step time/s	P/W
2	1	0	1	0	0	0.000000000000000E+000	0.34995	0.349762	0.00136812	1	0.0000000E+000	13	0	0.000000000000000E+000	4.78516e-07
2	0	0	1	0	0	0.3769	0.353719	0.353489	0.000989671	1	6.28858e-07	13	0	0.3496	3.49838e-07
2	1	0	1	0	0	0.7763	0.357714	0.357454	0.00150493	1	1.33127e-06	13	0	0.749	5.37942e-07
2	1	0	1	0	0	1.1758	0.361709	0.361477	0.0024276	1	2.03733e-06	13	0	1.1485	8.7752e-07
2	0	0	1	0	0	1.5752	0.365702	0.365457	0.00155201	1	2.73986e-06	13	0	1.5479	5.67194e-07
2	1	0	1	0	0	1.9747	0.369697	0.369473	0.000930277	1	3.43635e-06	13	0	1.9474	3.43712e-07
2	1	0	1	0	0	2.3741	0.373692	0.37346	0.00199513	1	4.12583e-06	13	0	2.3468	7.45101e-07
2	0	0	1	0	0	2.7735	0.377686	0.377434	0.00206504	1	4.81102e-06	13	0	2.7462	7.79415e-07
2	0	0	1	0	0	3.173	0.38168	0.381404	0.00104934	1	5.48706e-06	13	0	3.1457	4.00222e-07
2	1	0	1	0	0	3.5725	0.385675	0.38539	0.00112482	1	6.15242e-06	13	0	3.5452	4.33495e-07
2	1	0	1	0	0	3.9719	0.389669	0.389402	0.00211119	1	6.81478e-06	13	0	3.9446	8.22102e-07
2	0	0	1	0	0	4.3713	0.393664	0.393378	0.0019295	1	7.4705e-06	13	0	4.344	7.59024e-07
2	0	0	1	0	0	4.7708	0.397659	0.397388	0.00101161	1	8.11729e-06	13	0	4.7435	4.02002e-07
2	1	0	1	0	0	5.1703	0.401653	0.401362	0.00122212	1	8.75367e-06	13	0	5.143	4.90512e-07
2	1	0	1	0	0	5.5697	0.405647	0.405392	0.00202947	1	9.38495e-06	13	0	5.5424	8.22733e-07
2	0	0	1	0	0	5.9691	0.409642	0.409362	0.00196472	1	1.00124e-05	13	0	5.9418	8.04279e-07
2	0	0	1	0	0	6.3686	0.413637	0.41343	0.00109972	1	1.06278e-05	13	0	6.3413	4.54658e-07
2	1	0	1	0	0	6.768	0.41763	0.417441	0.00106062	1	1.12318e-05	13	0	6.7407	4.42746e-07
2	1	0	1	0	0	7.1675	0.421625	0.421379	0.00190565	1	1.18399e-05	13	0	7.1402	8.03e-07
2	1	0	1	0	0	7.5669	0.42562	0.425383	0.00200212	1	1.24392e-05	13	0	7.5396	8.51668e-07
2	1	0	1	0	0	7.9663	0.429614	0.429318	0.00112503	1	1.30323e-05	13	0	7.939	4.82994e-07
2	1	0	1	0	0	8.3658	0.433608	0.433379	0.00127541	1	1.36155e-05	13	0	8.3385	5.52735e-07
2	1	0	1	0	0	8.7653	0.437603	0.437348	0.00208834	1	1.41937e-05	13	0	8.738	9.13333e-07
2	1	0	1	0	0	9.1647	0.441597	0.441369	0.00166164	1	1.47663e-05	13	0	9.1374	7.33396e-07
2	1	0	1	0	0	9.5641	0.445592	0.445337	0.000967512	1	1.53303e-05	13	0	9.5368	4.30869e-07
2	1	0	1	0	0	9.9636	0.449587	0.449366	0.00162001	1	1.58875e-05	13	0	9.9363	7.27978e-07
2	1	0	1	0	0	10.2799	0.44724	0.446974	-0.000357669	1	1.56922e-05	13	0	0.2497	-1.59869e-07
2	0	0	1	0	0	10.6793	0.443245	0.442963	-0.00107765	1	1.5278e-05	13	0	0.6491	-4.7736e-07
2	0	0	1	0	0	11.0788	0.43925	0.438983	-0.00167369	1	1.48349e-05	13	0	1.0486	-7.34721e-07
2	1	0	1	0	0	11.4782	0.435257	0.434953	-0.00106273	1	1.43734e-05	13	0	1.448	-4.62239e-07
2	0	0	1	0	0	11.8777	0.431262	0.43099	-0.000678792	1	1.3901e-05	13	0	1.8475	-2.92552e-07
2	0	0	1	0	0	12.2771	0.427267	0.426959	-0.00160516	1	1.34163e-05	13	0	2.2469	-6.85336e-07
2	0	0	1	0	0	12.6765	0.423273	0.423006	-0.00177698	1	1.29172e-05	13	0	2.6463	-7.51676e-07
2	0	0	1	0	0	13.076	0.419278	0.419039	-0.000947139	1	1.24091e-05	13	0	3.0458	-3.96888e-07
2	0	0	1	0	0	13.4755	0.415284	0.415041	-0.00108518	1	1.18929e-05	13	0	3.4453	-4.50395e-07
2	0	0	1	0	0	13.8749	0.411289	0.411056	-0.0020163	1	1.13628e-05	13	0	3.8447	-8.28814e-07
2	0	0	1	0	0	14.2743	0.407295	0.407033	-0.00173845	1	1.08199e-05	13	0	4.2441	-7.07608e-07
2	0	0	1	0	0	14.6738	0.4033	0.403028	-0.00099446	1	1.0266e-05	13	0	4.6436	-4.00795e-07
2	0	0	1	0	0	15.0733	0.399306	0.399024	-0.00124181	1	9.70803e-06	13	0	5.0431	-4.9551e-07
2	0	0	1	0	0	15.4727	0.395312	0.395026	-0.0021379	1	9.13561e-06	13	0	5.4425	-8.44527e-07
2	0	0	1	0	0	15.8721	0.391317	0.391016	-0.0020867	1	8.54604e-06	13	0	5.8419	-8.15934e-07
2	0	0	1	0	0	16.2716	0.387322	0.387033	-0.00121288	1	7.9495e-06	13	0	6.2414	-4.69423e-07
2	0	0	1	0	0	16.671	0.383329	0.38306	-0.00118386	1	7.34423e-06	13	0	6.6408	-4.53488e-07
2	0	0	1	0	0	17.0705	0.379334	0.379077	-0.00208227	1	6.72628e-06	13	0	7.0403	-7.89342e-07
2	0	0	1	0	0	17.4699	0.375339	0.375094	-0.00236129	1	6.09431e-06	13	0	7.4397	-8.85704e-07
2	0	0	1	0	0	17.8693	0.371345	0.371026	-0.00152163	1	5.45109e-06	13	0	7.8391	-5.64564e-07
2	0	0	1	0	0	18.2688	0.36735	0.367087	-0.00101564	1	4.79992e-06	13	0	8.2386	-3.72829e-07
2	0	0	1	0	0	18.6683	0.363356	0.363031	-0.00183131	1	4.13626e-06	13	0	8.6381	-6.64823e-07
2	0	0	1	0	0	19.0677	0.359361	0.359105	-0.00252472	1	3.45729e-06	13	0	9.0375	-9.06637e-07
2	0	0	1	0	0	19.4671	0.355367	0.355083	-0.00198942	1	2.76256e-06	13	0	9.4369	-7.0641e-07
2	0	0	1	0	0	19.8666	0.351372	0.351104	-0.00106969	1	2.05844e-06	13	0	9.8364	-3.75572e-07
2	1	0	1	0	1	20.1338	0.351322	0.351064	0.00141676	2	1.98323e-06	13	0	0.1274	4.97373e-07
2	0	0	1	0	1	20.5333	0.355317	0.35504	0.00229395	2	2.61259e-06	13	0	0.5269	8.14442e-07
2	0	0	1	0	1	20.9327	0.359311	0.359041	0.00169017	2	3.26811e-06	13	0	0.9263	6.0684e-07
2	0	0	1	0	1	21.3321	0.363306	0.363105	0.000838762	2	3.92869e-06	13	0	1.3257	3.04559e-07
2	1	0	1	0	1	21.7316	0.3673	0.36703	0.00116698	2	4.58579e-06	13	0	1.7252	4.28315e-07
2	1	0	1	0	1	22.1311	0.371295	0.37103	0.00205829	2	5.24486e-06	13	0	2.1247	7.63686e-07
2	0	0	1	0	1	22.5305	0.375289	0.375069	0.00205075	2	5.90151e-06	13	0	2.5241	7.69175e-07
2	0	0	1	0	1	22.9299	0.379284	0.37906	0.00119127	2	6.55045e-06	13	0	2.9235	4.51563e-07
2	0	0	1	0	1	23.3294	0.383279	0.383007	0.000875666	2	7.18892e-06	13	0	3.323	3.35386e-07
2	1	0	1	0	1	23.7288	0.387272	0.387006	0.00175811	2	7.82212e-06	13	0	3.7224	6.804e-07
2	0	0	1	0	1	24.1283	0.391267	0.390998	0.00217589	2	8.45132e-06	13	0	4.1219	8.50768e-07
2	0	0	1	0	1	24.5277	0.395262	0.394995	0.00151171	2	9.07462e-06	13	0	4.5213	5.97119e-07
2	0	0	1	0	1	24.9271	0.399256	0.399038	0.000880968	2	9.68902e-06	13	0	4.9207	3.5154e-07
2	1	0	1	0	1	25.3266	0.40325	0.402985	0.00132118	2	1.02946e-05	13	0	5.3202	5.32415e-07
2	1	0	1	0	1	25.7261	0.407245	0.406988	0.00208471	2	1.09011e-05	13	0	5.7197	8.48451e-07
2	1	0	1	0	1	26.1255	0.411239	0.411063	0.00185921	2	1.14993e-05	13	0	6.1191	7.64254e-07
2	1	0	1	0	1	26.5249	0.415234	0.414987	0.0010457	2	1.20903e-05	13	0	6.5185	4.3395e-07
2	1	0	1	0	1	26.9244	0.419228	0.419007	0.00114758	2	1.26719e-05	13	0	6.918	4.80844e-07
2	1	0	1	0	1	27.3239	0.423223	0.423002	0.00192617	2	1.32495e-05	13	0	7.3175	8.14774e-07
2	1	0	1	0	1	27.7233	0.427217	0.426945	0.00204282	2	1.38236e-05	13	0	7.7169	8.7217e-07
2	1	0	1	0	1	28.1227	0.431212	0.430957	0.00130485	2	1.43899e-05	13	0	8.1163	5.62333e-07
2	1	0	1	0	1	28.5222	0.435207	0.434946	0.000989591	2	1.4948e-05	13	0	8.5158	4.30419e-07
2	1	0	1	0	1	28.9216	0.4392	0.438979	0.00166914	2	1.55023e-05	13	0	8.9152	7.32718e-07
2	1	0	1	0	1	29.3211	0.443195	0.442984	0.00207085	2	1.60531e-05	13	0	9.3147	9.17351e-07
2	1	0	1	0	1	29.7205	0.44719	0.44692	0.00143264	2	1.65989e-05	13	0	9.7141	6.40274e-07
2	0	0	1	0	1	30.0268	0.449737	0.449465	-0.00127331	2	1.69544e-05	13	0	0.000000000000000E+000	-5.7231e-07
2	0	0	1	0	1	30.4263	0.445742	0.445437	-0.000800025	2	1.65649e-05	13	0	0.3995	-3.56361e-07
2	0	0	1	0	1	30.8257	0.441747	0.441527	-0.000629352	2	1.6135e-05	13	0	0.7989	-2.77876e-07
2	0	0	1	0	1	31.2251	0.437753	0.437486	-0.00149587	2	1.56842e-05	13	0	1.1983	-6.54422e-07
2	1	0	1	0	1	31.6246	0.433759	0.433505	-0.00169676	2	1.52151e-05	13	0	1.5978	-7.35554e-07
2	1	0	1	0	1	32.0241	0.429764	0.429478	-0.00100047	2	1.47314e-05	13	0	1.9973	-4.2968e-07
2	1	0	1	0	1	32.4235	0.425769	0.425462	-0.000628497	2	1.42409e-05	13	0	2.3967	-2.67402e-07
2	1	0	1	0	1	32.8229	0.421775	0.421485	-0.00133511	2	1.37401e-05	13	0	2.7961	-5.62729e-07
2	1	0	1	0	1	33.2224	0.41778	0.417485	-0.00183415	2	1.32258e-05	13	0	3.1956	-7.65731e-07
2	1	0	1	0	1	33.6219	0.413786	0.413526	-0.00134551	2	1.27014e-05	13	0	3.5951	-5.56403e-07
2	1	0	1	0	1	34.0213	0.409791	0.409573	-0.000640162	2	1.21706e-05	13	0	3.9945	-2.62193e-07
2	1	0	1	0	1	34.4207	0.405797	0.405515	-0.0011607	2	1.16272e-05	13	0	4.3939	-4.70681e-07
2	1	0	1	0	1	34.8202	0.401802	0.401553	-0.00192895	2	1.1072e-05	13	0	4.7934	-7.74575e-07
2	1	0	1	0	1	35.2196	0.397809	0.397528	-0.00158334	2	1.05017e-05	13	0	5.1928	-6.29423e-07
2	1	0	1	0	1	35.6191	0.393814	0.393588	-0.000761341	2	9.9242e-06	13	0	5.5923	-2.99654e-07
2	0	0	1	0	1	36.0185	0.389819	0.389532	-0.00115782	2	9.3369e-06	13	0	5.9917	-4.51007e-07
2	0	0	1	0	1	36.4179	0.385825	0.385526	-0.00204069	2	8.73596e-06	13	0	6.3911	-7.86739e-07
2	1	0	1	0	1	36.8174	0.381831	0.38153	-0.00180366	2	8.12147e-06	13	0	6.7906	-6.88148e-07
2	1	0	1	0	1	37.2169	0.377836	0.377567	-0.000848881	2	7.49897e-06	13	0	7.1901	-3.20509e-07
2	0	0	1	0	1	37.6163	0.373841	0.373582	-0.00131625	2	6.86631e-06	13	0	7.5895	-4.91728e-07
2	0	0	1	0	1	38.0157	0.369847	0.369563	-0.00232116	2	6.21491e-06	13	0	7.9889	-8.57816e-07
2	0	0	1	0	1	38.4152	0.365852	0.365615	-0.00153534	2	5.55016e-06	13	0	8.3884	-5.61344e-07
2	0	0	1	0	1	38.8147	0.361858	0.361588	-0.0011686	2	4.8779e-06	13	0	8.7879	-4.22552e-07
2	0	0	1	0	1	39.2141	0.357864	0.35758	-0.00247627	2	4.19165e-06	13	0	9.1873	-8.85464e-07
2	0	0	1	0	1	39.6135	0.353869	0.353596	-0.001745	2	3.48836e-06	13	0	9.5867	-6.17026e-07
2	0	0	1	0	1	39.9931	0.350074	0.349801	-0.00296488	2	2.794e-06	13	0	9.9663	-1.03712e-06
2	1	0	1	0	0	40.2802	0.35282	0.352623	0.00241845	3	3.21293e-06	13	0	0.2772	8.52802e-07
2	1	0	1	0	0	40.6797	0.356815	0.356545	0.00191581	3	3.85064e-06	13	0	0.6767	6.83074e-07
2	1	0	1	0	0	41.0791	0.360809	0.360618	0.0010772	3	4.49891e-06	13	0	1.0761	3.88457e-07
2	1	0	1	0	0	41.4785	0.364804	0.364571	0.00206835	3	5.14874e-06	13	0	1.4755	7.5406e-07
2	1	0	1	0	0	41.878	0.368799	0.368558	0.00235889	3	5.79791e-06	13	0	1.875	8.69389e-07
2	1	0	1	0	0	42.2775	0.372793	0.372536	0.00128001	3	6.44374e-06	13	0	2.2745	4.76849e-07
2	1	0	1	0	0	42.6769	0.376787	0.376546	0.00128575	3	7.08438e-06	13	0	2.6739	4.84143e-07
2	1	0	1	0	0	43.0763	0.380782	0.380519	0.00234163	3	7.72248e-06	13	0	3.0733	8.91035e-07
2	1	0	1	0	0	43.4758	0.384777	0.384513	0.00177312	3	8.35769e-06	13	0	3.4728	6.81789e-07
2	1	0	1	0	0	43.8752	0.38877	0.388516	0.000988147	3	8.98385e-06	13	0	3.8722	3.83911e-07
2	1	0	1	0	0	44.2747	0.392765	0.392514	0.00180124	3	9.60301e-06	13	0	4.2717	7.07012e-07
2	0	0	1	0	0	44.6741	0.39676	0.396502	0.00217395	3	1.02189e-05	13	0	4.6711	8.61977e-07
2	0	0	1	0	0	45.0735	0.400754	0.400466	0.0011983	3	1.08281e-05	13	0	5.0705	4.79876e-07
2	1	0	1	0	0	45.473	0.404748	0.404461	0.00101206	3	1.14259e-05	13	0	5.47	4.09337e-07
2	1	0	1	0	0	45.8725	0.408743	0.408518	0.00187494	3	1.20235e-05	13	0	5.8695	7.65948e-07
2	0	0	1	0	0	46.2719	0.412737	0.41251	0.0018068	3	1.26131e-05	13	0	6.2689	7.45324e-07
2	0	0	1	0	0	46.6713	0.416732	0.416468	0.000914439	3	1.31942e-05	13	0	6.6683	3.80834e-07
2	1	0	1	0	0	47.0708	0.420727	0.420482	0.00123797	3	1.37687e-05	13	0	7.0678	5.20543e-07
2	0	0	1	0	0	47.4703	0.424721	0.424471	0.00194918	3	1.43395e-05	13	0	7.4673	8.27369e-07
2	0	0	1	0	0	47.8697	0.428715	0.428441	0.00103893	3	1.49047e-05	13	0	7.8667	4.45119e-07
2	1	0	1	0	0	48.2691	0.43271	0.432447	0.000869046	3	1.54618e-05	13	0	8.2661	3.75816e-07
2	1	0	1	0	0	48.6686	0.436705	0.436494	0.00175051	3	1.6014e-05	13	0	8.6656	7.64085e-07
2	0	0	1	0	0	49.068	0.440698	0.44045	0.00150641	3	1.65613e-05	13	0	9.065	6.63497e-07
2	0	0	1	0	0	49.4675	0.444693	0.444438	0.000736186	3	1.71015e-05	13	0	9.4645	3.27189e-07
2	1	0	1	0	0	49.8669	0.448687	0.448452	0.00133471	3	1.76393e-05	13	0	9.8639	5.98552e-07
2	0	0	1	0	0	50.1732	0.448239	0.448001	-0.000770479	3	1.7657e-05	13	0	0.1498	-3.45175e-07
2	0	0	1	0	0	50.5876	0.444094	0.443818	-0.00129332	3	1.72218e-05	13	0	0.5642	-5.73999e-07
2	0	0	1	0	0	51.0021	0.43995	0.439676	-0.00152983	3	1.67265e-05	14	0	0.9787	-6.72632e-07
2	0	0	1	0	0	51.4015	0.435955	0.435646	-0.00156185	3	1.6264e-05	14	0	1.3781	-6.80413e-07
2	0	0	1	0	0	51.8009	0.431961	0.43169	-0.000601385	3	1.57876e-05	14	0	1.7775	-2.59612e-07
2	0	0	1	0	0	52.2004	0.427967	0.427704	-0.000999138	3	1.53019e-05	14	0	2.177	-4.27335e-07
2	0	0	1	0	0	52.5999	0.423972	0.423694	-0.00195839	3	1.48043e-05	14	0	2.5765	-8.29757e-07
2	0	0	1	0	0	52.9993	0.419977	0.419741	-0.00128575	3	1.42947e-05	14	0	2.9759	-5.39681e-07
2	0	0	1	0	0	53.3987	0.415983	0.415768	-0.000661367	3	1.37781e-05	14	0	3.3753	-2.74975e-07
2	0	0	1	0	0	53.7982	0.411988	0.411721	-0.00174219	3	1.32519e-05	14	0	3.7748	-7.17296e-07
2	0	0	1	0	0	54.1977	0.407994	0.407726	-0.00194714	3	1.27095e-05	14	0	4.1743	-7.93898e-07
2	0	0	1	0	0	54.5971	0.404	0.403716	-0.000886347	3	1.2158e-05	14	0	4.5737	-3.57833e-07
2	0	0	1	0	0	54.9965	0.400005	0.39973	-0.000980813	3	1.16006e-05	14	0	4.9731	-3.9206e-07
2	0	0	1	0	0	55.396	0.39601	0.395743	-0.00212153	3	1.10319e-05	14	0	5.3726	-8.39582e-07
2	0	0	1	0	0	55.7954	0.392017	0.391726	-0.00192668	3	1.04469e-05	14	0	5.772	-7.54732e-07
2	0	0	1	0	0	56.1949	0.388022	0.387711	-0.000798541	3	9.85532e-06	14	0	6.1715	-3.09603e-07
2	0	0	1	0	0	56.5943	0.384027	0.383738	-0.00128294	3	9.25234e-06	14	0	6.5709	-4.92313e-07
2	0	0	1	0	0	56.9937	0.380033	0.379741	-0.00238071	3	8.63747e-06	14	0	6.9703	-9.04052e-07
2	0	0	1	0	0	57.3932	0.376039	0.37582	-0.00170205	3	8.00837e-06	14	0	7.3698	-6.39665e-07
2	0	0	1	0	0	57.7927	0.372044	0.371789	-0.000703003	3	7.37086e-06	14	0	7.7693	-2.61369e-07
2	0	0	1	0	0	58.1921	0.368049	0.367727	-0.00149126	3	6.72246e-06	14	0	8.1687	-5.48377e-07
2	0	0	1	0	0	58.5915	0.364055	0.363791	-0.00253572	3	6.05814e-06	14	0	8.5681	-9.22472e-07
2	1	0	1	0	0	58.991	0.36006	0.359821	-0.00184797	3	5.3775e-06	14	0	8.9676	-6.64938e-07
2	0	0	1	0	0	59.3905	0.356066	0.355837	-0.000735729	3	4.68893e-06	14	0	9.3671	-2.61799e-07
2	0	0	1	0	0	59.7899	0.352072	0.351736	-0.00183314	3	3.986e-06	14	0	9.7665	-6.4478e-07
2	1	0	1	0	1	60.0771	0.350823	0.350595	0.0020994	4	3.71528e-06	14	0	0.05	7.36039e-07
2	0	0	1	0	1	60.4765	0.354818	0.354582	0.00217935	4	4.32707e-06	14	0	0.4494	7.72758e-07
2	0	0	1	0	1	60.876	0.358813	0.358575	0.000924986	4	4.97065e-06	14	0	0.8489	3.31677e-07
2	1	0	1	0	1	61.2754	0.362806	0.362586	0.00102209	4	5.61447e-06	14	0	1.2483	3.70596e-07
2	1	0	1	0	1	61.6749	0.366801	0.366609	0.00231393	4	6.26403e-06	14	0	1.6478	8.48309e-07
2	1	0	1	0	1	62.0743	0.370796	0.370562	0.00212931	4	6.91344e-06	14	0	2.0472	7.8904e-07
2	1	0	1	0	1	62.4737	0.37479	0.374539	0.000853167	4	7.55806e-06	14	0	2.4466	3.19545e-07
2	1	0	1	0	1	62.8732	0.378784	0.378596	0.00130048	4	8.19421e-06	14	0	2.8461	4.92356e-07
2	1	0	1	0	1	63.2727	0.382779	0.382507	0.00240577	4	8.82914e-06	14	0	3.2456	9.20223e-07
2	0	0	1	0	1	63.6721	0.386773	0.386507	0.00153045	4	9.45782e-06	14	0	3.645	5.9153e-07
2	1	0	1	0	1	64.0715	0.390768	0.39048	0.000762252	4	1.00754e-05	14	0	4.0444	2.97644e-07
2	1	0	1	0	1	64.471	0.394763	0.394545	0.00169839	4	1.06885e-05	14	0	4.4439	6.7009e-07
2	1	0	1	0	1	64.8705	0.398757	0.39852	0.00227444	4	1.1298e-05	14	0	4.8434	9.0641e-07
2	1	0	1	0	1	65.2699	0.402751	0.40251	0.00138267	4	1.19014e-05	14	0	5.2428	5.56538e-07
2	1	0	1	0	1	65.6693	0.406746	0.406532	0.000777112	4	1.2497e-05	14	0	5.6422	3.15921e-07
2	1	0	1	0	1	66.0688	0.410741	0.410549	0.00162947	4	1.30843e-05	14	0	6.0417	6.6898e-07
2	1	0	1	0	1	66.4682	0.414734	0.414509	0.00214385	4	1.36681e-05	14	0	6.4411	8.88644e-07
2	1	0	1	0	1	66.8677	0.418729	0.418481	0.00105218	4	1.42448e-05	14	0	6.8406	4.40318e-07
2	1	0	1	0	1	67.2671	0.422724	0.422506	0.00106253	4	1.48108e-05	14	0	7.24	4.48924e-07
2	1	0	1	0	1	67.6665	0.426718	0.426485	0.00213039	4	1.53748e-05	14	0	7.6394	9.08578e-07
2	1	0	1	0	1	68.066	0.430712	0.430495	0.00146008	4	1.59348e-05	14	0	8.0389	6.28554e-07
2	1	0	1	0	1	68.4655	0.434707	0.434488	0.000778839	4	1.64842e-05	14	0	8.4384	3.38396e-07
2	1	0	1	0	1	68.8649	0.438701	0.438478	0.00164441	4	1.70275e-05	14	0	8.8378	7.21036e-07
2	1	0	1	0	1	69.2643	0.442696	0.442475	0.0019461	4	1.7569e-05	14	0	9.2372	8.61099e-07
2	1	0	1	0	1	69.6638	0.446691	0.44641	0.000967587	4	1.81061e-05	14	0	9.6367	4.3194e-07
2	0	0	1	0	1	69.9926	0.450011	0.449812	-0.000291515	4	1.85336e-05	14	0	0.000000000000000E+000	-1.31127e-07
2	0	0	1	0	1	70.3695	0.446241	0.445988	-0.000388173	4	1.81787e-05	14	0	0.3769	-1.73121e-07
2	0	0	1	0	1	70.769	0.442246	0.441974	-0.0012214	4	1.77544e-05	14	0	0.7764	-5.39828e-07
2	0	0	1	0	1	71.1684	0.438253	0.438002	-0.00174831	4	1.72999e-05	14	0	1.1758	-7.65764e-07
2	0	0	1	0	1	71.5679	0.434258	0.434019	-0.000905447	4	1.68331e-05	14	0	1.5753	-3.92981e-07
2	0	0	1	0	1	71.9673	0.430263	0.429998	-0.000645116	4	1.63565e-05	14	0	1.9747	-2.77399e-07
2	0	0	1	0	1	72.3667	0.426269	0.425958	-0.0016603	4	1.58681e-05	14	0	2.3741	-7.0722e-07
2	0	0	1	0	1	72.7662	0.422275	0.422046	-0.00172747	4	1.53631e-05	14	0	2.7736	-7.29072e-07
2	0	0	1	0	1	73.1657	0.41828	0.418045	-0.000675745	4	1.48514e-05	14	0	3.1731	-2.82492e-07
2	0	0	1	0	1	73.5651	0.414285	0.414024	-0.000915971	4	1.43312e-05	14	0	3.5725	-3.79234e-07
2	0	0	1	0	1	73.9645	0.410291	0.410012	-0.0019683	4	1.37999e-05	14	0	3.9719	-8.0703e-07
2	0	0	1	0	1	74.364	0.406296	0.406079	-0.00172257	4	1.32542e-05	14	0	4.3714	-6.995e-07
2	0	0	1	0	1	74.7635	0.402302	0.402065	-0.000710873	4	1.26989e-05	14	0	4.7709	-2.85817e-07
2	0	0	1	0	1	75.1629	0.398307	0.397973	-0.00107371	4	1.21375e-05	14	0	5.1703	-4.27309e-07
2	0	0	1	0	1	75.5623	0.394313	0.394002	-0.00215856	4	1.1563e-05	14	0	5.5697	-8.50476e-07
2	1	0	1	0	1	75.9618	0.390318	0.390009	-0.00117031	4	1.09771e-05	14	0	5.9692	-4.56431e-07
2	0	0	1	0	1	76.3613	0.386324	0.385999	-0.000835748	4	1.03823e-05	14	0	6.3687	-3.22597e-07
2	0	0	1	0	1	76.7607	0.38233	0.382004	-0.00211944	4	9.77619e-06	14	0	6.7681	-8.09634e-07
2	1	0	1	0	1	77.1601	0.378335	0.378076	-0.0018881	4	9.15272e-06	14	0	7.1675	-7.13848e-07
2	0	0	1	0	1	77.5596	0.37434	0.374076	-0.000701856	4	8.5228e-06	14	0	7.567	-2.62548e-07
2	0	0	1	0	1	77.959	0.370347	0.370059	-0.00160115	4	7.88143e-06	14	0	7.9664	-5.92519e-07
2	0	0	1	0	1	78.3585	0.366352	0.366032	-0.00247397	4	7.22249e-06	14	0	8.3659	-9.05553e-07
2	1	0	1	0	1	78.7579	0.362357	0.362068	-0.0014669	4	6.55267e-06	14	0	8.7653	-5.31118e-07
2	0	0	1	0	1	79.1573	0.358363	0.358098	-0.00084366	4	5.87161e-06	14	0	9.1647	-3.02113e-07
2	0	0	1	0	1	79.5568	0.354368	0.354092	-0.0023391	4	5.17758e-06	14	0	9.5642	-8.28257e-07
2	0	0	1	0	1	79.9563	0.350374	0.350103	-0.00231244	4	4.46283e-06	14	0	9.9637	-8.0959e-07
2	1	0	1	0	0	80.2235	0.352321	0.352103	0.000555624	5	4.72494e-06	14	0	0.1998	1.95637e-07
2	1	0	1	0	0	80.6229	0.356316	0.35612	0.00157008	5	5.34818e-06	14	0	0.5992	5.59137e-07
2	1	0	1	0	0	81.0223	0.36031	0.36009	0.00252007	5	5.9945e-06	14	0	0.9986	9.07454e-07
2	0	0	1	0	0	81.4218	0.364304	0.364088	0.00152102	5	6.64462e-06	14	0	1.3981	5.53785e-07
2	1	0	1	0	0	81.8213	0.368299	0.368058	0.000730599	5	7.28876e-06	14	0	1.7976	2.68903e-07
2	1	0	1	0	0	82.2207	0.372294	0.372108	0.00148886	5	7.92988e-06	14	0	2.197	5.54017e-07
2	1	0	1	0	0	82.6201	0.376288	0.376068	0.00244309	5	8.5711e-06	14	0	2.5964	9.18766e-07
2	1	0	1	0	0	83.0196	0.380282	0.380076	0.00164915	5	9.20676e-06	14	0	2.9959	6.26801e-07
2	1	0	1	0	0	83.4191	0.384277	0.384028	0.000756239	5	9.83299e-06	14	0	3.3954	2.90417e-07
2	1	0	1	0	0	83.8185	0.388271	0.388087	0.00146841	5	1.04523e-05	14	0	3.7948	5.69869e-07
2	1	0	1	0	0	84.2179	0.392266	0.392008	0.00235094	5	1.10682e-05	14	0	4.1942	9.21587e-07
2	1	0	1	0	0	84.6174	0.396261	0.396017	0.00166078	5	1.16782e-05	14	0	4.5937	6.57695e-07
2	1	0	1	0	0	85.0168	0.400254	0.399996	0.000769844	5	1.22789e-05	14	0	4.9931	3.07934e-07
2	1	0	1	0	0	85.4163	0.404249	0.404007	0.00144641	5	1.28703e-05	14	0	5.3926	5.8436e-07
2	1	0	1	0	0	85.8157	0.408244	0.408014	0.00224118	5	1.34631e-05	14	0	5.792	9.14434e-07
2	1	0	1	0	0	86.2151	0.412238	0.412014	0.00151307	5	1.40461e-05	14	0	6.1914	6.23406e-07
2	1	0	1	0	0	86.6146	0.416232	0.415985	0.000755811	5	1.46189e-05	14	0	6.5909	3.14406e-07
2	1	0	1	0	0	87.0141	0.420227	0.420029	0.00146474	5	1.51843e-05	14	0	6.9904	6.15233e-07
2	1	0	1	0	0	87.4135	0.424221	0.423982	0.00214595	5	1.57475e-05	14	0	7.3898	9.09844e-07
2	1	0	1	0	0	87.8129	0.428216	0.427993	0.00140437	5	1.63057e-05	14	0	7.7892	6.01059e-07
2	1	0	1	0	0	88.2124	0.43221	0.43198	0.000729002	5	1.68553e-05	14	0	8.1887	3.14914e-07
2	1	0	1	0	0	88.6119	0.436205	0.435989	0.00146393	5	1.74004e-05	14	0	8.5882	6.38259e-07
2	1	0	1	0	0	89.0113	0.440199	0.439992	0.00202688	5	1.79435e-05	14	0	8.9876	8.9181e-07
2	1	0	1	0	0	89.4107	0.444194	0.443923	0.00126977	5	1.84817e-05	14	0	9.387	5.63682e-07
2	1	0	1	0	0	89.8102	0.448189	0.447961	0.000751924	5	1.90116e-05	14	0	9.7865	3.36832e-07
2	1	0	1	0	0	90.1165	0.448737	0.448468	-0.000409305	5	1.91395e-05	14	0	0.0999	-1.8356e-07
2	0	0	1	0	0	90.5159	0.444743	0.444463	-0.000750039	5	1.87343e-05	14	0	0.4993	-3.33364e-07
2	0	0	1	0	0	90.9154	0.440748	0.440479	-0.00178155	5	1.8297e-05	14	0	0.8988	-7.84735e-07
2	1	0	1	0	0	91.3148	0.436755	0.436495	-0.000894208	5	1.78395e-05	14	0	1.2982	-3.90317e-07
2	0	0	1	0	0	91.7143	0.43276	0.432482	-0.000704558	5	1.73698e-05	14	0	1.6977	-3.04709e-07
2	0	0	1	0	0	92.1137	0.428765	0.428454	-0.00178743	5	1.68878e-05	14	0	2.0971	-7.6583e-07
2	0	0	1	0	0	92.5131	0.424771	0.424528	-0.00152009	5	1.63897e-05	14	0	2.4965	-6.45321e-07
2	0	0	1	0	0	92.9126	0.420776	0.420558	-0.0005442	5	1.58877e-05	14	0	2.896	-2.28868e-07
2	0	0	1	0	0	93.3121	0.416782	0.416495	-0.00121879	5	1.53761e-05	14	0	3.2955	-5.07619e-07
2	0	0	1	0	0	93.7115	0.412787	0.412565	-0.00199099	5	1.48502e-05	14	0	3.6949	-8.21411e-07
2	1	0	1	0	0	94.1109	0.408793	0.408576	-0.00110924	5	1.4314e-05	14	0	4.0943	-4.5321e-07
2	0	0	1	0	0	94.5104	0.404798	0.404527	-0.000809931	5	1.37668e-05	14	0	4.4938	-3.27639e-07
2	0	0	1	0	0	94.9099	0.400804	0.400496	-0.00202421	5	1.32116e-05	14	0	4.8933	-8.10689e-07
2	1	0	1	0	0	95.3093	0.39681	0.396548	-0.00153029	5	1.26415e-05	14	0	5.2927	-6.06832e-07
2	0	0	1	0	0	95.7087	0.392815	0.392503	-0.000672184	5	1.20664e-05	14	0	5.6921	-2.63835e-07
2	0	0	1	0	0	96.1082	0.38882	0.388512	-0.00188068	5	1.14798e-05	14	0	6.0916	-7.30665e-07
2	1	0	1	0	0	96.5076	0.384827	0.384549	-0.00188533	5	1.08781e-05	14	0	6.491	-7.25001e-07
2	0	0	1	0	0	96.9071	0.380832	0.380539	-0.000667989	5	1.02703e-05	14	0	6.8905	-2.54196e-07
2	0	0	1	0	0	97.3065	0.376837	0.376543	-0.00166153	5	9.65269e-06	14	0	7.2899	-6.25637e-07
2	0	0	1	0	0	97.7059	0.372843	0.372598	-0.00221084	5	9.01609e-06	14	0	7.6893	-8.23755e-07
2	1	0	1	0	0	98.1054	0.368849	0.368554	-0.000924129	5	8.37028e-06	14	0	8.0888	-3.40592e-07
2	0	0	1	0	0	98.5049	0.364854	0.364559	-0.00119947	5	7.7121e-06	14	0	8.4883	-4.37276e-07
2	0	0	1	0	0	98.9043	0.360859	0.360577	-0.00250565	5	7.03962e-06	14	0	8.8877	-9.03481e-07
2	1	0	1	0	0	99.3037	0.356865	0.356561	-0.00191678	5	6.34994e-06	14	0	9.2871	-6.83448e-07
2	0	0	1	0	0	99.7032	0.35287	0.352591	-0.000763483	5	5.65189e-06	14	0	9.6866	-2.69197e-07
2	0	0	0	0	1	99.9928	0.35005	0.349705	-0.00324869	6	5.14531e-06	14	0	9.9762	-1.13608e-06
2	0	0	1	0	1	100.37	0.353819	0.353571	0.00200649	6	5.69681e-06	14	0	0.3496	7.09435e-07
2	1	0	1	0	1	100.769	0.357814	0.357565	0.000678744	6	6.33215e-06	14	0	0.749	2.42695e-07
2	1	0	1	0	1	101.169	0.361808	0.361563	0.00147942	6	6.97377e-06	14	0	1.1484	5.34902e-07
2	1	0	1	0	1	101.568	0.365802	0.365584	0.00246807	6	7.62298e-06	14	0	1.5479	9.02285e-07
2	0	0	1	0	1	101.968	0.369797	0.369538	0.00135471	6	8.27046e-06	14	0	1.9474	5.00617e-07
2	1	0	1	0	1	102.367	0.373791	0.373561	0.000955007	6	8.90602e-06	14	0	2.3468	3.56753e-07
2	1	0	1	0	1	102.766	0.377786	0.377576	0.00232062	6	9.54107e-06	14	0	2.7462	8.7621e-07
2	1	0	1	0	1	103.166	0.381781	0.381499	0.00172255	6	1.01719e-05	14	0	3.1457	6.5715e-07
2	1	0	1	0	1	103.565	0.385775	0.385481	0.000719714	6	1.07935e-05	14	0	3.5452	2.77436e-07
2	1	0	1	0	1	103.965	0.389769	0.389512	0.00170407	6	1.14098e-05	14	0	3.9446	6.63755e-07
2	1	0	1	0	1	104.364	0.393764	0.393525	0.00214669	6	1.20211e-05	14	0	4.344	8.44778e-07
2	1	0	1	0	1	104.764	0.397759	0.397498	0.000941742	6	1.26274e-05	14	0	4.7435	3.74341e-07
2	1	0	1	0	1	105.163	0.401752	0.401553	0.00111515	6	1.32218e-05	14	0	5.1429	4.4779e-07
2	1	0	1	0	1	105.563	0.405747	0.405508	0.0022061	6	1.38135e-05	14	0	5.5424	8.94591e-07
2	1	0	1	0	1	105.962	0.409742	0.409542	0.00152771	6	1.44025e-05	14	0	5.9418	6.2566e-07
2	1	0	1	0	1	106.361	0.413736	0.413512	0.000767496	6	1.49789e-05	14	0	6.3412	3.17369e-07
2	1	0	1	0	1	106.761	0.41773	0.417526	0.00183405	6	1.55502e-05	14	0	6.7407	7.65762e-07
2	1	0	1	0	1	107.16	0.421725	0.421499	0.00185149	6	1.61177e-05	14	0	7.1402	7.804e-07
2	1	0	1	0	1	107.56	0.425719	0.42546	0.000730769	6	1.66777e-05	14	0	7.5396	3.10913e-07
2	1	0	1	0	1	107.959	0.429714	0.429481	0.00131534	6	1.72292e-05	14	0	7.939	5.64913e-07
2	1	0	1	0	1	108.359	0.433709	0.433469	0.00206955	6	1.77795e-05	14	0	8.3385	8.97088e-07
2	1	0	1	0	1	108.758	0.437703	0.437439	0.00122814	6	1.83231e-05	14	0	8.738	5.37236e-07
2	1	0	1	0	1	109.158	0.441697	0.441487	0.000843459	6	1.88598e-05	14	0	9.1374	3.72377e-07
2	1	0	1	0	1	109.557	0.445692	0.445497	0.0019436	6	1.9392e-05	14	0	9.5368	8.65867e-07
2	1	0	1	0	1	109.957	0.449687	0.449446	0.0013103	6	1.99222e-05	14	0	9.9363	5.88911e-07
2	0	0	1	0	1	110.263	0.44724	0.446969	-0.00128571	6	1.97022e-05	14	0	0.2497	-5.74673e-07
2	0	0	1	0	1	110.662	0.443245	0.443017	-0.000428191	6	1.92809e-05	14	0	0.6491	-1.89696e-07
2	0	0	1	0	1	111.062	0.43925	0.438966	-0.00126939	6	1.88369e-05	14	0	1.0486	-5.57221e-07
2	0	0	1	0	1	111.461	0.435257	0.434999	-0.00166575	6	1.83724e-05	14	0	1.448	-7.24601e-07
2	0	0	1	0	1	111.861	0.431262	0.430982	-0.000627944	6	1.7898e-05	14	0	1.8475	-2.70633e-07
2	0	0	1	0	1	112.26	0.427267	0.426955	-0.00102668	6	1.74132e-05	14	0	2.2469	-4.38344e-07
2	0	0	1	0	1	112.659	0.423273	0.422995	-0.00189836	6	1.69155e-05	14	0	2.6463	-8.02995e-07
2	1	0	1	0	1	113.059	0.419278	0.419011	-0.000846919	6	1.64073e-05	14	0	3.0458	-3.54868e-07
2	0	0	1	0	1	113.458	0.415284	0.415004	-0.000876123	6	1.58919e-05	14	0	3.4453	-3.63595e-07
2	0	0	1	0	1	113.858	0.411289	0.411031	-0.00199644	6	1.53639e-05	14	0	3.8447	-8.20601e-07
2	1	0	1	0	1	114.257	0.407295	0.407023	-0.00129819	6	1.48236e-05	14	0	4.2441	-5.28392e-07
2	0	0	1	0	1	114.657	0.4033	0.402969	-0.000642068	6	1.42727e-05	14	0	4.6436	-2.58734e-07
2	0	0	1	0	1	115.056	0.399306	0.398949	-0.00178019	6	1.37148e-05	14	0	5.0431	-7.10206e-07
2	1	0	1	0	1	115.456	0.395312	0.394995	-0.00183731	6	1.31418e-05	14	0	5.4425	-7.25729e-07
2	0	0	1	0	1	115.855	0.391317	0.391019	-0.000673799	6	1.25645e-05	14	0	5.8419	-2.63469e-07
2	0	0	1	0	1	116.255	0.387322	0.386969	-0.00129036	6	1.19769e-05	14	0	6.2414	-4.99329e-07
2	0	0	1	0	1	116.654	0.383329	0.383024	-0.00219924	6	1.1375e-05	14	0	6.6408	-8.42362e-07
2	1	0	1	0	1	117.053	0.379334	0.37909	-0.00110725	6	1.07614e-05	14	0	7.0403	-4.19747e-07
2	0	0	1	0	1	117.453	0.375339	0.375078	-0.000851802	6	1.01375e-05	14	0	7.4397	-3.19492e-07
2	0	0	1	0	1	117.852	0.371345	0.37104	-0.00206741	6	9.50036e-06	14	0	7.8391	-7.6709e-07
2	0	0	1	0	1	118.252	0.36735	0.367045	-0.0022316	6	8.84628e-06	14	0	8.2386	-8.19097e-07
2	1	0	1	0	1	118.651	0.363356	0.363104	-0.000929378	6	8.18391e-06	14	0	8.6381	-3.37461e-07
2	0	0	1	0	1	119.051	0.359361	0.359073	-0.00106961	6	7.50909e-06	14	0	9.0375	-3.84068e-07
2	0	0	1	0	1	119.45	0.355367	0.355032	-0.00247414	6	6.81984e-06	14	0	9.4369	-8.78401e-07
2	0	0	1	0	1	119.85	0.351372	0.351107	-0.0020738	6	6.11229e-06	14	0	9.8364	-7.28127e-07
2	1	0	1	0	0	120.117	0.351322	0.351087	0.000560299	7	6.04626e-06	14	0	0.1274	1.96714e-07
2	1	0	1	0	0	120.516	0.355317	0.355092	0.00211601	7	6.65792e-06	14	0	0.5269	7.51379e-07
2	1	0	1	0	0	120.916	0.359311	0.359024	0.00220492	7	7.29825e-06	14	0	0.9263	7.91618e-07
2	1	0	1	0	0	121.315	0.363306	0.363061	0.000838662	7	7.94444e-06	14	0	1.3257	3.04486e-07
2	1	0	1	0	0	121.715	0.3673	0.367062	0.00121517	7	8.58446e-06	14	0	1.7252	4.46044e-07
2	1	0	1	0	0	122.114	0.371295	0.371072	0.00243228	7	9.22702e-06	14	0	2.1247	9.02552e-07
2	1	0	1	0	0	122.513	0.375289	0.375063	0.00188133	7	9.86721e-06	14	0	2.5241	7.05616e-07
2	1	0	1	0	0	122.913	0.379284	0.379029	0.000764842	7	1.04993e-05	14	0	2.9235	2.89898e-07
2	1	0	1	0	0	123.312	0.383279	0.383031	0.00152929	7	1.11222e-05	14	0	3.323	5.85766e-07
2	1	0	1	0	0	123.712	0.387272	0.387064	0.00236225	7	1.17434e-05	14	0	3.7224	9.14343e-07
2	1	0	1	0	0	124.111	0.391267	0.391008	0.00150398	7	1.23574e-05	14	0	4.1219	5.88068e-07
2	1	0	1	0	0	124.511	0.395262	0.395008	0.000763237	7	1.29622e-05	14	0	4.5213	3.01485e-07
2	1	0	1	0	0	124.91	0.399256	0.399021	0.001553	7	1.356e-05	14	0	4.9207	6.19681e-07
2	1	0	1	0	0	125.31	0.40325	0.402987	0.00223044	7	1.41551e-05	14	0	5.3202	8.98837e-07
2	1	0	1	0	0	125.709	0.407245	0.407032	0.00142497	7	1.47468e-05	14	0	5.7197	5.8001e-07
2	1	0	1	0	0	126.108	0.411239	0.411032	0.00071454	7	1.53248e-05	14	0	6.1191	2.93699e-07
2	1	0	1	0	0	126.508	0.415234	0.415072	0.0015124	7	1.58974e-05	14	0	6.5185	6.27755e-07
2	1	0	1	0	0	126.907	0.419228	0.419014	0.00205626	7	1.64671e-05	14	0	6.918	8.61602e-07
2	0	0	1	0	0	127.307	0.423223	0.422938	0.00109973	7	1.70304e-05	14	0	7.3175	4.65117e-07
2	1	0	1	0	0	127.706	0.427217	0.426981	0.000749808	7	1.75844e-05	14	0	7.7169	3.20154e-07
2	1	0	1	0	0	128.106	0.431212	0.430942	0.00170356	7	1.8135e-05	14	0	8.1163	7.34137e-07
2	1	0	1	0	0	128.505	0.435207	0.434975	0.00184856	7	1.86831e-05	14	0	8.5158	8.04077e-07
2	0	0	1	0	0	128.905	0.4392	0.438961	0.000846214	7	1.92246e-05	14	0	8.9152	3.71455e-07
2	1	0	1	0	0	129.304	0.443195	0.442965	0.000812801	7	1.9758e-05	14	0	9.3147	3.60043e-07
2	1	0	1	0	0	129.703	0.44719	0.446951	0.00170735	7	2.0289e-05	14	0	9.7141	7.63102e-07
2	0	0	1	0	0	130.01	0.449737	0.449474	-0.000733997	7	2.06417e-05	14	0	0.0274	-3.29912e-07
2	0	0	1	0	0	130.409	0.445742	0.445447	-0.00169069	7	2.02467e-05	14	0	0.4269	-7.53115e-07
2	0	0	1	0	0	130.809	0.441747	0.441473	-0.00118882	7	1.98117e-05	14	0	0.8263	-5.24832e-07
2	0	0	1	0	0	131.208	0.437753	0.437476	-0.000498682	7	1.93622e-05	14	0	1.2257	-2.18161e-07
2	0	0	1	0	0	131.608	0.433759	0.433473	-0.00122254	7	1.88986e-05	14	0	1.6252	-5.29941e-07
2	0	0	1	0	0	132.007	0.429764	0.429484	-0.00189891	7	1.84198e-05	14	0	2.0247	-8.15549e-07
2	0	0	1	0	0	132.406	0.425769	0.425499	-0.00112852	7	1.79305e-05	14	0	2.4241	-4.80184e-07
2	0	0	1	0	0	132.806	0.421775	0.421516	-0.000639074	7	1.7432e-05	14	0	2.8235	-2.6938e-07
2	0	0	1	0	0	133.205	0.41778	0.417519	-0.00161328	7	1.69233e-05	14	0	3.223	-6.73576e-07
2	0	0	1	0	0	133.605	0.413786	0.413518	-0.00191165	7	1.63998e-05	14	0	3.6225	-7.905e-07
2	0	0	1	0	0	134.004	0.409791	0.409544	-0.000924438	7	1.58684e-05	14	0	4.0219	-3.78598e-07
2	0	0	1	0	0	134.404	0.405797	0.405475	-0.000924485	7	1.53275e-05	14	0	4.4213	-3.74856e-07
2	0	0	1	0	0	134.803	0.401802	0.401491	-0.00198668	7	1.47777e-05	14	0	4.8208	-7.97633e-07
2	0	0	1	0	0	135.203	0.397809	0.397525	-0.00199304	7	1.42121e-05	14	0	5.2202	-7.92286e-07
2	0	0	1	0	0	135.602	0.393814	0.393512	-0.000858687	7	1.36412e-05	14	0	5.6197	-3.37904e-07
2	0	0	1	0	0	136.001	0.389819	0.389508	-0.00110027	7	1.30602e-05	14	0	6.0191	-4.28563e-07
2	0	0	1	0	0	136.401	0.385825	0.385492	-0.00224512	7	1.24657e-05	14	0	6.4185	-8.65477e-07
2	0	0	1	0	0	136.8	0.381831	0.381578	-0.00194371	7	1.18558e-05	14	0	6.818	-7.41676e-07
2	0	0	1	0	0	137.2	0.377836	0.377568	-0.00077172	7	1.124e-05	14	0	7.2175	-2.91377e-07
2	0	0	1	0	0	137.599	0.373841	0.373541	-0.00135779	7	1.06124e-05	14	0	7.6169	-5.07192e-07
2	0	0	1	0	0	137.999	0.369847	0.36957	-0.00246148	7	9.97029e-06	14	0	8.0163	-9.0969e-07
2	1	0	1	0	0	138.398	0.365852	0.365624	-0.0017108	7	9.31323e-06	14	0	8.4158	-6.25512e-07
2	0	0	1	0	0	138.798	0.361858	0.36156	-0.000761609	7	8.64795e-06	14	0	8.8153	-2.75368e-07
2	0	0	1	0	0	139.197	0.357864	0.357556	-0.00167543	7	7.96847e-06	14	0	9.2147	-5.99059e-07
2	0	0	1	0	0	139.596	0.353869	0.353575	-0.00265348	7	7.27133e-06	14	0	9.6141	-9.38205e-07
2	1	0	1	0	0	139.976	0.350074	0.349801	4.02333e-05	7	6.60273e-06	14	0	9.9937	1.40736e-08
2	1	0	1	0	1	140.263	0.35282	0.352619	0.000751529	8	6.9804e-06	14	0	0.2497	2.65004e-07
2	1	0	1	0	1	140.663	0.356815	0.356606	0.00218896	8	7.61029e-06	14	0	0.6492	7.80597e-07
2	1	0	1	0	1	141.062	0.360809	0.360557	0.00211364	8	8.25433e-06	14	0	1.0486	7.62088e-07
2	1	0	1	0	1	141.461	0.364804	0.364588	0.000817542	8	8.90199e-06	14	0	1.448	2.98066e-07
2	1	0	1	0	1	141.861	0.368799	0.368562	0.00123147	8	9.54326e-06	14	0	1.8475	4.53874e-07
2	1	0	1	0	1	142.26	0.372793	0.372611	0.0024063	8	1.01847e-05	14	0	2.247	8.96617e-07
2	1	0	1	0	1	142.66	0.376787	0.376578	0.00183498	8	1.08209e-05	14	0	2.6464	6.91015e-07
2	1	0	1	0	1	143.059	0.380782	0.380535	0.00075295	8	1.14493e-05	14	0	3.0458	2.86523e-07
2	1	0	1	0	1	143.459	0.384777	0.384544	0.00165924	8	1.20712e-05	14	0	3.4453	6.3805e-07
2	1	0	1	0	1	143.858	0.38877	0.388521	0.00214645	8	1.26893e-05	14	0	3.8447	8.33939e-07
2	1	0	1	0	1	144.258	0.392765	0.392492	0.000879217	8	1.3301e-05	14	0	4.2442	3.45085e-07
2	1	0	1	0	1	144.657	0.39676	0.396509	0.0013765	8	1.39007e-05	14	0	4.6436	5.45794e-07
2	1	0	1	0	1	145.056	0.400754	0.400496	0.00225589	8	1.44994e-05	14	0	5.043	9.03474e-07
2	1	0	1	0	1	145.456	0.404748	0.404481	0.00109167	8	1.50917e-05	14	0	5.4425	4.4156e-07
2	1	0	1	0	1	145.855	0.408743	0.40854	0.00108144	8	1.56754e-05	14	0	5.842	4.41811e-07
2	1	0	1	0	1	146.255	0.412737	0.412548	0.00216614	8	1.62539e-05	14	0	6.2414	8.93637e-07
2	1	0	1	0	1	146.654	0.416732	0.416486	0.00110808	8	1.68264e-05	14	0	6.6408	4.61497e-07
2	1	0	1	0	1	147.054	0.420727	0.420525	0.00102364	8	1.73879e-05	14	0	7.0403	4.30466e-07
2	1	0	1	0	1	147.453	0.424721	0.424507	0.00208421	8	1.79475e-05	14	0	7.4398	8.84762e-07
2	1	0	1	0	1	147.853	0.428715	0.428427	0.00136864	8	1.85012e-05	14	0	7.8392	5.86364e-07
2	1	0	1	0	1	148.252	0.43271	0.43248	0.000804057	8	1.90471e-05	14	0	8.2386	3.47739e-07
2	1	0	1	0	1	148.652	0.436705	0.4365	0.00176382	8	1.95893e-05	14	0	8.6381	7.69905e-07
2	1	0	1	0	1	149.051	0.440698	0.440527	0.00173494	8	2.01281e-05	14	0	9.0375	7.64286e-07
2	1	0	1	0	1	149.45	0.444693	0.444467	0.00070683	8	2.06599e-05	14	0	9.437	3.14162e-07
2	1	0	1	0	1	149.85	0.448687	0.448487	0.00133101	8	2.11853e-05	14	0	9.8364	5.9694e-07
2	0	0	1	0	1	150.156	0.448239	0.447958	-0.000599581	8	2.12028e-05	14	0	0.1498	-2.68587e-07
2	0	0	1	0	1	150.556	0.444244	0.444001	-0.00167431	8	2.07906e-05	14	0	0.5493	-7.43394e-07
2	1	0	1	0	1	150.955	0.440249	0.440007	-0.00101767	8	2.03486e-05	14	0	0.9487	-4.47783e-07
2	0	0	1	0	1	151.354	0.436255	0.435974	-0.000618406	8	1.98927e-05	14	0	1.3481	-2.69609e-07
2	0	0	1	0	1	151.754	0.43226	0.431994	-0.00175072	8	1.94232e-05	14	0	1.7476	-7.56302e-07
2	1	0	1	0	1	152.153	0.428266	0.428022	-0.00141827	8	1.8938e-05	14	0	2.1471	-6.07051e-07
2	0	0	1	0	1	152.553	0.424271	0.423978	-0.000521953	8	1.84458e-05	14	0	2.5465	-2.21297e-07
2	0	0	1	0	1	152.952	0.420277	0.420005	-0.00118815	8	1.79443e-05	14	0	2.9459	-4.9903e-07
2	0	0	1	0	1	153.352	0.416282	0.416015	-0.00195615	8	1.74294e-05	14	0	3.3454	-8.13788e-07
2	1	0	1	0	1	153.751	0.412288	0.412016	-0.000926697	8	1.69047e-05	14	0	3.7449	-3.81814e-07
2	0	0	1	0	1	154.151	0.408294	0.408005	-0.000864661	8	1.63727e-05	14	0	4.1443	-3.52786e-07
2	0	0	1	0	1	154.55	0.404299	0.403962	-0.00201465	8	1.58263e-05	14	0	4.5437	-8.13843e-07
2	1	0	1	0	1	154.95	0.400304	0.400057	-0.00161489	8	1.52683e-05	14	0	4.9432	-6.46046e-07
2	0	0	1	0	1	155.349	0.396311	0.395997	-0.000647596	8	1.47049e-05	14	0	5.3426	-2.56446e-07
2	0	0	1	0	1	155.748	0.392316	0.392024	-0.0016163	8	1.41315e-05	14	0	5.7421	-6.33628e-07
2	0	0	1	0	1	156.148	0.388321	0.388063	-0.00214171	8	1.35421e-05	14	0	6.1415	-8.31118e-07
2	0	0	1	0	1	156.547	0.384327	0.384045	-0.000984775	8	1.2945e-05	14	0	6.5409	-3.78198e-07
2	0	0	1	0	1	156.947	0.380332	0.380034	-0.00111563	8	1.23386e-05	14	0	6.9404	-4.23976e-07
2	0	0	1	0	1	157.346	0.376338	0.376029	-0.00235782	8	1.17186e-05	14	0	7.3399	-8.86608e-07
2	0	0	1	0	1	157.746	0.372343	0.372087	-0.00176607	8	1.10819e-05	14	0	7.7393	-6.5713e-07
2	0	0	1	0	1	158.145	0.368349	0.368083	-0.000786384	8	1.0438e-05	14	0	8.1387	-2.89455e-07
2	0	0	1	0	1	158.545	0.364354	0.364046	-0.00189377	8	9.78254e-06	14	0	8.5382	-6.89419e-07
2	0	0	1	0	1	158.944	0.36036	0.360111	-0.00253427	8	9.10799e-06	14	0	8.9377	-9.12619e-07
2	0	0	1	0	1	159.343	0.356366	0.356081	-0.00124346	8	8.42309e-06	14	0	9.3371	-4.42773e-07
2	0	0	1	0	1	159.743	0.352371	0.352079	-0.00121981	8	7.72746e-06	14	0	9.7365	-4.29471e-07
2	1	0	1	0	0	160.01	0.350324	0.350105	0.00245582	9	7.3401e-06	14	0	0.000000000000000E+000	8.59793e-07
2	1	0	1	0	0	160.41	0.354318	0.354052	0.00159586	9	7.94263e-06	14	0	0.3995	5.65017e-07
2	1	0	1	0	0	160.809	0.358313	0.358044	0.000763737	9	8.57282e-06	14	0	0.799	2.73451e-07
2	1	0	1	0	0	161.208	0.362307	0.362088	0.00191784	9	9.21436e-06	14	0	1.1984	6.94428e-07
2	1	0	1	0	0	161.608	0.366302	0.366094	0.00238498	9	9.86019e-06	14	0	1.5978	8.73127e-07
2	1	0	1	0	0	162.007	0.370297	0.370048	0.00100915	9	1.05032e-05	14	0	1.9973	3.73433e-07
2	1	0	1	0	0	162.407	0.37429	0.37409	0.00118849	9	1.11355e-05	14	0	2.3967	4.44603e-07
2	1	0	1	0	0	162.806	0.378285	0.378051	0.00242579	9	1.17683e-05	14	0	2.7962	9.17074e-07
2	1	0	1	0	0	163.206	0.38228	0.382008	0.00178466	9	1.2396e-05	14	0	3.1956	6.81754e-07
2	1	0	1	0	0	163.605	0.386274	0.385978	0.000784281	9	1.30144e-05	14	0	3.595	3.02716e-07
2	1	0	1	0	0	164.005	0.390268	0.390014	0.0017539	9	1.36252e-05	14	0	3.9945	6.84046e-07
2	1	0	1	0	0	164.404	0.394263	0.394031	0.00219913	9	1.42324e-05	14	0	4.394	8.66523e-07
2	1	0	1	0	0	164.803	0.398257	0.397981	0.00100738	9	1.48323e-05	14	0	4.7934	4.00919e-07
2	1	0	1	0	0	165.203	0.402252	0.402033	0.000970353	9	1.54199e-05	14	0	5.1928	3.90114e-07
2	1	0	1	0	0	165.602	0.406246	0.405983	0.00211516	9	1.60082e-05	14	0	5.5923	8.58721e-07
2	1	0	1	0	0	166.002	0.410241	0.410027	0.0017986	9	1.65917e-05	14	0	5.9918	7.37476e-07
2	1	0	1	0	0	166.401	0.414235	0.414042	0.000728843	9	1.7166e-05	14	0	6.3912	3.01772e-07
2	1	0	1	0	0	166.801	0.41823	0.418074	0.00130027	9	1.77316e-05	14	0	6.7906	5.4361e-07
2	1	0	1	0	0	167.2	0.422225	0.422015	0.00206545	9	1.82957e-05	14	0	7.1901	8.71651e-07
2	0	0	1	0	0	167.6	0.426219	0.425912	0.0012175	9	1.8854e-05	14	0	7.5896	5.18547e-07
2	1	0	1	0	0	167.999	0.430213	0.429962	0.00075406	9	1.94018e-05	14	0	7.989	3.24217e-07
2	1	0	1	0	0	168.398	0.434208	0.433981	0.00169526	9	1.99468e-05	14	0	8.3884	7.3571e-07
2	0	0	1	0	0	168.798	0.438203	0.438001	0.00179849	9	2.0488e-05	14	0	8.7879	7.87742e-07
2	0	0	1	0	0	169.197	0.442196	0.441925	0.000803552	9	2.10238e-05	14	0	9.1873	3.55109e-07
2	1	0	1	0	0	169.597	0.446191	0.44595	0.000925715	9	2.15509e-05	14	0	9.5868	4.12822e-07
2	1	0	0	0	0	169.974	0.449961	0.449641	0.00120349	9	2.20357e-05	14	0	9.9637	5.4114e-07
2	0	0	1	0	0	170.303	0.446741	0.446436	-0.00129339	9	2.17447e-05	14	0	0.2996	-5.77414e-07
2	0	0	1	0	0	170.702	0.442746	0.442458	-0.00164191	9	2.13173e-05	14	0	0.6991	-7.26477e-07
2	0	0	1	0	0	171.101	0.438751	0.438441	-0.000794872	9	2.08711e-05	14	0	1.0985	-3.48505e-07
2	0	0	1	0	0	171.501	0.434757	0.434483	-0.000733799	9	2.04107e-05	14	0	1.4979	-3.18823e-07
2	0	0	1	0	0	171.9	0.430762	0.43049	-0.00177366	9	1.99366e-05	14	0	1.8974	-7.63545e-07
2	0	0	1	0	0	172.3	0.426768	0.426455	-0.00158497	9	1.94474e-05	14	0	2.2969	-6.7592e-07
2	0	0	1	0	0	172.699	0.422774	0.422472	-0.000623298	9	1.89514e-05	14	0	2.6963	-2.63326e-07
2	0	0	1	0	0	173.099	0.418779	0.418447	-0.00140525	9	1.84466e-05	14	0	3.0957	-5.88022e-07
2	0	0	1	0	0	173.498	0.414784	0.414478	-0.00198374	9	1.79282e-05	14	0	3.4952	-8.22216e-07
2	0	0	1	0	0	173.898	0.410791	0.410501	-0.000786045	9	1.74017e-05	14	0	3.8946	-3.22673e-07
2	0	0	1	0	0	174.297	0.406796	0.406507	-0.0013995	9	1.68652e-05	14	0	4.2941	-5.68905e-07
2	0	0	1	0	0	174.696	0.402801	0.40253	-0.00214458	9	1.63118e-05	14	0	4.6935	-8.6326e-07
2	0	0	1	0	0	175.096	0.398807	0.398493	-0.0011123	9	1.57527e-05	14	0	5.0929	-4.43243e-07
2	0	0	1	0	0	175.495	0.394813	0.394497	-0.0010202	9	1.51864e-05	14	0	5.4924	-4.02466e-07
2	0	0	1	0	0	175.895	0.390818	0.390443	-0.00229247	9	1.46093e-05	14	0	5.8919	-8.95077e-07
2	0	0	1	0	0	176.294	0.386823	0.386565	-0.00163387	9	1.40173e-05	14	0	6.2913	-6.31595e-07
2	0	0	1	0	0	176.694	0.382829	0.382515	-0.00083719	9	1.34182e-05	14	0	6.6907	-3.20238e-07
2	0	0	1	0	0	177.093	0.378834	0.378591	-0.00210575	9	1.28083e-05	14	0	7.0902	-7.97218e-07
2	0	0	1	0	0	177.493	0.37484	0.37456	-0.00218591	9	1.21812e-05	14	0	7.4897	-8.18753e-07
2	0	0	1	0	0	177.892	0.370846	0.37057	-0.000869335	9	1.15446e-05	14	0	7.8891	-3.2215e-07
2	0	0	1	0	0	178.291	0.366851	0.366561	-0.00163725	9	1.08991e-05	14	0	8.2885	-6.00153e-07
2	0	0	1	0	0	178.691	0.362856	0.362545	-0.00256992	9	1.02338e-05	14	0	8.688	-9.3171e-07
2	0	0	1	0	0	179.09	0.358863	0.358583	-0.0012382	9	9.55807e-06	14	0	9.0874	-4.43997e-07
2	0	0	1	0	0	179.49	0.354868	0.354563	-0.00117129	9	8.87042e-06	14	0	9.4869	-4.15294e-07
2	0	0	1	0	0	179.889	0.350873	0.350535	-0.00265316	9	8.16694e-06	14	0	9.8863	-9.30027e-07
2	0	0	1	0	1	180.156	0.351822	0.351582	0.00146291	10	8.2585e-06	14	0	0.1498	5.14332e-07
2	1	0	1	0	1	180.556	0.355817	0.355596	0.00076695	10	8.87217e-06	14	0	0.5493	2.72724e-07
2	1	0	1	0	1	180.955	0.359811	0.359596	0.00230369	10	9.51001e-06	14	0	0.9488	8.28399e-07
2	0	0	1	0	1	181.355	0.363805	0.363589	0.00182296	10	1.01554e-05	14	0	1.3482	6.6281e-07
2	1	0	1	0	1	181.754	0.3678	0.367552	0.000719699	10	1.07974e-05	14	0	1.7476	2.64527e-07
2	1	0	1	0	1	182.154	0.371795	0.371538	0.00191192	10	1.14353e-05	14	0	2.1471	7.1035e-07
2	1	0	1	0	1	182.553	0.375788	0.375614	0.00229119	10	1.20713e-05	14	0	2.5465	8.60601e-07
2	0	0	1	0	1	182.953	0.379783	0.379567	0.000998012	10	1.27028e-05	14	0	2.946	3.78812e-07
2	1	0	1	0	1	183.352	0.383778	0.383504	0.00110112	10	1.3322e-05	14	0	3.3454	4.22284e-07
2	1	0	1	0	1	183.751	0.387772	0.387503	0.0023043	10	1.39394e-05	14	0	3.7448	8.92921e-07
2	0	0	1	0	1	184.151	0.391766	0.391493	0.00142835	10	1.45509e-05	14	0	4.1443	5.59187e-07
2	1	0	1	0	1	184.55	0.395761	0.39552	0.000817888	10	1.51519e-05	14	0	4.5438	3.23491e-07
2	1	0	1	0	1	184.95	0.399755	0.39949	0.00198981	10	1.57476e-05	14	0	4.9432	7.94911e-07
2	1	0	1	0	1	185.349	0.40375	0.403507	0.00181173	10	1.63394e-05	14	0	5.3426	7.31044e-07
2	1	0	1	0	1	185.749	0.407745	0.407545	0.000724654	10	1.69264e-05	14	0	5.7421	2.95329e-07
2	1	0	1	0	1	186.148	0.411739	0.411538	0.0014309	10	1.75012e-05	14	0	6.1416	5.8887e-07
2	1	0	1	0	1	186.548	0.415733	0.415515	0.00204389	10	1.80728e-05	14	0	6.541	8.49265e-07
2	1	0	1	0	1	186.947	0.419728	0.419487	0.000982423	10	1.86388e-05	14	0	6.9404	4.12114e-07
2	1	0	1	0	1	187.347	0.423723	0.423463	0.000915517	10	1.91938e-05	14	0	7.3399	3.87687e-07
2	1	0	1	0	1	187.746	0.427716	0.427497	0.00196405	10	1.97467e-05	14	0	7.7393	8.39626e-07
2	1	0	1	0	1	188.145	0.431711	0.43151	0.00162933	10	2.0295e-05	14	0	8.1388	7.03072e-07
2	1	0	1	0	1	188.545	0.435706	0.435487	0.000745554	10	2.08367e-05	14	0	8.5382	3.24679e-07
2	1	0	1	0	1	188.944	0.4397	0.439471	0.00138812	10	2.13704e-05	14	0	8.9376	6.10039e-07
2	1	0	1	0	1	189.344	0.443694	0.443471	0.00200296	10	2.19035e-05	14	0	9.3371	8.88255e-07
2	1	0	1	0	1	189.743	0.447689	0.447433	0.00104226	10	2.24314e-05	14	0	9.7366	4.66343e-07
2	0	0	1	0	1	190.049	0.449237	0.448971	-0.00107993	10	2.2663e-05	14	0	0.0773	-4.84859e-07
2	0	0	1	0	1	190.449	0.445242	0.444947	-0.00050394	10	2.22651e-05	14	0	0.4768	-2.24227e-07
2	0	0	1	0	1	190.848	0.441248	0.440988	-0.00138438	10	2.18337e-05	14	0	0.8763	-6.10496e-07
2	0	0	1	0	1	191.248	0.437253	0.436956	-0.00169098	10	2.13785e-05	14	0	1.2757	-7.38886e-07
2	0	0	1	0	1	191.647	0.433259	0.433017	-0.000710099	10	2.09129e-05	14	0	1.6751	-3.07485e-07
2	0	0	1	0	1	192.047	0.429264	0.428939	-0.000996791	10	2.04357e-05	14	0	2.0746	-4.27562e-07
2	0	0	1	0	1	192.446	0.425271	0.424937	-0.0019457	10	1.99466e-05	14	0	2.474	-8.26801e-07
2	0	0	1	0	1	192.846	0.421276	0.421013	-0.00129327	10	1.94437e-05	14	0	2.8735	-5.44483e-07
2	0	0	1	0	1	193.245	0.417281	0.416994	-0.000648302	10	1.89349e-05	14	0	3.2729	-2.70338e-07
2	0	0	1	0	1	193.645	0.413286	0.413029	-0.00154661	10	1.84165e-05	14	0	3.6724	-6.38797e-07
2	0	0	1	0	1	194.044	0.409293	0.409007	-0.00192452	10	1.78829e-05	14	0	4.0718	-7.87142e-07
2	0	0	1	0	1	194.443	0.405298	0.404975	-0.000800084	10	1.73396e-05	14	0	4.4713	-3.24014e-07
2	0	0	1	0	1	194.843	0.401303	0.401029	-0.00107709	10	1.67905e-05	14	0	4.8707	-4.31945e-07
2	0	0	1	0	1	195.242	0.397309	0.396992	-0.00215721	10	1.62288e-05	14	0	5.2701	-8.56395e-07
2	1	0	1	0	1	195.642	0.393314	0.393014	-0.00152621	10	1.56556e-05	14	0	5.6696	-5.99823e-07
2	0	0	1	0	1	196.041	0.38932	0.388946	-0.000691154	10	1.50741e-05	14	0	6.0691	-2.68822e-07
2	0	0	1	0	1	196.441	0.385325	0.385018	-0.00167818	10	1.44819e-05	14	0	6.4685	-6.4613e-07
2	0	0	1	0	1	196.84	0.381331	0.381	-0.00229161	10	1.38738e-05	14	0	6.8679	-8.73104e-07
2	1	0	1	0	1	197.24	0.377336	0.377062	-0.0012356	10	1.32567e-05	14	0	7.2674	-4.65897e-07
2	0	0	1	0	1	197.639	0.373342	0.37308	-0.000863531	10	1.26301e-05	14	0	7.6669	-3.22166e-07
2	0	0	1	0	1	198.038	0.369348	0.36902	-0.0022266	10	1.19908e-05	14	0	8.0663	-8.21662e-07
2	1	0	1	0	1	198.438	0.365353	0.365093	-0.00206649	10	1.13322e-05	14	0	8.4657	-7.54461e-07
2	0	0	1	0	1	198.837	0.361358	0.361064	-0.000789597	10	1.06659e-05	14	0	8.8652	-2.85095e-07
2	0	0	1	0	1	199.237	0.357365	0.357062	-0.00166822	10	9.98751e-06	14	0	9.2646	-5.95659e-07
2	0	0	1	0	1	199.636	0.35337	0.353083	-0.00265781	10	9.28999e-06	14	0	9.6641	-9.38428e-07
2	0	0	0	0	1	199.971	0.35	0.349705	-0.00360995	10	8.70018e-06	14	0	9.9986	-1.26242e-06