File: ACS_Catal_2026/Figures_Na_K/main_figures/data/EC/20251112_2-148_alpha_reproducibility/20251112_2-148_002_alpha_reproducibility_2_K1_01_CVA_C02.mpt
EC-Lab ASCII FILE
Nb header lines : 66

Cyclic Voltammetry Advanced

Run on channel : 2 (SN 69290)
User :
CE vs. WE compliance from -10 V to 10 V
Electrode connection : standard
Potential control : Ewe
Ewe ctrl range : min = -1.00 V, max = 1.00 V
Safety Limits :
	Do not start on E overload
Acquisition started on : 11/12/2025 13:25:42.107
Loaded Setting File :  C:\Users\User\Documents\EC-Lab\Data\Yatsuzuka\20251112_2-148_alpha_reproducibility\20251112_2-148_002_alpha_reproducibility_2_K1.mps
Saved on :
	File : 20251112_2-148_002_alpha_reproducibility_2_K1_01_CVA_C02.mpr
	Directory : C:\Users\User\Documents\EC-Lab\Data\Yatsuzuka\20251112_2-148_alpha_reproducibility\
	Host : 192.109.209.127
Device : SP-150e (SN .003883)
Address : 192.109.209.128
EC-LAB for windows v11.52 (software)
Internet server v11.52 (firmware)
Command interpretor v11.50 (firmware)
Electrode material :
Initial state :
Electrolyte :
Comments :
Electrode surface area : 0.001 cm2
Characteristic mass : 0.001 g
Equivalent Weight : 0.000 g/eq.
Density : 0.000 g/cm3
Volume (V) : 0.001 cm3
Cycle Definition : Charge/Discharge alternance
Ei (V)              0.350
vs.                 Ref
ti (h:m:s)          0:00:10.0000
dti (s)             0.0000
dE/dt               10.000
dE/dt unit          mV/s
E1 (V)              0.450
vs.                 Ref
t1 (h:m:s)          0:00:0.0000
dt1 (s)             0.1000
Step percent        50
N                   10
E range min (V)     -1.000
E range max (V)     1.000
I Range             Auto
I Range min         Unset
I Range max         Unset
I Range init        Unset
Bandwidth           5
E2 (V)              0.350
vs.                 Ref
t2 (h:m:s)          0:00:0.0000
dt2 (s)             0.1000
nc cycles           9
nr                  1
Reverse Scan        0
Ef (V)              0.000
vs.                 Eoc
tf (h:m:s)          0:00:0.0000
dtf (s)             0.1000

mode	ox/red	error	control changes	Ns changes	counter inc.	time/s	control/V	Ewe/V	<I>/mA	cycle number	(Q-Qo)/C	I Range	Ns	step time/s	Pwe/W	Rwe/Ohm
2	0	0	0	0	0	0.000000000000000E+000	0.349989	0.349724	-0.0169996	1	0.0000000E+000	13	0	0.000000000000000E+000	-5.94518e-06	20572.5
2	1	0	1	0	0	0.4071	0.354059	0.353542	0.0413093	1	1.66551e-05	12	0	0.3796	1.46046e-05	8558.4
2	1	0	1	0	0	0.8067	0.358054	0.357596	0.0521132	1	3.44892e-05	12	0	0.7792	1.86355e-05	6861.9
2	1	0	1	0	0	1.2061	0.36205	0.361577	0.0348972	1	5.22162e-05	12	0	1.1786	1.2618e-05	10361.2
2	1	0	1	0	0	1.6057	0.366045	0.365604	0.0515734	1	6.98236e-05	12	0	1.5782	1.88554e-05	7088.99
2	1	0	1	0	0	2.0052	0.37004	0.369569	0.0414104	1	8.75435e-05	12	0	1.9777	1.5304e-05	8924.55
2	1	0	1	0	0	2.4047	0.374036	0.373567	0.0408384	1	0.00010478	12	0	2.3772	1.52559e-05	9147.44
2	1	0	1	0	0	2.8043	0.378031	0.37758	0.0504898	1	0.000122178	12	0	2.7768	1.90639e-05	7478.34
2	1	0	1	0	0	3.2038	0.382026	0.381583	0.0330602	1	0.000139192	12	0	3.1763	1.26152e-05	11542
2	1	0	1	0	0	3.6033	0.386021	0.385576	0.0511341	1	0.000156014	12	0	3.5758	1.97161e-05	7540.49
2	1	0	1	0	0	4.0029	0.390017	0.389546	0.0367489	1	0.00017289	12	0	3.9754	1.43154e-05	10600.2
2	1	0	1	0	0	4.4024	0.394013	0.393607	0.0419153	1	0.000189266	12	0	4.3749	1.64982e-05	9390.54
2	1	0	1	0	0	4.8019	0.398007	0.397558	0.0460962	1	0.000205826	12	0	4.7744	1.83259e-05	8624.54
2	1	0	1	0	0	5.2164	0.402152	0.401705	0.046476	1	0.000222811	12	0	5.1889	1.86697e-05	8643.28
2	1	0	1	0	0	5.6609	0.406597	0.406178	0.046995	1	0.000241441	12	0	5.6334	1.90883e-05	8643
2	1	0	1	0	0	6.0604	0.410592	0.4101	0.0305751	1	0.000257201	12	0	6.0329	1.25389e-05	13412.9
2	1	0	1	0	0	6.4599	0.414587	0.414095	0.0472896	1	0.000272859	12	0	6.4324	1.95824e-05	8756.58
2	1	0	1	0	0	6.8745	0.418733	0.418321	0.0380325	1	0.000288968	12	0	6.847	1.59098e-05	10999
2	1	0	1	0	0	7.3489	0.423477	0.423011	0.0280842	1	0.000306669	13	0	7.3214	1.18799e-05	15062.2
2	1	0	1	0	0	7.7784	0.427773	0.427334	0.0309028	1	0.000323179	12	0	7.7509	1.32058e-05	13828.3
2	1	0	1	0	0	8.2379	0.432366	0.431892	0.0468498	1	0.000341162	12	0	8.2104	2.02341e-05	9218.66
2	1	0	1	0	0	8.6973	0.436961	0.436437	0.0287235	1	0.000358587	12	0	8.6698	1.2536e-05	15194.4
2	1	0	1	0	0	9.1268	0.441257	0.440814	0.0281434	1	0.000374311	13	0	9.0993	1.2406e-05	15663.1
2	1	0	1	0	0	9.5263	0.445251	0.444804	0.046542	1	0.000389041	13	0	9.4988	2.07021e-05	9557.05
2	1	0	1	0	0	9.9259	0.449246	0.448739	0.0317668	1	0.00040389	13	0	9.8984	1.4255e-05	14126.1
2	0	0	1	0	0	10.3361	0.446649	0.44614	-0.0314887	1	0.000401332	13	0	0.2298	-1.40484e-05	14168.2
2	0	0	1	0	0	10.7655	0.442355	0.44189	-0.0326041	1	0.000392251	12	0	0.6592	-1.44074e-05	13553.2
2	0	0	1	0	0	11.1951	0.43806	0.437553	-0.0360361	1	0.000382195	13	0	1.0888	-1.57677e-05	12142.1
2	0	0	1	0	0	11.5945	0.434064	0.433599	-0.018975	1	0.000371521	13	0	1.4882	-8.22754e-06	22851.1
2	0	0	1	0	0	12.0241	0.429769	0.429269	-0.0232962	1	0.000359166	12	0	1.9178	-1.00003e-05	18426.6
2	0	0	1	0	0	12.4236	0.425773	0.425278	-0.0274941	1	0.00034791	12	0	2.3173	-1.16926e-05	15468
2	0	0	1	0	0	12.8231	0.421779	0.421335	-0.0375613	1	0.00033601	12	0	2.7168	-1.58259e-05	11217.2
2	0	0	1	0	0	13.2526	0.417484	0.417032	-0.0389708	1	0.00032354	13	0	3.1463	-1.62521e-05	10701.1
2	0	0	1	0	0	13.6821	0.413189	0.412744	-0.0403646	1	0.000311069	12	0	3.5758	-1.66602e-05	10225.4
2	0	0	1	0	0	14.1116	0.408894	0.408434	-0.0427565	1	0.000296862	13	0	4.0053	-1.74632e-05	9552.55
2	0	0	1	0	0	14.5411	0.404599	0.404113	-0.0418787	1	0.000283538	12	0	4.4348	-1.69238e-05	9649.61
2	0	0	1	0	0	15.0005	0.400005	0.399542	-0.0249722	1	0.000267199	12	0	4.8942	-9.97747e-06	15999.5
2	0	0	1	0	0	15.4001	0.396009	0.395545	-0.0432191	1	0.000253415	12	0	5.2938	-1.70951e-05	9152.08
2	0	0	1	0	0	15.7996	0.392014	0.391569	-0.0308983	1	0.00023911	12	0	5.6933	-1.20988e-05	12672.8
2	0	0	1	0	0	16.1991	0.388019	0.387538	-0.0355439	1	0.000224829	12	0	6.0928	-1.37746e-05	10903.1
2	0	0	1	0	0	16.5987	0.384024	0.383565	-0.0438683	1	0.000209919	12	0	6.4924	-1.68264e-05	8743.56
2	0	0	1	0	0	16.9981	0.380028	0.379572	-0.0287138	1	0.000194883	12	0	6.8918	-1.0899e-05	13219.1
2	0	0	1	0	0	17.4426	0.375584	0.375132	-0.0445101	1	0.000177081	13	0	7.3363	-1.66972e-05	8428.03
2	0	0	1	0	0	17.9171	0.370839	0.37038	-0.0324073	1	0.000157884	12	0	7.8108	-1.2003e-05	11428.9
2	0	0	1	0	0	18.3166	0.366844	0.366368	-0.0506878	1	0.000141713	12	0	8.2103	-1.85704e-05	7227.93
2	0	0	1	0	0	18.7161	0.362849	0.362393	-0.0353745	1	0.000125142	12	0	8.6098	-1.28195e-05	10244.5
2	0	0	1	0	0	19.1157	0.358854	0.358394	-0.0429142	1	0.000108551	12	0	9.0094	-1.53802e-05	8351.4
2	0	0	1	0	0	19.5152	0.354857	0.354403	-0.0500791	1	9.13172e-05	12	0	9.4089	-1.77482e-05	7076.85
2	0	0	1	0	0	19.9147	0.350863	0.3504	-0.0352102	1	7.39192e-05	12	0	9.8084	-1.23377e-05	9951.67
2	1	0	1	0	1	20.181	0.351813	0.351364	0.0367994	2	7.48917e-05	12	0	0.0999	1.293e-05	9548.07
2	1	0	1	0	1	20.5805	0.355807	0.355388	0.0348737	2	9.03949e-05	12	0	0.4994	1.23937e-05	10190.7
2	1	0	1	0	1	20.9801	0.359802	0.359357	0.0502527	2	0.000106599	12	0	0.899	1.80587e-05	7151
2	1	0	1	0	1	21.3795	0.363798	0.363313	0.0336485	2	0.000123006	12	0	1.2984	1.2225e-05	10797.3
2	1	0	1	0	1	21.7791	0.367793	0.36735	0.0429792	2	0.000139146	12	0	1.698	1.57884e-05	8547.16
2	1	0	1	0	1	22.1786	0.371788	0.371328	0.0457678	2	0.000155568	12	0	2.0975	1.69949e-05	8113.31
2	1	0	1	0	1	22.5781	0.375783	0.375372	0.0316043	2	0.000171599	12	0	2.497	1.18634e-05	11877.2
2	1	0	1	0	1	22.9777	0.379779	0.379337	0.0487176	2	0.000187528	12	0	2.8966	1.84804e-05	7786.44
2	1	0	1	0	1	23.3772	0.383774	0.383318	0.0358472	2	0.000203459	12	0	3.2961	1.37409e-05	10693.1
2	1	0	1	0	1	23.8367	0.388369	0.387924	0.0452536	2	0.000221128	12	0	3.7556	1.75549e-05	8572.21
2	1	0	1	0	1	24.2361	0.392364	0.391949	0.0380198	2	0.000236746	12	0	4.155	1.49018e-05	10309.1
2	1	0	1	0	1	24.6357	0.396359	0.395889	0.0330238	2	0.000251892	12	0	4.5546	1.30738e-05	11988
2	1	0	1	0	1	25.0951	0.400954	0.4005	0.0395793	2	0.000268225	12	0	5.014	1.58515e-05	10118.9
2	1	0	1	0	1	25.4947	0.404949	0.40451	0.0295496	2	0.000283032	12	0	5.4136	1.19531e-05	13689.2
2	1	0	1	0	1	25.8942	0.408944	0.408434	0.0455386	2	0.00029774	12	0	5.8131	1.85995e-05	8968.97
2	1	0	1	0	1	26.2937	0.412939	0.412472	0.0285864	2	0.00031243	12	0	6.2126	1.17911e-05	14429
2	1	0	1	0	1	26.6933	0.416935	0.416479	0.0386008	2	0.000326766	12	0	6.6122	1.60764e-05	10789.4
2	1	0	1	0	1	27.0928	0.42093	0.420479	0.0385959	2	0.00034126	12	0	7.0117	1.62288e-05	10894.4
2	1	0	1	0	1	27.4923	0.424925	0.424475	0.0275148	2	0.000355352	12	0	7.4112	1.16794e-05	15427.1
2	1	0	1	0	1	27.8919	0.42892	0.428412	0.0434327	2	0.000369465	12	0	7.8108	1.86071e-05	9863.81
2	1	0	1	0	1	28.3513	0.433515	0.433027	0.0257162	2	0.000384716	12	0	8.2702	1.11358e-05	16838.6
2	1	0	1	0	1	28.7808	0.437811	0.437325	0.0248701	2	0.00039991	13	0	8.6997	1.08763e-05	17584.3
2	1	0	1	0	1	29.2103	0.442105	0.441579	0.0261894	2	0.000415134	12	0	9.1292	1.15647e-05	16861
2	1	0	1	0	1	29.6098	0.4461	0.445594	0.0390643	2	0.000428758	12	0	9.5287	1.74068e-05	11406.7
2	1	0	1	0	1	29.9918	0.449921	0.449429	0.0151978	2	0.000441864	12	0	9.9107	6.83035e-06	29572
2	0	0	1	0	1	30.3247	0.446749	0.446284	-0.0218436	2	0.000435997	12	0	0.2498	-9.74843e-06	20430.9
2	0	0	1	0	1	30.8141	0.441855	0.441392	-0.0168156	2	0.000422678	13	0	0.7392	-7.42226e-06	26249
2	0	0	1	0	1	31.2436	0.43756	0.437082	-0.021259	2	0.00041093	12	0	1.1687	-9.2919e-06	20559.9
2	0	0	1	0	1	31.6431	0.433565	0.433047	-0.0283521	2	0.00040011	12	0	1.5682	-1.22778e-05	15273.9
2	0	0	1	0	1	32.0427	0.42957	0.429079	-0.0332127	2	0.000388615	12	0	1.9678	-1.42509e-05	12919.1
2	0	0	1	0	1	32.5021	0.424975	0.4245	-0.0320508	2	0.000375063	12	0	2.4272	-1.36056e-05	13244.6
2	0	0	1	0	1	32.9016	0.42098	0.4205	-0.0328791	2	0.000362832	12	0	2.8267	-1.38257e-05	12789.3
2	0	0	1	0	1	33.3611	0.416385	0.415884	-0.0354581	2	0.000348333	12	0	3.2862	-1.47464e-05	11728.9
2	0	0	1	0	1	33.7905	0.41209	0.41156	-0.0416422	2	0.000334331	13	0	3.7156	-1.71383e-05	9883.24
2	0	0	1	0	1	34.2201	0.407795	0.407337	-0.0414188	2	0.000319739	12	0	4.1452	-1.68714e-05	9834.61
2	0	0	1	0	1	34.6795	0.403201	0.402723	-0.0266736	2	0.000303179	12	0	4.6046	-1.07421e-05	15098.2
2	0	0	1	0	1	35.109	0.398906	0.398435	-0.0352991	2	0.000288427	13	0	5.0341	-1.40644e-05	11287.4
2	0	0	1	0	1	35.5385	0.394611	0.394162	-0.0338025	2	0.000272859	12	0	5.4636	-1.33237e-05	11660.7
2	0	0	1	0	1	35.938	0.390617	0.390171	-0.0422673	2	0.000258406	12	0	5.8631	-1.64915e-05	9231.06
2	0	0	1	0	1	36.3375	0.386621	0.386118	-0.0282376	2	0.000243835	12	0	6.2626	-1.0903e-05	13673.9
2	0	0	1	0	1	36.7371	0.382625	0.382167	-0.0465888	2	0.000228961	12	0	6.6622	-1.78047e-05	8202.96
2	0	0	1	0	1	37.1366	0.37863	0.378187	-0.0336619	2	0.000213624	12	0	7.0617	-1.27305e-05	11234.9
2	0	0	1	0	1	37.5361	0.374635	0.374139	-0.0353581	2	0.000198249	12	0	7.4612	-1.32288e-05	10581.4
2	0	0	1	0	1	37.9357	0.37064	0.370159	-0.0495209	2	0.000182348	12	0	7.8608	-1.83306e-05	7474.79
2	0	0	1	0	1	38.3352	0.366643	0.366189	-0.0365459	2	0.000166037	12	0	8.2603	-1.33827e-05	10020
2	0	0	1	0	1	38.7347	0.362649	0.362191	-0.0413065	2	0.000149729	12	0	8.6598	-1.49608e-05	8768.37
2	0	0	1	0	1	39.1343	0.358654	0.358155	-0.043226	2	0.000132718	12	0	9.0594	-1.54816e-05	8285.64
2	0	0	1	0	1	39.5337	0.354658	0.354185	-0.044108	2	0.000115776	12	0	9.4588	-1.56224e-05	8029.95
2	0	0	1	0	1	39.9333	0.350663	0.350182	-0.0429939	2	9.80988e-05	12	0	9.8584	-1.50557e-05	8144.92
2	1	0	1	0	0	40.2295	0.352311	0.351863	0.0351624	3	0.000101632	12	0	0.1498	1.23723e-05	10006.8
2	1	0	1	0	0	40.6291	0.356307	0.355845	0.0422773	3	0.000117359	12	0	0.5494	1.50441e-05	8416.92
2	1	0	1	0	0	41.0285	0.360302	0.359782	0.0336939	3	0.000133187	12	0	0.9488	1.21225e-05	10678
2	1	0	1	0	0	41.4281	0.364297	0.363835	0.0501805	3	0.000149358	12	0	1.3484	1.82574e-05	7250.52
2	1	0	1	0	0	41.8276	0.368291	0.367829	0.0307735	3	0.000165474	12	0	1.7479	1.13194e-05	11952.8
2	1	0	1	0	0	42.2271	0.372288	0.371799	0.049207	3	0.000181432	12	0	2.1474	1.82951e-05	7555.81
2	1	0	1	0	0	42.6267	0.376283	0.375813	0.0305336	3	0.000197364	12	0	2.547	1.14749e-05	12308.2
2	1	0	1	0	0	43.0262	0.380278	0.379859	0.0481855	3	0.000212993	12	0	2.9465	1.83037e-05	7883.26
2	1	0	1	0	0	43.4857	0.384873	0.384428	0.0312166	3	0.00023009	12	0	3.406	1.20005e-05	12314.9
2	1	0	1	0	0	43.8852	0.388869	0.388414	0.0462393	3	0.000245502	12	0	3.8055	1.796e-05	8400.09
2	1	0	1	0	0	44.2847	0.392863	0.392428	0.0293239	3	0.000260626	12	0	4.205	1.15075e-05	13382.5
2	1	0	1	0	0	44.6843	0.396858	0.39642	0.0460738	3	0.000275676	12	0	4.6046	1.82646e-05	8604.04
2	1	0	1	0	0	45.0837	0.400854	0.400415	0.0280567	3	0.000290503	12	0	5.004	1.12343e-05	14271.6
2	1	0	1	0	0	45.4983	0.404999	0.404543	0.0404946	3	0.000305704	12	0	5.4186	1.63818e-05	9990.05
2	1	0	1	0	0	45.9128	0.409145	0.408663	0.0433516	3	0.000321203	13	0	5.8331	1.77162e-05	9426.71
2	1	0	1	0	0	46.3423	0.413439	0.412978	0.0413925	3	0.000337473	12	0	6.2626	1.70942e-05	9977.11
2	1	0	1	0	0	46.7717	0.417734	0.417241	0.0342189	3	0.00035315	13	0	6.692	1.42775e-05	12193.3
2	1	0	1	0	0	47.1713	0.421729	0.421314	0.0349722	3	0.000366973	13	0	7.0916	1.47343e-05	12047.1
2	1	0	1	0	0	47.6008	0.426025	0.425498	0.0360079	3	0.000382452	12	0	7.5211	1.53213e-05	11816.8
2	1	0	1	0	0	48.0303	0.430319	0.42987	0.0407722	3	0.000397474	13	0	7.9506	1.75268e-05	10543.2
2	1	0	1	0	0	48.4597	0.434614	0.434132	0.0383665	3	0.000412264	12	0	8.38	1.66561e-05	11315.4
2	1	0	1	0	0	48.8893	0.438909	0.438484	0.0420957	3	0.000426526	13	0	8.8096	1.84583e-05	10416.4
2	1	0	1	0	0	49.3487	0.443503	0.442987	0.0237736	3	0.000441421	13	0	9.269	1.05314e-05	18633.6
2	1	0	1	0	0	49.7782	0.447798	0.447373	0.0254088	3	0.000455869	12	0	9.6985	1.13672e-05	17607
2	0	0	1	0	0	50.1735	0.448248	0.447737	-0.0226646	3	0.000461474	12	0	0.065	-1.01478e-05	19754.9
2	0	0	1	0	0	50.5879	0.444102	0.443592	-0.0210135	3	0.000451972	13	0	0.4794	-9.32144e-06	21109.8
2	0	0	1	0	0	50.9875	0.440107	0.439625	-0.0347423	3	0.000441494	13	0	0.879	-1.52736e-05	12653.9
2	0	0	1	0	0	51.402	0.435962	0.435494	-0.0172724	3	0.000430254	13	0	1.2935	-7.52204e-06	25213.3
2	0	0	1	0	0	51.8465	0.431517	0.431005	-0.0388369	3	0.000418771	13	0	1.738	-1.67389e-05	11097.8
2	0	0	1	0	0	52.3359	0.426623	0.426158	-0.0387063	3	0.000404222	12	0	2.2274	-1.6495e-05	11010
2	0	0	1	0	0	52.7653	0.422328	0.421815	-0.0401875	3	0.000392148	13	0	2.6568	-1.69517e-05	10496.2
2	0	0	1	0	0	53.1949	0.418033	0.417593	-0.0345849	3	0.00037932	12	0	3.0864	-1.44424e-05	12074.5
2	0	0	1	0	0	53.6543	0.413439	0.412972	-0.0297207	3	0.000365232	12	0	3.5458	-1.22738e-05	13895.1
2	0	0	1	0	0	54.0539	0.409444	0.408958	-0.0266408	3	0.000352441	12	0	3.9454	-1.0895e-05	15350.8
2	0	0	1	0	0	54.4534	0.405447	0.405005	-0.0424832	3	0.00033926	12	0	4.3449	-1.72059e-05	9533.3
2	0	0	1	0	0	54.9129	0.400854	0.400386	-0.0256411	3	0.000323131	12	0	4.8044	-1.02663e-05	15615
2	0	0	1	0	0	55.3123	0.396858	0.396403	-0.0388089	3	0.000309434	12	0	5.2038	-1.5384e-05	10214.2
2	0	0	1	0	0	55.7119	0.392863	0.392431	-0.0412956	3	0.000295111	12	0	5.6034	-1.62057e-05	9502.96
2	0	0	1	0	0	56.1114	0.388868	0.388443	-0.0275344	3	0.000280748	12	0	6.0029	-1.06955e-05	14107.6
2	0	0	1	0	0	56.5109	0.384873	0.384409	-0.044802	3	0.000266093	12	0	6.4024	-1.72223e-05	8580.18
2	0	0	1	0	0	56.9105	0.380877	0.380443	-0.0357841	3	0.000250921	12	0	6.802	-1.36138e-05	10631.6
2	0	0	1	0	0	57.31	0.376882	0.376413	-0.0360393	3	0.000235764	12	0	7.2015	-1.35657e-05	10444.5
2	0	0	1	0	0	57.7095	0.372887	0.372412	-0.0465816	3	0.00021996	12	0	7.601	-1.73475e-05	7994.83
2	0	0	1	0	0	58.1091	0.368892	0.368435	-0.0320298	3	0.000204076	12	0	8.0006	-1.18009e-05	11502.9
2	0	0	1	0	0	58.5085	0.364896	0.364382	-0.0510013	3	0.000187776	12	0	8.4	-1.85839e-05	7144.55
2	0	0	1	0	0	58.9081	0.360901	0.360399	-0.0328342	3	0.000171114	12	0	8.7996	-1.18334e-05	10976.3
2	0	0	1	0	0	59.3076	0.356906	0.356444	-0.0511035	3	0.000154263	12	0	9.1991	-1.82156e-05	6974.95
2	0	0	1	0	0	59.7071	0.352911	0.352459	-0.0395402	3	0.000136872	12	0	9.5986	-1.39363e-05	8913.94
2	0	0	1	0	1	60.0008	0.350039	0.349457	-0.0367587	4	0.000124328	12	0	9.8923	-1.28456e-05	9506.8
2	1	0	1	0	1	60.4379	0.354409	0.353965	0.0354172	4	0.000137294	12	0	0.3596	1.25364e-05	9994.14
2	1	0	1	0	1	60.8374	0.358404	0.357922	0.0458452	4	0.000153167	12	0	0.7591	1.6409e-05	7807.17
2	1	0	1	0	1	61.2369	0.362399	0.361965	0.0335152	4	0.000169022	12	0	1.1586	1.21313e-05	10800
2	1	0	1	0	1	61.6365	0.366395	0.365936	0.0479461	4	0.000185094	12	0	1.5582	1.75452e-05	7632.24
2	1	0	1	0	1	62.036	0.370391	0.369937	0.0312264	4	0.000200972	12	0	1.9577	1.15518e-05	11846.9
2	1	0	1	0	1	62.4355	0.374385	0.373955	0.0489108	4	0.000216777	12	0	2.3572	1.82905e-05	7645.65
2	1	0	1	0	1	62.8351	0.37838	0.377942	0.0299454	4	0.000232471	12	0	2.7568	1.13176e-05	12621
2	1	0	1	0	1	63.2345	0.382376	0.381963	0.0478743	4	0.000247912	12	0	3.1562	1.82862e-05	7978.46
2	1	0	1	0	1	63.6341	0.386371	0.385875	0.0294275	4	0.000263275	12	0	3.5558	1.13553e-05	13112.7
2	1	0	1	0	1	64.0336	0.390366	0.389933	0.0459475	4	0.000278337	12	0	3.9553	1.79164e-05	8486.49
2	1	0	1	0	1	64.4331	0.394361	0.393943	0.0318438	4	0.000293436	12	0	4.3548	1.25447e-05	12371.1
2	1	0	1	0	1	64.8626	0.398655	0.398193	0.0269252	4	0.000309689	13	0	4.7843	1.07214e-05	14788.9
2	1	0	1	0	1	65.2921	0.402951	0.402496	0.0288421	4	0.00032587	12	0	5.2138	1.16088e-05	13955.2
2	1	0	1	0	1	65.6917	0.406946	0.406491	0.0428809	4	0.00034016	12	0	5.6134	1.74307e-05	9479.51
2	1	0	1	0	1	66.1211	0.411241	0.41082	0.0447112	4	0.000355202	13	0	6.0428	1.83683e-05	9188.29
2	1	0	1	0	1	66.5507	0.415536	0.415076	0.0433998	4	0.000369956	12	0	6.4724	1.80142e-05	9564.02
2	1	0	1	0	1	66.9801	0.419831	0.419328	0.0449016	4	0.000384793	13	0	6.9018	1.88285e-05	9338.82
2	1	0	1	0	1	67.4096	0.424126	0.423669	0.0432515	4	0.000399365	12	0	7.3313	1.83243e-05	9795.48
2	1	0	1	0	1	67.8391	0.428421	0.427936	0.0438228	4	0.000413953	13	0	7.7608	1.87534e-05	9765.14
2	1	0	1	0	1	68.3285	0.433315	0.432834	0.0374026	4	0.000429656	12	0	8.2502	1.61891e-05	11572.3
2	1	0	1	0	1	68.7281	0.43731	0.436823	0.0273142	4	0.000442925	12	0	8.6498	1.19315e-05	15992.5
2	1	0	1	0	1	69.1625	0.441655	0.441205	0.025457	4	0.000457159	13	0	9.0842	1.12318e-05	17331.4
2	1	0	1	0	1	69.5621	0.445651	0.445158	0.0416003	4	0.000470409	13	0	9.4838	1.85187e-05	10700.8
2	1	0	1	0	1	69.9616	0.449647	0.449164	0.0224034	4	0.000483553	13	0	9.8833	1.00628e-05	20048.9
2	0	0	1	0	1	70.3019	0.446949	0.44648	-0.0263833	4	0.000479003	12	0	0.2797	-1.17796e-05	16922.8
2	0	0	1	0	1	70.7314	0.442653	0.442163	-0.0274291	4	0.000468658	13	0	0.7092	-1.21282e-05	16120.2
2	0	0	1	0	1	71.1309	0.438659	0.438161	-0.020352	4	0.000458187	13	0	1.1087	-8.91748e-06	21529.1
2	0	0	1	0	1	71.5305	0.434664	0.434154	-0.0380223	4	0.000447093	13	0	1.5083	-1.65075e-05	11418.4
2	0	0	1	0	1	71.9599	0.430369	0.429875	-0.0368751	4	0.000435109	12	0	1.9377	-1.58517e-05	11657.6
2	0	0	1	0	1	72.3595	0.426373	0.425946	-0.0262876	4	0.000423262	12	0	2.3373	-1.11971e-05	16203.3
2	0	0	1	0	1	72.759	0.422377	0.421904	-0.0275346	4	0.000411415	12	0	2.7368	-1.1617e-05	15322.7
2	0	0	1	0	1	73.1585	0.418383	0.417886	-0.0398087	4	0.000399002	12	0	3.1363	-1.66355e-05	10497.3
2	0	0	1	0	1	73.588	0.414088	0.413668	-0.0414191	4	0.000385759	13	0	3.5658	-1.71337e-05	9987.38
2	0	0	1	0	1	73.9875	0.410093	0.40957	-0.0224448	4	0.000372849	13	0	3.9653	-9.19272e-06	18247.9
2	0	0	1	0	1	74.447	0.405498	0.405074	-0.038899	4	0.000358444	13	0	4.4248	-1.5757e-05	10413.5
2	0	0	1	0	1	74.8465	0.401503	0.401036	-0.0264682	4	0.000345042	13	0	4.8243	-1.06147e-05	15151.6
2	0	0	1	0	1	75.276	0.397208	0.39679	-0.026519	4	0.000329244	12	0	5.2538	-1.05225e-05	14962.5
2	0	0	1	0	1	75.7654	0.392315	0.391813	-0.0353089	4	0.000310244	13	0	5.7432	-1.38344e-05	11096.7
2	0	0	1	0	1	76.1949	0.388019	0.387549	-0.0340139	4	0.000294615	12	0	6.1727	-1.31821e-05	11393.8
2	0	0	1	0	1	76.5945	0.384024	0.38358	-0.0430696	4	0.000279723	12	0	6.5723	-1.65206e-05	8906.06
2	0	0	1	0	1	76.9939	0.380028	0.379509	-0.0291717	4	0.00026473	12	0	6.9717	-1.10709e-05	13009.5
2	0	0	1	0	1	77.3935	0.376033	0.375546	-0.0465304	4	0.000249434	12	0	7.3713	-1.74743e-05	8070.99
2	0	0	1	0	1	77.793	0.372039	0.371579	-0.0353124	4	0.000233598	12	0	7.7708	-1.31213e-05	10522.6
2	0	0	1	0	1	78.1925	0.368043	0.367522	-0.0403099	4	0.000217776	12	0	8.1703	-1.48148e-05	9117.4
2	0	0	1	0	1	78.5921	0.364047	0.363569	-0.0477616	4	0.000201306	12	0	8.5699	-1.73646e-05	7612.16
2	0	0	1	0	1	78.9916	0.360052	0.359557	-0.0331952	4	0.000184626	12	0	8.9694	-1.19356e-05	10831.6
2	0	0	1	0	1	79.3911	0.356057	0.355624	-0.0431467	4	0.000167835	12	0	9.3689	-1.5344e-05	8242.21
2	0	0	1	0	1	79.7907	0.352062	0.351609	-0.0521332	4	0.000150395	12	0	9.7685	-1.83305e-05	6744.43
2	1	0	1	0	0	80.0769	0.350813	0.350367	0.0210193	5	0.000142456	12	0	0.05	7.36444e-06	16668.8
2	1	0	1	0	0	80.4764	0.354807	0.354375	0.0422086	5	0.000157133	12	0	0.4495	1.49577e-05	8395.8
2	1	0	1	0	0	80.8759	0.358804	0.358348	0.0463478	5	0.000172984	12	0	0.849	1.66086e-05	7731.71
2	1	0	1	0	0	81.2755	0.362799	0.362354	0.030375	5	0.000188866	12	0	1.2486	1.10065e-05	11929.3
2	1	0	1	0	0	81.675	0.366794	0.366339	0.0437418	5	0.000204636	12	0	1.6481	1.60243e-05	8375.03
2	1	0	1	0	0	82.0745	0.370789	0.370327	0.0444472	5	0.000220645	12	0	2.0476	1.646e-05	8331.85
2	1	0	1	0	0	82.4741	0.374785	0.374338	0.0297687	5	0.000236296	12	0	2.4472	1.11435e-05	12574.9
2	1	0	1	0	0	82.8736	0.378781	0.378367	0.0451252	5	0.000251758	12	0	2.8467	1.70739e-05	8384.82
2	1	0	1	0	0	83.2731	0.382775	0.382299	0.0366504	5	0.00026728	12	0	3.2462	1.40114e-05	10431
2	1	0	1	0	0	83.6727	0.38677	0.386319	0.0322836	5	0.000282316	12	0	3.6458	1.24718e-05	11966.4
2	1	0	1	0	0	84.0721	0.390766	0.390342	0.0468029	5	0.000297393	12	0	4.0452	1.82691e-05	8340.13
2	1	0	1	0	0	84.4717	0.394761	0.394332	0.0343186	5	0.000312373	12	0	4.4448	1.35329e-05	11490.3
2	1	0	1	0	0	84.8712	0.398756	0.398305	0.0305403	5	0.000326901	12	0	4.8443	1.21644e-05	13041.9
2	1	0	1	0	0	85.2707	0.402751	0.402319	0.0451479	5	0.000341416	12	0	5.2438	1.81638e-05	8911.14
2	1	0	1	0	0	85.7302	0.407346	0.406921	0.0277382	5	0.00035799	12	0	5.7033	1.12873e-05	14670.1
2	1	0	1	0	0	86.1297	0.411341	0.410886	0.0349515	5	0.000371888	12	0	6.1028	1.43611e-05	11755.9
2	1	0	1	0	0	86.5293	0.415337	0.414853	0.0430533	5	0.00038602	12	0	6.5024	1.78608e-05	9635.79
2	1	0	1	0	0	86.9288	0.419333	0.418883	0.0281264	5	0.000399932	12	0	6.9019	1.17817e-05	14892.9
2	1	0	1	0	0	87.3583	0.423627	0.423123	0.0295915	5	0.000414967	13	0	7.3314	1.25209e-05	14298.8
2	1	0	1	0	0	87.8177	0.428221	0.427795	0.0370706	5	0.000430699	13	0	7.7908	1.58586e-05	11540
2	1	0	1	0	0	88.2472	0.432516	0.432064	0.0286803	5	0.000444887	12	0	8.2203	1.23917e-05	15064.8
2	1	0	1	0	0	88.6467	0.436511	0.436087	0.0415731	5	0.000458201	12	0	8.6198	1.81295e-05	10489.7
2	1	0	1	0	0	89.0463	0.440507	0.440033	0.0320467	5	0.000471544	12	0	9.0194	1.41016e-05	13731
2	1	0	1	0	0	89.5057	0.445101	0.44461	0.0330719	5	0.000485916	12	0	9.4788	1.47041e-05	13443.8
2	1	0	1	0	0	89.9652	0.449697	0.449245	0.0331801	5	0.000500924	12	0	9.9383	1.4906e-05	13539.6
2	0	0	1	0	0	90.3305	0.446649	0.446197	-0.0160264	5	0.000496468	12	0	0.2298	-7.15094e-06	27841.3
2	0	0	1	0	0	90.7599	0.442355	0.441887	-0.0162576	5	0.000486277	13	0	0.6592	-7.18404e-06	27180.2
2	0	0	1	0	0	91.1895	0.43806	0.437599	-0.0211156	5	0.000474589	12	0	1.0888	-9.24016e-06	20723.9
2	0	0	1	0	0	91.5889	0.434064	0.433571	-0.0254395	5	0.000463681	12	0	1.4882	-1.10298e-05	17043.2
2	0	0	1	0	0	92.0484	0.42947	0.429018	-0.0320007	5	0.000449886	12	0	1.9477	-1.37289e-05	13406.5
2	0	0	1	0	0	92.4479	0.425475	0.425023	-0.02091	5	0.000438159	12	0	2.3472	-8.88723e-06	20326.3
2	0	0	1	0	0	92.8475	0.421479	0.421021	-0.0349289	5	0.00042618	12	0	2.7468	-1.47058e-05	12053.7
2	0	0	1	0	0	93.247	0.417484	0.417031	-0.0359851	5	0.000413647	12	0	3.1463	-1.50069e-05	11589
2	0	0	1	0	0	93.7065	0.412889	0.412364	-0.0256213	5	0.000398081	12	0	3.6058	-1.05653e-05	16094.6
2	0	0	1	0	0	94.1359	0.408595	0.408109	-0.0233823	5	0.000383954	13	0	4.0352	-9.54254e-06	17453.7
2	0	0	1	0	0	94.5655	0.4043	0.403868	-0.0251552	5	0.000368738	12	0	4.4648	-1.01594e-05	16055
2	0	0	1	0	0	95.0249	0.399705	0.399283	-0.042394	5	0.00035379	12	0	4.9242	-1.69272e-05	9418.38
2	0	0	1	0	0	95.4244	0.395711	0.395264	-0.0370275	5	0.000339767	12	0	5.3237	-1.46356e-05	10674.9
2	0	0	1	0	0	95.8239	0.391715	0.391278	-0.0272205	5	0.000325694	12	0	5.7232	-1.06508e-05	14374.4
2	0	0	1	0	0	96.2235	0.387719	0.387235	-0.0429209	5	0.000311325	12	0	6.1228	-1.66205e-05	9022.06
2	0	0	1	0	0	96.6829	0.383125	0.382665	-0.0334114	5	0.000294259	12	0	6.5822	-1.27853e-05	11453.1
2	0	0	1	0	0	97.0825	0.379129	0.37868	-0.0321908	5	0.000279331	12	0	6.9818	-1.219e-05	11763.6
2	0	0	1	0	0	97.482	0.375134	0.374663	-0.0481642	5	0.000263923	12	0	7.3813	-1.80453e-05	7778.88
2	0	0	1	0	0	97.8815	0.371139	0.370686	-0.0385984	5	0.000248062	12	0	7.7808	-1.43079e-05	9603.69
2	0	0	1	0	0	98.2811	0.367144	0.36666	-0.0323281	5	0.000232134	12	0	8.1804	-1.18534e-05	11341.9
2	0	0	1	0	0	98.6805	0.363148	0.362692	-0.0484289	5	0.000215846	12	0	8.5798	-1.75648e-05	7489.17
2	0	0	1	0	0	99.0801	0.359153	0.358699	-0.0451706	5	0.000198985	12	0	8.9794	-1.62026e-05	7940.98
2	0	0	1	0	0	99.4796	0.355158	0.354712	-0.0332838	5	0.00018205	12	0	9.3789	-1.18062e-05	10657.2
2	0	0	1	0	0	99.8791	0.351163	0.350743	-0.0442585	5	0.000164812	12	0	9.7784	-1.55233e-05	7924.88
2	1	0	1	0	1	100.175	0.351813	0.351356	0.0466894	6	0.000164082	12	0	0.1499	1.64046e-05	7525.4
2	1	0	1	0	1	100.575	0.355807	0.35534	0.0401381	6	0.000179411	12	0	0.5494	1.42627e-05	8852.94
2	1	0	1	0	1	100.974	0.359802	0.359335	0.0303681	6	0.00019502	12	0	0.949	1.09123e-05	11832.6
2	1	0	1	0	1	101.374	0.363798	0.363311	0.0363045	6	0.000210728	12	0	1.3484	1.31898e-05	10007.3
2	1	0	1	0	1	101.773	0.367793	0.367371	0.0474929	6	0.000226552	12	0	1.748	1.74475e-05	7735.29
2	1	0	1	0	1	102.173	0.371788	0.371355	0.0443953	6	0.000242448	12	0	2.1475	1.64864e-05	8364.73
2	1	0	1	0	1	102.572	0.375783	0.375361	0.0317012	6	0.000258032	12	0	2.547	1.18994e-05	11840.6
2	1	0	1	0	1	102.972	0.379779	0.379375	0.033032	6	0.000273312	12	0	2.9466	1.25315e-05	11485.1
2	1	0	1	0	1	103.372	0.383774	0.383335	0.047099	6	0.000288568	12	0	3.3461	1.80547e-05	8138.92
2	1	0	1	0	1	103.771	0.387769	0.387307	0.0363601	6	0.000303809	12	0	3.7456	1.40825e-05	10652
2	1	0	1	0	1	104.171	0.391764	0.391349	0.0292683	6	0.000318584	12	0	4.1452	1.14541e-05	13371.1
2	1	0	1	0	1	104.615	0.396209	0.395819	0.0340913	6	0.00033503	13	0	4.5896	1.3494e-05	11610.6
2	1	0	1	0	1	105.03	0.400353	0.399921	0.0280846	6	0.000349482	12	0	5.0041	1.12316e-05	14239.9
2	1	0	1	0	1	105.429	0.40435	0.403861	0.0314497	6	0.00036371	12	0	5.4036	1.27013e-05	12841.5
2	1	0	1	0	1	105.829	0.408345	0.407866	0.0440739	6	0.000377863	12	0	5.8032	1.79763e-05	9254.15
2	1	0	1	0	1	106.228	0.41234	0.411868	0.0294364	6	0.000391981	12	0	6.2027	1.21239e-05	13991.8
2	1	0	1	0	1	106.643	0.416485	0.416011	0.0392525	6	0.000406195	12	0	6.6172	1.63294e-05	10598.3
2	1	0	1	0	1	107.132	0.421379	0.420937	0.040785	6	0.000423839	13	0	7.1066	1.71679e-05	10320.9
2	1	0	1	0	1	107.606	0.426124	0.425591	0.0410058	6	0.000440938	12	0	7.581	1.74517e-05	10378.8
2	1	0	1	0	1	108.036	0.430419	0.429946	0.0404929	6	0.000455616	13	0	8.0106	1.74097e-05	10617.8
2	1	0	1	0	1	108.465	0.434714	0.434205	0.042158	6	0.000470268	12	0	8.44	1.83052e-05	10299.5
2	1	0	1	0	1	108.91	0.439158	0.438728	0.0398043	6	0.000484668	13	0	8.8845	1.74633e-05	11022.1
2	1	0	1	0	1	109.339	0.443453	0.44296	0.0377456	6	0.000499002	12	0	9.314	1.67198e-05	11735.4
2	1	0	1	0	1	109.784	0.447898	0.447425	0.0246699	6	0.000514426	12	0	9.7585	1.10379e-05	18136.5
2	0	0	1	0	1	110.119	0.448747	0.448283	-0.0227755	6	0.000519249	12	0	0.05	-1.02098e-05	19682.7
2	0	0	1	0	1	110.579	0.444152	0.443635	-0.025913	6	0.000507178	12	0	0.5094	-1.14959e-05	17120.2
2	0	0	1	0	1	111.023	0.439709	0.439197	-0.0366026	6	0.000494642	13	0	0.9539	-1.60757e-05	11999.1
2	0	0	1	0	1	111.468	0.435263	0.434815	-0.0282191	6	0.000481929	13	0	1.3984	-1.22701e-05	15408.6
2	0	0	1	0	1	111.897	0.430968	0.430511	-0.034803	6	0.000469238	12	0	1.8279	-1.49831e-05	12369.9
2	0	0	1	0	1	112.342	0.426523	0.426016	-0.022909	6	0.000456972	13	0	2.2724	-9.75961e-06	18596
2	0	0	1	0	1	112.756	0.422377	0.421888	-0.0394421	6	0.000444298	12	0	2.6869	-1.66402e-05	10696.4
2	0	0	1	0	1	113.156	0.418383	0.417908	-0.023705	6	0.000431927	12	0	3.0864	-9.90653e-06	17629.5
2	0	0	1	0	1	113.555	0.414388	0.413879	-0.0330983	6	0.000419534	12	0	3.486	-1.36987e-05	12504.5
2	0	0	1	0	1	113.955	0.410392	0.4099	-0.0385759	6	0.000406566	12	0	3.8854	-1.58123e-05	10625.8
2	0	0	1	0	1	114.354	0.406397	0.405936	-0.0241776	6	0.000393547	12	0	4.285	-9.81458e-06	16789.7
2	0	0	1	0	1	114.754	0.402403	0.401967	-0.0360551	6	0.00038031	12	0	4.6845	-1.44929e-05	11148.7
2	0	0	1	0	1	115.153	0.398407	0.397936	-0.0403512	6	0.00036649	12	0	5.084	-1.60572e-05	9861.8
2	0	0	1	0	1	115.613	0.393812	0.393348	-0.029211	6	0.000351438	12	0	5.5435	-1.14901e-05	13465.7
2	0	0	1	0	1	116.012	0.389817	0.38932	-0.04519	6	0.00033715	12	0	5.943	-1.75934e-05	8615.2
2	0	0	1	0	1	116.412	0.385822	0.385385	-0.0313746	6	0.000322455	12	0	6.3426	-1.20913e-05	12283.3
2	0	0	1	0	1	116.811	0.381825	0.381374	-0.0357363	6	0.000307794	12	0	6.7421	-1.36289e-05	10671.9
2	0	0	1	0	1	117.211	0.377831	0.377342	-0.0468578	6	0.000292544	12	0	7.1416	-1.76814e-05	8052.93
2	0	0	1	0	1	117.67	0.373237	0.372789	-0.0313831	6	0.000274024	12	0	7.601	-1.16993e-05	11878.6
2	0	0	1	0	1	118.07	0.369241	0.368805	-0.0486613	6	0.000258227	12	0	8.0006	-1.79465e-05	7579.03
2	0	0	1	0	1	118.469	0.365246	0.364745	-0.0399875	6	0.00024191	12	0	8.4001	-1.45852e-05	9121.46
2	0	0	1	0	1	118.869	0.361251	0.360769	-0.0361664	6	0.00022556	12	0	8.7996	-1.30477e-05	9975.23
2	0	0	1	0	1	119.268	0.357255	0.356766	-0.0525411	6	0.000208702	12	0	9.1992	-1.87448e-05	6790.23
2	0	0	1	0	1	119.668	0.35326	0.352783	-0.0382776	6	0.000191458	12	0	9.5987	-1.35037e-05	9216.44
2	0	0	1	0	0	119.997	0.350039	0.349667	-0.0253572	7	0.000177012	12	0	9.9273	-8.86658e-06	13789.7
2	1	0	1	0	0	120.374	0.353809	0.353338	0.0442115	7	0.000189195	12	0	0.3496	1.56216e-05	7992
2	1	0	1	0	0	120.773	0.357805	0.357327	0.0410826	7	0.000204853	12	0	0.7492	1.46799e-05	8697.78
2	1	0	1	0	0	121.173	0.3618	0.361357	0.0310427	7	0.000220488	12	0	1.1487	1.12175e-05	11640.6
2	1	0	1	0	0	121.572	0.365795	0.365334	0.0476444	7	0.000236275	12	0	1.5482	1.74061e-05	7667.94
2	1	0	1	0	0	121.972	0.369791	0.369312	0.0363515	7	0.000252146	12	0	1.9478	1.3425e-05	10159.5
2	1	0	1	0	0	122.371	0.373786	0.373345	0.0333038	7	0.000267573	12	0	2.3472	1.24338e-05	11210.3
2	1	0	1	0	0	122.771	0.377781	0.377322	0.0472319	7	0.000283112	12	0	2.7468	1.78216e-05	7988.71
2	1	0	1	0	0	123.23	0.382376	0.381917	0.0286357	7	0.000299358	12	0	3.2062	1.09365e-05	13337.1
2	1	0	1	0	0	123.63	0.386371	0.385969	0.044759	7	0.000314361	12	0	3.6058	1.72756e-05	8623.27
2	1	0	1	0	0	124.029	0.390366	0.38991	0.0373426	7	0.000329453	12	0	4.0053	1.45603e-05	10441.4
2	1	0	1	0	0	124.489	0.394961	0.394535	0.0364303	7	0.000346713	12	0	4.4648	1.4373e-05	10829.8
2	1	0	1	0	0	124.888	0.398956	0.39852	0.0448483	7	0.000361356	12	0	4.8643	1.78729e-05	8885.96
2	1	0	1	0	0	125.288	0.402951	0.402491	0.0287049	7	0.000375759	12	0	5.2638	1.15535e-05	14021.7
2	1	0	1	0	0	125.687	0.406946	0.406504	0.0353381	7	0.000389773	12	0	5.6634	1.43651e-05	11503.3
2	1	0	1	0	0	126.117	0.411241	0.410818	0.0318282	7	0.000404579	13	0	6.0928	1.30756e-05	12907.3
2	1	0	1	0	0	126.546	0.415536	0.415061	0.0263206	7	0.000418571	12	0	6.5224	1.09247e-05	15769.5
2	1	0	1	0	0	126.946	0.419532	0.419029	0.0404524	7	0.000432172	12	0	6.9218	1.69507e-05	10358.6
2	1	0	1	0	0	127.405	0.424126	0.423662	0.0281878	7	0.000447607	12	0	7.3813	1.19421e-05	15030
2	1	0	1	0	0	127.835	0.428421	0.42793	0.0295488	7	0.000461862	13	0	7.8108	1.26448e-05	14482.1
2	1	0	1	0	0	128.294	0.433016	0.432616	0.0385013	7	0.000476065	13	0	8.2702	1.66563e-05	11236.4
2	1	0	1	0	0	128.724	0.43731	0.436893	0.0304989	7	0.000489707	12	0	8.6998	1.33247e-05	14324.9
2	1	0	1	0	0	129.123	0.441306	0.440828	0.0403229	7	0.000502841	12	0	9.0992	1.77755e-05	10932.4
2	1	0	1	0	0	129.553	0.445601	0.445163	0.0413262	7	0.000516866	13	0	9.5288	1.83969e-05	10771.9
2	1	0	1	0	0	129.952	0.449596	0.449132	0.0234666	7	0.000529738	13	0	9.9283	1.05396e-05	19139.2
2	0	0	1	0	0	130.328	0.446649	0.446172	-0.0176472	7	0.000522921	13	0	0.2947	-7.87366e-06	25282.9
2	0	0	1	0	0	130.727	0.442653	0.442139	-0.0361401	7	0.000512806	13	0	0.6942	-1.5979e-05	12234
2	0	0	1	0	0	131.187	0.43806	0.437592	-0.0187179	7	0.000500744	13	0	1.1537	-8.19083e-06	23378.2
2	0	0	1	0	0	131.616	0.433765	0.43326	-0.0212865	7	0.000488737	12	0	1.5831	-9.22257e-06	20353.8
2	0	0	1	0	0	132.046	0.42947	0.429033	-0.0211179	7	0.000476485	13	0	2.0126	-9.06027e-06	20316.1
2	0	0	1	0	0	132.475	0.425175	0.424702	-0.028308	7	0.000464754	12	0	2.4421	-1.20225e-05	15002.9
2	0	0	1	0	0	132.875	0.42118	0.420701	-0.0246906	7	0.000452821	12	0	2.8417	-1.03874e-05	17038.9
2	0	0	1	0	0	133.334	0.416585	0.416154	-0.0365781	7	0.000439703	12	0	3.3011	-1.52221e-05	11377.1
2	0	0	1	0	0	133.764	0.412289	0.411802	-0.0398362	7	0.000426122	13	0	3.7306	-1.64046e-05	10337.4
2	0	0	1	0	0	134.193	0.407995	0.407511	-0.0417178	7	0.000411373	12	0	4.1601	-1.70005e-05	9768.28
2	0	0	1	0	0	134.652	0.403401	0.402979	-0.0253617	7	0.000396169	12	0	4.6195	-1.02202e-05	15889.3
2	0	0	1	0	0	135.052	0.399405	0.398952	-0.0391882	7	0.000382715	12	0	5.0191	-1.56342e-05	10180.4
2	0	0	1	0	0	135.452	0.39541	0.394911	-0.0403962	7	0.000368726	12	0	5.4186	-1.59529e-05	9775.93
2	0	0	1	0	0	135.851	0.391415	0.390948	-0.0268597	7	0.000354657	12	0	5.8181	-1.05007e-05	14555.2
2	0	0	1	0	0	136.251	0.38742	0.38692	-0.0428598	7	0.000340338	12	0	6.2177	-1.65833e-05	9027.58
2	0	0	1	0	0	136.65	0.383424	0.382951	-0.0402374	7	0.000325466	12	0	6.6171	-1.54089e-05	9517.29
2	0	0	1	0	0	137.05	0.379429	0.378964	-0.0297472	7	0.000310572	12	0	7.0167	-1.12731e-05	12739.5
2	0	0	1	0	0	137.509	0.374835	0.374395	-0.0477286	7	0.000291924	12	0	7.4761	-1.78693e-05	7844.25
2	0	0	1	0	0	137.969	0.37024	0.369816	-0.0307787	7	0.000273873	12	0	7.9356	-1.13825e-05	12015.3
2	0	0	1	0	0	138.368	0.366245	0.365813	-0.0478897	7	0.000257861	12	0	8.3351	-1.75187e-05	7638.67
2	0	0	1	0	0	138.768	0.362249	0.361797	-0.0406938	7	0.000241325	12	0	8.7347	-1.47229e-05	8890.72
2	0	0	1	0	0	139.167	0.358254	0.357773	-0.0339897	7	0.000224755	12	0	9.1342	-1.21606e-05	10525.9
2	0	0	1	0	0	139.567	0.354259	0.353803	-0.0516414	7	0.00020775	12	0	9.5337	-1.82709e-05	6851.16
2	0	0	1	0	0	139.966	0.350264	0.349862	-0.0412947	7	0.000190194	12	0	9.9333	-1.44474e-05	8472.32
2	1	0	1	0	1	140.272	0.352811	0.352372	0.0284046	8	0.000197399	12	0	0.2498	1.0009e-05	12405.4
2	1	0	1	0	1	140.672	0.356806	0.356365	0.0414745	8	0.000212547	12	0	0.6493	1.478e-05	8592.38
2	1	0	1	0	1	141.071	0.360801	0.360362	0.0457065	8	0.00022836	12	0	1.0488	1.64709e-05	7884.25
2	1	0	1	0	1	141.471	0.364796	0.364343	0.0302893	8	0.00024409	12	0	1.4484	1.10357e-05	12028.8
2	1	0	1	0	1	141.87	0.368792	0.368374	0.043813	8	0.000259637	12	0	1.8478	1.61396e-05	8407.87
2	1	0	1	0	1	142.27	0.372787	0.372328	0.0439803	8	0.000275391	12	0	2.2474	1.63751e-05	8465.8
2	1	0	1	0	1	142.67	0.376782	0.376332	0.0294764	8	0.000290793	12	0	2.6469	1.10929e-05	12767.2
2	1	0	1	0	1	143.069	0.380778	0.380368	0.0431718	8	0.000305958	12	0	3.0464	1.64212e-05	8810.56
2	1	0	1	0	1	143.469	0.384773	0.384334	0.0423632	8	0.000321221	12	0	3.446	1.62816e-05	9072.34
2	1	0	1	0	1	143.868	0.388768	0.388367	0.0278864	8	0.000336077	12	0	3.8455	1.08301e-05	13926.8
2	1	0	1	0	1	144.268	0.392763	0.392316	0.044779	8	0.000350743	12	0	4.245	1.75676e-05	8761.16
2	1	0	1	0	1	144.757	0.397658	0.397211	0.0406686	8	0.000367937	13	0	4.7344	1.6154e-05	9767.03
2	1	0	1	0	1	145.187	0.401952	0.401494	0.0393431	8	0.000384157	12	0	5.164	1.5796e-05	10204.9
2	1	0	1	0	1	145.586	0.405948	0.405495	0.0299207	8	0.000398185	12	0	5.5634	1.21327e-05	13552.4
2	1	0	1	0	1	146.016	0.410243	0.409806	0.0341845	8	0.000413068	13	0	5.993	1.4009e-05	11988.1
2	1	0	1	0	1	146.475	0.414837	0.414389	0.028342	8	0.000428552	13	0	6.4524	1.17446e-05	14621
2	1	0	1	0	1	146.934	0.419432	0.418969	0.0439651	8	0.000442903	13	0	6.9118	1.842e-05	9529.58
2	1	0	1	0	1	147.334	0.423427	0.422917	0.0243456	8	0.000456453	13	0	7.3114	1.02961e-05	17371.4
2	1	0	1	0	1	147.793	0.428021	0.427596	0.0426319	8	0.000472584	13	0	7.7708	1.82292e-05	10030
2	1	0	1	0	1	148.193	0.432017	0.431524	0.0226406	8	0.000485785	13	0	8.1704	9.76995e-06	19059.7
2	1	0	1	0	1	148.622	0.436312	0.435831	0.0239685	8	0.000500715	12	0	8.5998	1.04462e-05	18183.5
2	1	0	1	0	1	149.052	0.440607	0.440156	0.0228883	8	0.00051531	13	0	9.0294	1.00744e-05	19230.6
2	1	0	1	0	1	149.452	0.444603	0.444165	0.0423253	8	0.000528138	13	0	9.4289	1.87994e-05	10494.1
2	1	0	1	0	1	149.851	0.448597	0.448161	0.022348	8	0.000540985	13	0	9.8284	1.00155e-05	20053.7
2	0	0	1	0	1	150.226	0.447647	0.447124	-0.0236464	8	0.000540874	13	0	0.1948	-1.05729e-05	18908.7
2	0	0	1	0	1	150.626	0.443653	0.443178	-0.0287997	8	0.000530778	13	0	0.5943	-1.27634e-05	15388.3
2	0	0	1	0	1	151.025	0.439658	0.439132	-0.0206219	8	0.000520388	13	0	0.9939	-9.05576e-06	21294.4
2	0	0	1	0	1	151.455	0.435363	0.434898	-0.0223	8	0.000509449	12	0	1.4233	-9.69821e-06	19502.2
2	0	0	1	0	1	151.884	0.431068	0.430584	-0.0259397	8	0.000497819	13	0	1.8528	-1.11692e-05	16599.4
2	0	0	1	0	1	152.284	0.427073	0.426637	-0.0349081	8	0.000486004	13	0	2.2523	-1.48931e-05	12221.7
2	0	0	1	0	1	152.683	0.423077	0.42262	-0.0214961	8	0.000474148	13	0	2.6519	-9.08469e-06	19660.3
2	0	0	1	0	1	153.083	0.419082	0.41861	-0.0406153	8	0.000461873	13	0	3.0514	-1.7002e-05	10306.7
2	0	0	1	0	1	153.482	0.415087	0.414572	-0.0213173	8	0.00044934	13	0	3.4509	-8.83753e-06	19447.7
2	0	0	1	0	1	153.912	0.410792	0.410368	-0.0240339	8	0.000435285	12	0	3.8804	-9.86273e-06	17074.5
2	0	0	1	0	1	154.341	0.406497	0.406031	-0.0230161	8	0.000421182	13	0	4.3099	-9.34524e-06	17641.2
2	0	0	1	0	1	154.771	0.402202	0.401735	-0.02536	8	0.000405992	12	0	4.7394	-1.0188e-05	15841.3
2	0	0	1	0	1	155.23	0.397608	0.397144	-0.0428768	8	0.000390144	12	0	5.1989	-1.70283e-05	9262.44
2	0	0	1	0	1	155.66	0.393313	0.392773	-0.0429859	8	0.000375143	13	0	5.6283	-1.68837e-05	9137.25
2	0	0	1	0	1	156.089	0.389018	0.388569	-0.0363527	8	0.000358946	12	0	6.0579	-1.41255e-05	10688.9
2	0	0	1	0	1	156.489	0.385022	0.384581	-0.0451664	8	0.000344255	12	0	6.4573	-1.73701e-05	8514.75
2	0	0	1	0	1	156.888	0.381027	0.380566	-0.0302911	8	0.00032937	12	0	6.8569	-1.15278e-05	12563.6
2	0	0	1	0	1	157.288	0.377032	0.37656	-0.038609	8	0.000314385	12	0	7.2564	-1.45386e-05	9753.16
2	0	0	1	0	1	157.687	0.373037	0.372608	-0.0479902	8	0.000298767	12	0	7.6559	-1.78815e-05	7764.25
2	0	0	1	0	1	158.102	0.368892	0.368404	-0.0478197	8	0.000282098	12	0	8.0704	-1.7617e-05	7704.02
2	0	0	1	0	1	158.546	0.364447	0.364034	-0.0486358	8	0.000263537	12	0	8.5149	-1.77051e-05	7484.9
2	0	0	1	0	1	158.946	0.360452	0.360014	-0.0432496	8	0.000246848	12	0	8.9145	-1.55705e-05	8324.1
2	0	0	1	0	1	159.345	0.356456	0.355993	-0.0332486	8	0.000230161	12	0	9.3139	-1.18363e-05	10707
2	0	0	1	0	1	159.745	0.352461	0.352047	-0.0507139	8	0.000213088	12	0	9.7135	-1.78537e-05	6941.84
2	0	0	1	0	0	160.021	0.350314	0.349858	-0.000799791	9	0.000202331	12	0	9.9897	-2.79813e-07	437437
2	1	0	1	0	0	160.421	0.354309	0.353888	0.0418925	9	0.000215964	12	0	0.3496	1.48253e-05	8447.53
2	1	0	1	0	0	160.82	0.358304	0.357879	0.0458608	9	0.000231576	12	0	0.7491	1.64126e-05	7803.6
2	1	0	1	0	0	161.22	0.362299	0.361875	0.0305012	9	0.000247214	12	0	1.1486	1.10376e-05	11864.3
2	1	0	1	0	0	161.619	0.366295	0.365847	0.0443646	9	0.000262786	12	0	1.5482	1.62307e-05	8246.38
2	1	0	1	0	0	162.049	0.37059	0.370171	0.0434325	9	0.000279338	13	0	1.9776	1.60775e-05	8522.9
2	1	0	1	0	0	162.478	0.374884	0.374434	0.0360975	9	0.00029494	12	0	2.4072	1.35161e-05	10372.9
2	1	0	1	0	0	162.878	0.37888	0.378476	0.0470994	9	0.000310345	12	0	2.8066	1.7826e-05	8035.69
2	1	0	1	0	0	163.277	0.382875	0.382429	0.0304264	9	0.000325526	12	0	3.2062	1.16359e-05	12569
2	1	0	1	0	0	163.677	0.386869	0.386396	0.0378953	9	0.000340326	12	0	3.6057	1.46426e-05	10196.4
2	1	0	1	0	0	164.076	0.390866	0.390381	0.0445831	9	0.00035527	12	0	4.0052	1.74044e-05	8756.25
2	1	0	1	0	0	164.506	0.39516	0.394736	0.045527	9	0.000371551	13	0	4.4348	1.79711e-05	8670.38
2	1	0	1	0	0	164.935	0.399455	0.399025	0.044695	9	0.00038691	12	0	4.8642	1.78344e-05	8927.73
2	1	0	1	0	0	165.335	0.403451	0.403024	0.0307135	9	0.000401271	12	0	5.2638	1.23783e-05	13122
2	1	0	1	0	0	165.764	0.407746	0.407246	0.0292212	9	0.000415566	13	0	5.6932	1.19002e-05	13936.7
2	1	0	1	0	0	166.194	0.41204	0.411539	0.0372334	9	0.000431	12	0	6.1228	1.5323e-05	11052.9
2	1	0	1	0	0	166.623	0.416335	0.415855	0.038618	9	0.000445011	13	0	6.5522	1.60595e-05	10768.4
2	1	0	1	0	0	167.053	0.420629	0.420166	0.041873	9	0.000459296	12	0	6.9817	1.75936e-05	10034.3
2	1	0	1	0	0	167.452	0.424625	0.424124	0.0253618	9	0.000472718	12	0	7.3812	1.07565e-05	16722.9
2	1	0	1	0	0	167.882	0.42892	0.428441	0.0236764	9	0.000486915	13	0	7.8108	1.01439e-05	18095.7
2	1	0	1	0	0	168.311	0.433215	0.432764	0.0274439	9	0.000501828	12	0	8.2402	1.18767e-05	15769
2	1	0	1	0	0	168.771	0.437811	0.437321	0.0379608	9	0.000517297	12	0	8.6997	1.6601e-05	11520.3
2	1	0	1	0	0	169.17	0.441805	0.441352	0.0324631	9	0.000530374	12	0	9.0992	1.43277e-05	13595.5
2	1	0	1	0	0	169.63	0.4464	0.445912	0.0328167	9	0.000545363	12	0	9.5586	1.46333e-05	13588
2	1	0	1	0	0	169.988	0.450021	0.449515	0.0285016	9	0.000557401	13	0	9.9165	1.28119e-05	15771.6
2	0	0	1	0	0	170.425	0.445651	0.445171	-0.03317	9	0.000547389	13	0	0.3945	-1.47663e-05	13420.9
2	0	0	1	0	0	170.884	0.441056	0.440544	-0.0183683	9	0.000534841	13	0	0.854	-8.09204e-06	23983.9
2	0	0	1	0	0	171.314	0.436761	0.436277	-0.0191938	9	0.000522555	12	0	1.2835	-8.37381e-06	22730.1
2	0	0	1	0	0	171.743	0.432465	0.431959	-0.0191749	9	0.00051112	13	0	1.713	-8.28278e-06	22527.3
2	0	0	1	0	0	172.173	0.428171	0.427703	-0.0266948	9	0.000498571	12	0	2.1425	-1.14174e-05	16022
2	0	0	1	0	0	172.632	0.423577	0.423108	-0.0324323	9	0.000485403	12	0	2.6019	-1.37224e-05	13045.9
2	0	0	1	0	0	173.121	0.418683	0.418145	-0.0397468	9	0.000469749	13	0	3.0913	-1.66199e-05	10520.2
2	0	0	1	0	0	173.551	0.414388	0.413857	-0.0322083	9	0.000456716	12	0	3.5209	-1.33296e-05	12849.4
2	0	0	1	0	0	173.95	0.410392	0.409876	-0.040148	9	0.00044382	12	0	3.9203	-1.64557e-05	10209.1
2	0	0	1	0	0	174.41	0.405798	0.40532	-0.0254435	9	0.000427959	12	0	4.3798	-1.03128e-05	15930.2
2	0	0	1	0	0	174.874	0.401153	0.400679	-0.0428388	9	0.000413349	12	0	4.8443	-1.71646e-05	9353.17
2	0	0	1	0	0	175.274	0.397158	0.396715	-0.0319949	9	0.000399565	12	0	5.2438	-1.26929e-05	12399.3
2	0	0	1	0	0	175.673	0.393163	0.392701	-0.0296451	9	0.000385756	12	0	5.6433	-1.16417e-05	13246.7
2	0	0	1	0	0	176.133	0.388567	0.388131	-0.0358637	9	0.000368603	12	0	6.1028	-1.39198e-05	10822.4
2	0	0	1	0	0	176.532	0.384573	0.384063	-0.0319253	9	0.000354219	12	0	6.5023	-1.22613e-05	12030.1
2	0	0	1	0	0	176.992	0.379979	0.379518	-0.0364229	9	0.000336442	12	0	6.9617	-1.38232e-05	10419.8
2	0	0	1	0	0	177.391	0.375983	0.375495	-0.0356535	9	0.000321412	12	0	7.3613	-1.33877e-05	10531.8
2	0	0	1	0	0	177.791	0.371988	0.371519	-0.0452173	9	0.000305759	12	0	7.7608	-1.67991e-05	8216.3
2	0	0	1	0	0	178.205	0.367843	0.3674	-0.0458339	9	0.000288939	12	0	8.1753	-1.68394e-05	8015.9
2	0	0	1	0	0	178.68	0.363098	0.362579	-0.0459204	9	0.000268479	13	0	8.6497	-1.66498e-05	7895.82
2	0	0	1	0	0	179.109	0.358804	0.358331	-0.045158	9	0.000250586	12	0	9.0793	-1.61815e-05	7935.05
2	0	0	1	0	0	179.509	0.354808	0.354342	-0.0444741	9	0.000233481	12	0	9.4787	-1.5759e-05	7967.38
2	0	0	1	0	0	179.908	0.350813	0.350399	-0.0394808	9	0.000216337	12	0	9.8783	-1.3834e-05	8875.19
2	1	0	1	0	1	180.17	0.351813	0.351382	0.0267155	10	0.000217211	12	0	0.1499	9.38732e-06	13152.8
2	1	0	1	0	1	180.569	0.355807	0.355376	0.0481369	10	0.000232216	12	0	0.5494	1.71067e-05	7382.62
2	1	0	1	0	1	180.969	0.359802	0.359347	0.0310175	10	0.000247828	12	0	0.949	1.11461e-05	11585.3
2	1	0	1	0	1	181.368	0.363798	0.363338	0.0441159	10	0.000263333	12	0	1.3484	1.6029e-05	8235.98
2	1	0	1	0	1	181.768	0.367793	0.367361	0.0392322	10	0.000279134	12	0	1.748	1.44124e-05	9363.76
2	1	0	1	0	1	182.167	0.371788	0.371358	0.0344904	10	0.00029452	12	0	2.1475	1.28083e-05	10767
2	1	0	1	0	1	182.597	0.376083	0.375631	0.0365458	10	0.000311179	13	0	2.577	1.37277e-05	10278.4
2	1	0	1	0	1	183.026	0.380378	0.379892	0.0341039	10	0.000327498	12	0	3.0065	1.29558e-05	11139.3
2	1	0	1	0	1	183.486	0.384973	0.384534	0.0352027	10	0.000345772	12	0	3.466	1.35366e-05	10923.4
2	1	0	1	0	1	183.915	0.389267	0.388832	0.03122	10	0.000361685	13	0	3.8954	1.21393e-05	12454.6
2	1	0	1	0	1	184.345	0.393562	0.393094	0.0326325	10	0.00037721	12	0	4.325	1.28276e-05	12046.1
2	1	0	1	0	1	184.804	0.398157	0.397669	0.0430619	10	0.000392464	12	0	4.7844	1.71244e-05	9234.81
2	1	0	1	0	1	185.264	0.402751	0.402329	0.0263604	10	0.000408423	12	0	5.2438	1.06056e-05	15262.6
2	1	0	1	0	1	185.663	0.406747	0.406301	0.042323	10	0.000422361	12	0	5.6434	1.71959e-05	9600
2	1	0	1	0	1	186.063	0.410742	0.410274	0.0303229	10	0.000436281	12	0	6.0429	1.24407e-05	13530.2
2	1	0	1	0	1	186.492	0.415037	0.414555	0.0276486	10	0.000450965	13	0	6.4724	1.14618e-05	14993.7
2	1	0	1	0	1	186.922	0.419333	0.41885	0.0298788	10	0.000465474	12	0	6.9019	1.25147e-05	14018.3
2	1	0	1	0	1	187.351	0.423627	0.423168	0.026977	10	0.000480041	13	0	7.3314	1.14158e-05	15686.2
2	1	0	1	0	1	187.781	0.427922	0.427471	0.0295254	10	0.000494432	12	0	7.7608	1.26212e-05	14478.1
2	1	0	1	0	1	188.18	0.431917	0.431441	0.0315145	10	0.000507381	12	0	8.1604	1.35966e-05	13690.2
2	1	0	1	0	1	188.58	0.435912	0.435468	0.0381616	10	0.00052051	12	0	8.5599	1.66182e-05	11411.1
2	1	0	1	0	1	189.039	0.440507	0.440054	0.0301081	10	0.000535272	12	0	9.0194	1.32492e-05	14615.8
2	1	0	1	0	1	189.469	0.444802	0.444383	0.0328941	10	0.000549045	13	0	9.4488	1.46176e-05	13509.5
2	1	0	1	0	1	189.898	0.449097	0.448623	0.0291169	10	0.000563207	12	0	9.8784	1.30625e-05	15407.7
2	0	0	1	0	1	190.338	0.4465	0.446051	-0.0329225	10	0.000560505	13	0	0.3097	-1.46851e-05	13548.5
2	0	0	1	0	1	190.738	0.442504	0.442067	-0.0164304	10	0.000550408	13	0	0.7091	-7.26332e-06	26905.5
2	0	0	1	0	1	191.137	0.438509	0.438002	-0.0363261	10	0.000539813	13	0	1.1087	-1.59109e-05	12057.5
2	0	0	1	0	1	191.537	0.434515	0.43407	-0.0236429	10	0.000528613	13	0	1.5082	-1.02627e-05	18359.4
2	0	0	1	0	1	191.936	0.430519	0.430011	-0.0277889	10	0.000517425	13	0	1.9077	-1.19495e-05	15474.2
2	0	0	1	0	1	192.366	0.426224	0.42573	-0.0263808	10	0.000505757	12	0	2.3373	-1.12311e-05	16137.9
2	0	0	1	0	1	192.795	0.421929	0.421433	-0.03245	10	0.000493256	13	0	2.7667	-1.36755e-05	12987.2
2	0	0	1	0	1	193.195	0.417933	0.417438	-0.0341529	10	0.000480792	13	0	3.1663	-1.42567e-05	12222.6
2	0	0	1	0	1	193.595	0.413937	0.413409	-0.0257397	10	0.000468411	13	0	3.5658	-1.0641e-05	16061.2
2	0	0	1	0	1	193.994	0.409943	0.409413	-0.0425184	10	0.000455545	13	0	3.9653	-1.74076e-05	9629.07
2	0	0	1	0	1	194.483	0.405049	0.404572	-0.0378071	10	0.00043991	12	0	4.4547	-1.52957e-05	10701
2	0	0	1	0	1	194.883	0.401053	0.400596	-0.0260249	10	0.000426638	12	0	4.8543	-1.04255e-05	15392.8
2	0	0	1	0	1	195.283	0.397058	0.396631	-0.0438103	10	0.000413019	12	0	5.2538	-1.73765e-05	9053.37
2	0	0	1	0	1	195.682	0.393063	0.392599	-0.0292189	10	0.00039897	12	0	5.6533	-1.14713e-05	13436.5
2	0	0	1	0	1	196.112	0.388768	0.388334	-0.027556	10	0.000383011	13	0	6.0828	-1.07009e-05	14092.5
2	0	0	1	0	1	196.571	0.384174	0.383729	-0.0475473	10	0.000366148	13	0	6.5423	-1.82453e-05	8070.46
2	0	0	1	0	1	197	0.379879	0.379434	-0.0444674	10	0.0003502	12	0	6.9717	-1.68724e-05	8532.87
2	0	0	1	0	1	197.4	0.375883	0.375393	-0.0389703	10	0.000334829	12	0	7.3713	-1.46292e-05	9632.81
2	0	0	1	0	1	197.8	0.371888	0.371452	-0.0302135	10	0.000319449	12	0	7.7708	-1.12229e-05	12294.2
2	0	0	1	0	1	198.259	0.367294	0.366831	-0.0491387	10	0.000300428	12	0	8.2303	-1.80256e-05	7465.22
2	0	0	1	0	1	198.659	0.363297	0.362878	-0.0358442	10	0.000284142	12	0	8.6298	-1.30071e-05	10123.7
2	0	0	1	0	1	199.058	0.359303	0.358861	-0.0355796	10	0.000267768	12	0	9.0293	-1.27681e-05	10086.1
2	0	0	1	0	1	199.458	0.355308	0.354856	-0.0513563	10	0.000250923	12	0	9.4289	-1.82241e-05	6909.68
2	0	0	1	0	1	199.857	0.351312	0.350837	-0.0440543	10	0.000233551	12	0	9.8283	-1.54559e-05	7963.74
2	0	0	1	0	1	199.986	0.349989	0.349419	-0.0364175	10	0.000228174	12	0	9.9572	-1.2725e-05	9594.81