File: ACS_Catal_2026/Figures_Na_K/main_figures/data/EC/20251112_2-148_alpha_reproducibility/20251112_2-148_004_Na_first_2_Na2_02_PEIS_C02.mpt
EC-Lab ASCII FILE
Nb header lines : 63

Potentio Electrochemical Impedance Spectroscopy

Run on channel : 2 (SN 69290)
User :
CE vs. WE compliance from -10 V to 10 V
Electrode connection : standard
Potential control : Ewe
Ewe ctrl range : min = -1.00 V, max = 1.00 V
Safety Limits :
	Do not start on E overload
Acquisition started on : 11/12/2025 17:10:29.402
Loaded Setting File :  C:\Users\User\Documents\EC-Lab\Data\Yatsuzuka\20251112_2-148_alpha_reproducibility\20251112_2-148_002_alpha_reproducibility_2_K1.mps
Saved on :
	File : 20251112_2-148_004_Na_first_2_Na2_02_PEIS_C02.mpr
	Directory : C:\Users\User\Documents\EC-Lab\Data\Yatsuzuka\20251112_2-148_alpha_reproducibility\
	Host : 192.109.209.127
Device : SP-150e (SN .003883)
Address : 192.109.209.128
EC-Lab for windows v11.52 (software)
Internet server v11.52 (firmware)
Command interpretor v11.50 (firmware)
Electrode material :
Initial state :
Electrolyte :
Comments :
Electrode surface area : 0.001 cm2
Characteristic mass : 0.001 g
Equivalent Weight : 0.000 g/eq.
Density : 0.000 g/cm3
Volume (V) : 0.001 cm3
Cycle Definition : Charge/Discharge alternance
Mode                Single sine
E (V)               0.4500
vs.                 Ref
tE (h:m:s)          0:00:0.0000
record              0
dI                  0.000
unit dI             mA
dt (s)              0.000
fi                  500.000
unit fi             kHz
ff                  1.000
unit ff             Hz
Nd                  6
Points              per decade
spacing             Logarithmic
Va (mV)             10.0
pw                  0.10
Na                  2
corr                0
E range min (V)     -1.000
E range max (V)     1.000
I Range             Auto
Bandwidth           5
nc cycles           0
goto Ns'            0
nr cycles           0
inc. cycle          0

freq/Hz	Re(Z)/Ohm	-Im(Z)/Ohm	|Z|/Ohm	Phase(Z)/deg	time/s	<Ewe>/V	<I>/mA	Cs/uF	Cp/uF	cycle number	I Range	|Ewe|/V	|I|/A	Ns	(Q-Qo)/mA.h	Re(Y)/Ohm-1	Im(Y)/Ohm-1	|Y|/Ohm-1	Phase(Y)/deg	Re(C)/nF	Im(C)/nF	|C|/nF	Phase(C)/deg	Re(M)	Im(M)	|M|	Phase(M)/deg	Re(Permittivity)	Im(Permittivity)	|Permittivity|	Phase(Permittivity)/deg	Re(Resistivity)/Ohm.cm	Im(Resistivity)/Ohm.cm	|Resistivity|/Ohm.cm	Phase(Resistivity)/deg	Re(Conductivity)/mS/cm	Im(Conductivity)/mS/cm	|Conductivity|/mS/cm	Phase(Conductivity)/deg	Tan(Delta)	Loss Angle(Delta)/deg	dq/mA.h
500019	13.4327	-4.00959	14.0184	16.62	201.944	0.449805	0.0194119	-0.0793842	-0.00649437	1	10	0.00467093	0.0003332	0	3.27422e-05	0.0683547	-0.0204034	0.0713348	-16.62	-6.49437	21.7572	22.7057	-106.62	0.0000000E+000	0.0000000E+000	0.0000000E+000	106.62	0.0000000E+000	0.0000000E+000	0.0000000E+000	-106.62	0.0000000E+000	0.0000000E+000	0.0000000E+000	16.62	0.0000000E+000	0.0000000E+000	0.0000000E+000	-16.62	3.35016	73.38	3.27422e-05
339899	9.03018	-2.31732	9.32278	14.3926	202.366	0.449696	0.0168594	-0.202061	-0.0124843	1	10	0.00714379	0.000766273	0	3.43434e-05	0.103898	-0.0266622	0.107264	-14.3926	-12.4843	48.6492	50.2255	-104.393	0.0000000E+000	0.0000000E+000	0.0000000E+000	104.393	0.0000000E+000	0.0000000E+000	0.0000000E+000	-104.393	0.0000000E+000	0.0000000E+000	0.0000000E+000	14.3926	0.0000000E+000	0.0000000E+000	0.0000000E+000	-14.3926	3.89682	75.6074	1.60116e-06
231063	7.54619	-1.26377	7.65129	9.50717	202.788	0.449568	0.019287	-0.545032	-0.0148693	1	10	0.0101245	0.00132324	0	3.89779e-05	0.128902	-0.0215874	0.130697	-9.50717	-14.8693	88.7871	90.0235	-99.5072	0.0000000E+000	0.0000000E+000	0.0000000E+000	99.5072	0.0000000E+000	0.0000000E+000	0.0000000E+000	-99.5072	0.0000000E+000	0.0000000E+000	0.0000000E+000	9.50717	0.0000000E+000	0.0000000E+000	0.0000000E+000	-9.50717	5.97117	80.4928	4.63451e-06
157076	7.06645	-0.657759	7.09699	5.31789	203.211	0.449539	0.0224064	-1.54044	-0.0132321	1	10	0.0109096	0.00153721	0	3.9057e-05	0.140298	-0.0130592	0.140905	-5.31789	-13.2321	142.155	142.77	-95.3179	0.0000000E+000	0.0000000E+000	0.0000000E+000	95.3179	0.0000000E+000	0.0000000E+000	0.0000000E+000	-95.3179	0.0000000E+000	0.0000000E+000	0.0000000E+000	5.31789	0.0000000E+000	0.0000000E+000	0.0000000E+000	-5.31789	10.7432	84.6821	7.9121e-08
106786	6.9395	-0.355904	6.94862	2.93594	203.633	0.449542	0.020719	-4.18766	-0.010986	1	10	0.0108884	0.00156699	0	4.08532e-05	0.143724	-0.00737115	0.143913	-2.93594	-10.986	214.208	214.489	-92.9359	0.0000000E+000	0.0000000E+000	0.0000000E+000	92.9359	0.0000000E+000	0.0000000E+000	0.0000000E+000	-92.9359	0.0000000E+000	0.0000000E+000	0.0000000E+000	2.93594	0.0000000E+000	0.0000000E+000	0.0000000E+000	-2.93594	19.4982	87.0641	1.7962e-06
72595	6.90349	-0.207423	6.90661	1.721	204.055	0.449554	0.0176406	-10.5695	-0.00953325	1	10	0.0106978	0.00154892	0	4.24346e-05	0.144724	-0.00434838	0.144789	-1.721	-9.53327	317.287	317.43	-91.721	0.0000000E+000	0.0000000E+000	0.0000000E+000	91.721	0.0000000E+000	0.0000000E+000	0.0000000E+000	-91.721	0.0000000E+000	0.0000000E+000	0.0000000E+000	1.721	0.0000000E+000	0.0000000E+000	0.0000000E+000	-1.721	33.2822	88.279	1.58132e-06
49352.4	6.89044	-0.126964	6.89161	1.05562	204.477	0.449544	0.0164996	-25.3999	-0.00862088	1	10	0.0105971	0.00153769	0	4.62819e-05	0.145079	-0.00267325	0.145104	-1.05562	-8.62087	467.862	467.941	-91.0556	0.0000000E+000	0.0000000E+000	0.0000000E+000	91.0556	0.0000000E+000	0.0000000E+000	0.0000000E+000	-91.0556	0.0000000E+000	0.0000000E+000	0.0000000E+000	1.05562	0.0000000E+000	0.0000000E+000	0.0000000E+000	-1.05562	54.2708	88.9444	3.84735e-06
33551.1	6.88206	-0.0793256	6.88251	0.660387	204.899	0.449554	0.0187127	-59.7999	-0.00794389	1	10	0.0105475	0.0015325	0	4.58154e-05	0.145286	-0.00167463	0.145296	-0.660387	-7.94386	689.188	689.234	-90.6604	0.0000000E+000	0.0000000E+000	0.0000000E+000	90.6604	0.0000000E+000	0.0000000E+000	0.0000000E+000	-90.6604	0.0000000E+000	0.0000000E+000	0.0000000E+000	0.660387	0.0000000E+000	0.0000000E+000	0.0000000E+000	-0.660387	86.7571	89.3396	-4.66475e-07
22806.6	6.87549	-0.0485618	6.87567	0.404675	205.321	0.449561	0.0221546	-143.703	-0.00716846	1	10	0.0105001	0.00152714	0	4.68334e-05	0.145437	-0.00102722	0.14544	-0.404675	-7.16852	1014.93	1014.95	-90.4047	0.0000000E+000	0.0000000E+000	0.0000000E+000	90.4047	0.0000000E+000	0.0000000E+000	0.0000000E+000	-90.4047	0.0000000E+000	0.0000000E+000	0.0000000E+000	0.404675	0.0000000E+000	0.0000000E+000	0.0000000E+000	-0.404675	141.582	89.5953	1.01793e-06
15504.4	6.87131	-0.0242422	6.87136	0.20214	205.743	0.449557	0.0214965	-423.442	-0.00527051	1	10	0.0103992	0.00151342	0	4.60982e-05	0.145531	-0.000513437	0.145532	-0.20214	-5.27052	1493.9	1493.91	-90.2021	0.0000000E+000	0.0000000E+000	0.0000000E+000	90.2021	0.0000000E+000	0.0000000E+000	0.0000000E+000	-90.2021	0.0000000E+000	0.0000000E+000	0.0000000E+000	0.20214	0.0000000E+000	0.0000000E+000	0.0000000E+000	-0.20214	283.444	89.7979	-7.35177e-07
10540.4	6.87505	0.000388886	6.87505	-0.00324092	206.165	0.449557	0.0192348	38827.7	0.000124232	1	10	0.0103617	0.00150715	0	4.76383e-05	0.145453	8.22755e-06	0.145453	0.00324092	0.124292	2196.28	2196.28	-89.9968	0.0000000E+000	0.0000000E+000	0.0000000E+000	89.9968	0.0000000E+000	0.0000000E+000	0.0000000E+000	-89.9968	0.0000000E+000	0.0000000E+000	0.0000000E+000	-0.00324092	0.0000000E+000	0.0000000E+000	0.0000000E+000	0.00324092	17678.8	89.9968	1.54008e-06
7163.78	6.87824	0.00613958	6.87824	-0.0511427	206.689	0.449534	0.0154107	3618.59	0.00288311	1	10	0.0102141	0.00148498	0	4.89206e-05	0.145386	0.000129773	0.145386	0.0511427	2.88295	3229.98	3229.98	-89.9489	0.0000000E+000	0.0000000E+000	0.0000000E+000	89.9489	0.0000000E+000	0.0000000E+000	0.0000000E+000	-89.9489	0.0000000E+000	0.0000000E+000	0.0000000E+000	-0.0511427	0.0000000E+000	0.0000000E+000	0.0000000E+000	0.0511427	1120.31	89.9489	1.28234e-06
4871.56	6.87953	0.0236607	6.87957	-0.197056	207.377	0.449546	0.0197084	1380.78	0.0163327	1	10	0.0101526	0.00147576	0	4.99317e-05	0.145357	0.000499926	0.145358	0.197056	16.333	4748.85	4748.88	-89.8029	0.0000000E+000	0.0000000E+000	0.0000000E+000	89.8029	0.0000000E+000	0.0000000E+000	0.0000000E+000	-89.8029	0.0000000E+000	0.0000000E+000	0.0000000E+000	-0.197056	0.0000000E+000	0.0000000E+000	0.0000000E+000	0.197056	290.758	89.8029	1.01108e-06
3311.06	6.88501	0.0378763	6.88512	-0.315196	207.842	0.449554	0.0179539	1269.07	0.0384059	1	10	0.010817	0.00157107	0	5.18401e-05	0.145239	0.000798996	0.145241	0.315196	38.4055	6981.28	6981.39	-89.6848	0.0000000E+000	0.0000000E+000	0.0000000E+000	89.6848	0.0000000E+000	0.0000000E+000	0.0000000E+000	-89.6848	0.0000000E+000	0.0000000E+000	0.0000000E+000	-0.315196	0.0000000E+000	0.0000000E+000	0.0000000E+000	0.315196	181.776	89.6848	1.90846e-06
2250.72	6.88364	0.0514651	6.88383	-0.42836	208.527	0.449548	0.0194157	1374	0.0767982	1	10	0.0101042	0.00146781	0	5.70991e-05	0.145264	0.00108606	0.145268	0.42836	76.7981	10272	10272.3	-89.5716	0.0000000E+000	0.0000000E+000	0.0000000E+000	89.5716	0.0000000E+000	0.0000000E+000	0.0000000E+000	-89.5716	0.0000000E+000	0.0000000E+000	0.0000000E+000	-0.42836	0.0000000E+000	0.0000000E+000	0.0000000E+000	0.42836	133.754	89.5716	5.25899e-06
1530.49	6.88949	0.0740391	6.88988	-0.615716	208.992	0.449553	0.0198352	1404.52	0.162191	1	10	0.0102665	0.00149008	0	5.86971e-05	0.145132	0.00155969	0.14514	0.615716	162.191	15092.2	15093.1	-89.3843	0.0000000E+000	0.0000000E+000	0.0000000E+000	89.3843	0.0000000E+000	0.0000000E+000	0.0000000E+000	-89.3843	0.0000000E+000	0.0000000E+000	0.0000000E+000	-0.615716	0.0000000E+000	0.0000000E+000	0.0000000E+000	0.615716	93.052	89.3843	1.59795e-06
1040.33	6.89941	0.105186	6.90021	-0.873441	209.457	0.449552	0.0166636	1454.43	0.337971	1	10	0.0103496	0.0014999	0	6.23267e-05	0.144906	0.00220918	0.144923	0.873441	337.972	22168.4	22171	-89.1266	0.0000000E+000	0.0000000E+000	0.0000000E+000	89.1266	0.0000000E+000	0.0000000E+000	0.0000000E+000	-89.1266	0.0000000E+000	0.0000000E+000	0.0000000E+000	-0.873441	0.0000000E+000	0.0000000E+000	0.0000000E+000	0.873441	65.5927	89.1266	3.62964e-06
707.036	6.89998	0.147118	6.90155	-1.22145	209.922	0.449552	0.0167084	1530.08	0.695265	1	10	0.0103823	0.00150434	0	6.38949e-05	0.144862	0.00308867	0.144895	1.22145	695.263	32608.7	32616.1	-88.7786	0.0000000E+000	0.0000000E+000	0.0000000E+000	88.7786	0.0000000E+000	0.0000000E+000	0.0000000E+000	-88.7786	0.0000000E+000	0.0000000E+000	0.0000000E+000	-1.22145	0.0000000E+000	0.0000000E+000	0.0000000E+000	1.22145	46.9011	88.7786	1.56814e-06
480.769	6.91133	0.204786	6.91436	-1.6972	210.387	0.449546	0.0192982	1616.53	1.41801	1	10	0.0104074	0.00150519	0	6.54814e-05	0.144563	0.00428346	0.144626	1.6972	1418	47856.5	47877.5	-88.3028	0.0000000E+000	0.0000000E+000	0.0000000E+000	88.3028	0.0000000E+000	0.0000000E+000	0.0000000E+000	-88.3028	0.0000000E+000	0.0000000E+000	0.0000000E+000	-1.6972	0.0000000E+000	0.0000000E+000	0.0000000E+000	1.6972	33.7491	88.3028	1.58655e-06
326.778	6.92139	0.291084	6.92751	-2.4082	210.85	0.449549	0.0181552	1673.21	2.95414	1	10	0.0104168	0.00150368	0	6.76919e-05	0.144225	0.00606546	0.144352	2.4082	2954.15	70243.6	70305.7	-87.5918	0.0000000E+000	0.0000000E+000	0.0000000E+000	87.5918	0.0000000E+000	0.0000000E+000	0.0000000E+000	-87.5918	0.0000000E+000	0.0000000E+000	0.0000000E+000	-2.4082	0.0000000E+000	0.0000000E+000	0.0000000E+000	2.4082	23.778	87.5918	2.21042e-06
222.061	6.93623	0.415818	6.94868	-3.43071	211.312	0.449549	0.0150434	1723.63	6.1723	1	10	0.0104259	0.00150042	0	6.95105e-05	0.143654	0.00861189	0.143912	3.43071	6172.29	102960	103144	-86.5693	0.0000000E+000	0.0000000E+000	0.0000000E+000	86.5693	0.0000000E+000	0.0000000E+000	0.0000000E+000	-86.5693	0.0000000E+000	0.0000000E+000	0.0000000E+000	-3.43071	0.0000000E+000	0.0000000E+000	0.0000000E+000	3.43071	16.6809	86.5693	1.81866e-06
151.015	6.95362	0.595799	6.9791	-4.89725	211.773	0.449548	0.0176071	1768.89	12.8914	1	10	0.0104249	0.00149373	0	7.20079e-05	0.142762	0.0122321	0.143285	4.89725	12891.4	150457	151008	-85.1028	0.0000000E+000	0.0000000E+000	0.0000000E+000	85.1028	0.0000000E+000	0.0000000E+000	0.0000000E+000	-85.1028	0.0000000E+000	0.0000000E+000	0.0000000E+000	-4.89725	0.0000000E+000	0.0000000E+000	0.0000000E+000	4.89725	11.6711	85.1028	2.49738e-06
102.667	6.9757	0.853506	7.02772	-6.9757	212.248	0.449545	0.0198706	1816.27	26.7895	1	10	0.0104288	0.00148395	0	7.56471e-05	0.14124	0.0172813	0.142294	6.9757	26789.5	218951	220584	-83.0243	0.0000000E+000	0.0000000E+000	0.0000000E+000	83.0243	0.0000000E+000	0.0000000E+000	0.0000000E+000	-83.0243	0.0000000E+000	0.0000000E+000	0.0000000E+000	-6.9757	0.0000000E+000	0.0000000E+000	0.0000000E+000	6.9757	8.173	83.0243	3.63925e-06
69.7545	7.01173	1.22504	7.11794	-9.91024	212.715	0.449546	0.0179725	1862.51	55.168	1	10	0.0104352	0.00146604	0	7.87898e-05	0.138394	0.0241791	0.14049	9.91024	55168	315765	320548	-80.0898	0.0000000E+000	0.0000000E+000	0.0000000E+000	80.0898	0.0000000E+000	0.0000000E+000	0.0000000E+000	-80.0898	0.0000000E+000	0.0000000E+000	0.0000000E+000	-9.91024	0.0000000E+000	0.0000000E+000	0.0000000E+000	9.91024	5.7237	80.0898	3.1426e-06
47.4443	7.05788	1.75775	7.27347	-13.9849	213.159	0.44954	0.0147562	1908.44	111.458	1	10	0.0104369	0.00143493	0	8.20866e-05	0.133411	0.0332257	0.137486	13.9849	111458	447535	461205	-76.0151	0.0000000E+000	0.0000000E+000	0.0000000E+000	76.0151	0.0000000E+000	0.0000000E+000	0.0000000E+000	-76.0151	0.0000000E+000	0.0000000E+000	0.0000000E+000	-13.9849	0.0000000E+000	0.0000000E+000	0.0000000E+000	13.9849	4.01529	76.0151	3.2968e-06
32.2387	7.1079	2.51729	7.54049	-19.5018	213.596	0.449536	0.0160278	1961.15	218.563	1	10	0.0104364	0.00138405	0	8.32011e-05	0.125009	0.0442725	0.132617	19.5018	218563	617142	654702	-70.4982	0.0000000E+000	0.0000000E+000	0.0000000E+000	70.4982	0.0000000E+000	0.0000000E+000	0.0000000E+000	-70.4982	0.0000000E+000	0.0000000E+000	0.0000000E+000	-19.5018	0.0000000E+000	0.0000000E+000	0.0000000E+000	19.5018	2.82363	70.4982	1.11455e-06
21.9144	7.18771	3.61899	8.04738	-26.7251	214.027	0.449533	0.0161192	2006.79	405.852	1	10	0.0104468	0.00129816	0	8.85196e-05	0.11099	0.0558828	0.124264	26.7251	405852	806068	902476	-63.2749	0.0000000E+000	0.0000000E+000	0.0000000E+000	63.2749	0.0000000E+000	0.0000000E+000	0.0000000E+000	-63.2749	0.0000000E+000	0.0000000E+000	0.0000000E+000	-26.7251	0.0000000E+000	0.0000000E+000	0.0000000E+000	26.7251	1.98611	63.2749	5.31847e-06
14.9093	7.24041	5.23065	8.93215	-35.8452	214.495	0.449545	0.0177264	2040.83	699.85	1	10	0.0104426	0.0011691	0	9.19116e-05	0.090751	0.0655607	0.111955	35.8452	699850	968753	1.1951e+06	-54.1548	0.0000000E+000	0.0000000E+000	0.0000000E+000	54.1548	0.0000000E+000	0.0000000E+000	0.0000000E+000	-54.1548	0.0000000E+000	0.0000000E+000	0.0000000E+000	-35.8452	0.0000000E+000	0.0000000E+000	0.0000000E+000	35.8452	1.38423	54.1548	3.39199e-06
10.1329	7.38482	7.60813	10.6028	-45.8533	214.954	0.44954	0.0152354	2064.46	1062.97	1	10	0.0104506	0.000985648	0	9.18485e-05	0.0656901	0.0676764	0.0943148	45.8533	1.06297e+06	1.03177e+06	1.48137e+06	-44.1467	0.0000000E+000	0.0000000E+000	0.0000000E+000	44.1467	0.0000000E+000	0.0000000E+000	0.0000000E+000	-44.1467	0.0000000E+000	0.0000000E+000	0.0000000E+000	-45.8533	0.0000000E+000	0.0000000E+000	0.0000000E+000	45.8533	0.970649	44.1467	-6.30758e-08
6.88933	7.5401	11.1007	13.4193	-55.8138	215.507	0.44954	0.000717341	2081.1	1424.07	1	11	0.0104574	0.000779278	0	9.35661e-05	0.0418712	0.0616436	0.0745194	55.8138	1.42407e+06	967295	1.72152e+06	-34.1862	0.0000000E+000	0.0000000E+000	0.0000000E+000	34.1862	0.0000000E+000	0.0000000E+000	0.0000000E+000	-34.1862	0.0000000E+000	0.0000000E+000	0.0000000E+000	-55.8138	0.0000000E+000	0.0000000E+000	0.0000000E+000	55.8138	0.679246	34.1862	1.71756e-06
4.68375	7.73472	16.0778	17.8416	-64.3088	216.004	0.449559	0.000630163	2113.48	1716.27	1	11	0.0104581	0.000586165	0	0.000100946	0.0242983	0.050508	0.0560488	64.3088	1.71627e+06	825662	1.90455e+06	-25.6912	0.0000000E+000	0.0000000E+000	0.0000000E+000	25.6912	0.0000000E+000	0.0000000E+000	0.0000000E+000	-25.6912	0.0000000E+000	0.0000000E+000	0.0000000E+000	-64.3088	0.0000000E+000	0.0000000E+000	0.0000000E+000	64.3088	0.481079	25.6912	7.37945e-06
3.18099	8.05922	23.4556	24.8015	-71.0375	216.707	0.449551	0.00147419	2133.1	1907.87	1	11	0.0104597	0.000421737	0	9.49963e-05	0.013102	0.038132	0.0403201	71.0375	1.90787e+06	655533	2.01734e+06	-18.9625	0.0000000E+000	0.0000000E+000	0.0000000E+000	18.9625	0.0000000E+000	0.0000000E+000	0.0000000E+000	-18.9625	0.0000000E+000	0.0000000E+000	0.0000000E+000	-71.0375	0.0000000E+000	0.0000000E+000	0.0000000E+000	71.0375	0.343595	18.9625	-5.94916e-06
2.16533	8.6684	33.9215	35.0116	-75.6653	217.718	0.449567	0.00135968	2166.81	2033.99	1	11	0.010456	0.000298643	0	9.13606e-05	0.00707156	0.0276727	0.028562	75.6653	2.03399e+06	519771	2.09935e+06	-14.3347	0.0000000E+000	0.0000000E+000	0.0000000E+000	14.3347	0.0000000E+000	0.0000000E+000	0.0000000E+000	-14.3347	0.0000000E+000	0.0000000E+000	0.0000000E+000	-75.6653	0.0000000E+000	0.0000000E+000	0.0000000E+000	75.6653	0.255543	14.3347	-3.63579e-06
1.46962	9.14009	49.5715	50.4071	-79.553	219.918	0.449568	0.000309736	2184.66	2112.83	1	12	0.010459	0.00020749	0	9.61561e-05	0.00359722	0.0195096	0.0198385	79.553	2.11283e+06	389567	2.14844e+06	-10.447	0.0000000E+000	0.0000000E+000	0.0000000E+000	10.447	0.0000000E+000	0.0000000E+000	0.0000000E+000	-10.447	0.0000000E+000	0.0000000E+000	0.0000000E+000	-79.553	0.0000000E+000	0.0000000E+000	0.0000000E+000	79.553	0.184382	10.447	4.79557e-06
1.00006	10.098	72.1908	72.8936	-82.0372	222.058	0.449566	0.000612343	2204.5	2162.2	1	12	0.0104584	0.000143474	0	0.000101129	0.00190044	0.0135864	0.0137186	82.0372	2.1622e+06	302446	2.18325e+06	-7.9628	0.0000000E+000	0.0000000E+000	0.0000000E+000	7.9628	0.0000000E+000	0.0000000E+000	0.0000000E+000	-7.9628	0.0000000E+000	0.0000000E+000	0.0000000E+000	-82.0372	0.0000000E+000	0.0000000E+000	0.0000000E+000	82.0372	0.139879	7.9628	4.9733e-06