File: ACS_Catal_2026/Figures_Na_K/main_figures/data/EC/20251112_2-148_alpha_reproducibility/20251112_2-148_004_Na_first_2_K1_01_CVA_C02.mpt
EC-Lab ASCII FILE
Nb header lines : 66

Cyclic Voltammetry Advanced

Run on channel : 2 (SN 69290)
User :
CE vs. WE compliance from -10 V to 10 V
Electrode connection : standard
Potential control : Ewe
Ewe ctrl range : min = -1.00 V, max = 1.00 V
Safety Limits :
	Do not start on E overload
Acquisition started on : 11/12/2025 16:20:32.186
Loaded Setting File :  C:\Users\User\Documents\EC-Lab\Data\Yatsuzuka\20251112_2-148_alpha_reproducibility\20251112_2-148_002_alpha_reproducibility_2_K1.mps
Saved on :
	File : 20251112_2-148_004_Na_first_2_K1_01_CVA_C02.mpr
	Directory : C:\Users\User\Documents\EC-Lab\Data\Yatsuzuka\20251112_2-148_alpha_reproducibility\
	Host : 192.109.209.127
Device : SP-150e (SN .003883)
Address : 192.109.209.128
EC-Lab for windows v11.52 (software)
Internet server v11.52 (firmware)
Command interpretor v11.50 (firmware)
Electrode material :
Initial state :
Electrolyte :
Comments :
Electrode surface area : 0.001 cm2
Characteristic mass : 0.001 g
Equivalent Weight : 0.000 g/eq.
Density : 0.000 g/cm3
Volume (V) : 0.001 cm3
Cycle Definition : Charge/Discharge alternance
Ei (V)              0.350
vs.                 Ref
ti (h:m:s)          0:00:10.0000
dti (s)             0.0000
dE/dt               10.000
dE/dt unit          mV/s
E1 (V)              0.450
vs.                 Ref
t1 (h:m:s)          0:00:0.0000
dt1 (s)             0.1000
Step percent        50
N                   10
E range min (V)     -1.000
E range max (V)     1.000
I Range             Auto
I Range min         Unset
I Range max         Unset
I Range init        Unset
Bandwidth           5
E2 (V)              0.350
vs.                 Ref
t2 (h:m:s)          0:00:0.0000
dt2 (s)             0.1000
nc cycles           9
nr                  1
Reverse Scan        0
Ef (V)              0.000
vs.                 Eoc
tf (h:m:s)          0:00:0.0000
dtf (s)             0.1000

mode	ox/red	error	control changes	Ns changes	counter inc.	time/s	control/V	Ewe/V	<I>/mA	cycle number	(Q-Qo)/C	I Range	Ns	step time/s	P/W
2	1	0	0	0	0	0.000000000000000E+000	0.349989	0.34961	0.0219797	1	0.0000000E+000	12	0	0.000000000000000E+000	7.68431e-06
2	1	0	1	0	0	0.3272	0.35326	0.352809	0.0279104	1	1.10623e-05	12	0	0.2997	9.84706e-06
2	1	0	1	0	0	0.6768	0.356756	0.356297	0.041933	1	2.37126e-05	12	0	0.6493	1.49406e-05
2	1	0	1	0	0	1.0264	0.360253	0.359817	0.0457908	1	3.65356e-05	12	0	0.9989	1.64763e-05
2	1	0	1	0	0	1.3759	0.363748	0.363316	0.0351178	1	4.92462e-05	12	0	1.3484	1.27589e-05
2	1	0	1	0	0	1.7255	0.367244	0.366764	0.0252382	1	6.17497e-05	12	0	1.698	9.25646e-06
2	1	0	1	0	0	2.0751	0.370739	0.370341	0.0325461	1	7.40474e-05	12	0	2.0476	1.20532e-05
2	1	0	1	0	0	2.4247	0.374235	0.373781	0.0439633	1	8.63576e-05	12	0	2.3972	1.64327e-05
2	1	0	1	0	0	2.7743	0.377731	0.377266	0.0424376	1	9.85641e-05	12	0	2.7468	1.60103e-05
2	1	0	1	0	0	3.1239	0.381227	0.380787	0.0305536	1	0.000110585	12	0	3.0964	1.16344e-05
2	1	0	1	0	0	3.4735	0.384723	0.384313	0.0231303	1	0.000122238	12	0	3.446	8.88925e-06
2	1	0	1	0	0	3.8231	0.388219	0.387768	0.0327758	1	0.000133774	12	0	3.7956	1.27094e-05
2	1	0	1	0	0	4.1727	0.391715	0.391318	0.041257	1	0.000145234	12	0	4.1452	1.61446e-05
2	1	0	1	0	0	4.5223	0.39521	0.394768	0.0386935	1	0.000156639	12	0	4.4948	1.5275e-05
2	1	0	1	0	0	4.8718	0.398706	0.398273	0.0250134	1	0.000167741	12	0	4.8443	9.96218e-06
2	1	0	1	0	0	5.2214	0.402202	0.401816	0.0237339	1	0.00017862	12	0	5.1939	9.53668e-06
2	1	0	1	0	0	5.571	0.405698	0.40531	0.0356641	1	0.000189367	12	0	5.5435	1.4455e-05
2	1	0	1	0	0	5.9206	0.409195	0.408747	0.0402616	1	0.000200041	12	0	5.8931	1.64568e-05
2	1	0	1	0	0	6.2701	0.41269	0.412255	0.0294929	1	0.000210611	12	0	6.2426	1.21586e-05
2	1	0	1	0	0	6.6197	0.416186	0.415706	0.0205322	1	0.00022094	12	0	6.5922	8.53537e-06
2	1	0	1	0	0	6.9693	0.419681	0.419216	0.0227917	1	0.000231067	12	0	6.9418	9.55465e-06
2	1	0	1	0	0	7.3189	0.423177	0.422732	0.0325466	1	0.000241129	12	0	7.2914	1.37585e-05
2	1	0	1	0	0	7.6685	0.426673	0.42622	0.0377833	1	0.000251176	12	0	7.641	1.6104e-05
2	1	0	1	0	0	8.0181	0.430169	0.429705	0.033138	1	0.000261099	12	0	7.9906	1.42396e-05
2	1	0	1	0	0	8.3677	0.433665	0.43323	0.0235605	1	0.00027087	12	0	8.3402	1.02071e-05
2	1	0	1	0	0	8.7173	0.437161	0.436698	0.0183939	1	0.000280413	12	0	8.6898	8.03258e-06
2	1	0	1	0	0	9.0669	0.440657	0.440178	0.0219346	1	0.000289877	12	0	9.0394	9.65514e-06
2	1	0	1	0	0	9.4165	0.444152	0.44373	0.0288157	1	0.000299229	12	0	9.389	1.27864e-05
2	1	0	1	0	0	9.766	0.447648	0.447206	0.0358185	1	0.000308624	12	0	9.7385	1.60183e-05
2	1	0	1	0	0	10.0264	0.449747	0.449316	-0.0131695	1	0.00031476	12	0	0.000000000000000E+000	-5.91728e-06
2	0	0	1	0	0	10.376	0.44625	0.445783	-0.0307584	1	0.000307875	12	0	0.3496	-1.37116e-05
2	1	0	1	0	0	10.7256	0.442754	0.442288	-0.0271086	1	0.000300149	12	0	0.6992	-1.19898e-05
2	0	0	1	0	0	11.0752	0.439258	0.438757	-0.0194376	1	0.000292109	12	0	1.0488	-8.52839e-06
2	0	0	1	0	0	11.4247	0.435762	0.435308	-0.0143636	1	0.000283922	12	0	1.3983	-6.25261e-06
2	0	0	1	0	0	11.7743	0.432266	0.431779	-0.0203538	1	0.000275501	12	0	1.7479	-8.78833e-06
2	0	0	1	0	0	12.1239	0.428771	0.428287	-0.0284893	1	0.000266819	12	0	2.0975	-1.22016e-05
2	0	0	1	0	0	12.4735	0.425275	0.424795	-0.035554	1	0.000257828	12	0	2.4471	-1.51032e-05
2	1	0	1	0	0	12.8231	0.421779	0.421288	-0.0320406	1	0.000248625	12	0	2.7967	-1.34983e-05
2	0	0	1	0	0	13.1727	0.418283	0.417816	-0.0233044	1	0.000239267	12	0	3.1463	-9.73693e-06
2	0	0	1	0	0	13.5223	0.414787	0.414332	-0.018355	1	0.000229808	12	0	3.4959	-7.60508e-06
2	0	0	1	0	0	13.8719	0.411291	0.410836	-0.0211719	1	0.000220189	12	0	3.8455	-8.69819e-06
2	0	0	1	0	0	14.2215	0.407795	0.407345	-0.0297619	1	0.000210327	12	0	4.1951	-1.21234e-05
2	0	0	1	0	0	14.5711	0.4043	0.403839	-0.038018	1	0.000200259	12	0	4.5447	-1.53531e-05
2	0	0	1	0	0	14.9206	0.400805	0.400382	-0.0378088	1	0.000189822	12	0	4.8942	-1.51379e-05
2	0	0	1	0	0	15.2702	0.397308	0.396882	-0.0292381	1	0.000179266	12	0	5.2438	-1.16041e-05
2	0	0	1	0	0	15.6198	0.393812	0.393374	-0.0229737	1	0.000168515	12	0	5.5934	-9.03724e-06
2	0	0	1	0	0	15.9694	0.390316	0.389861	-0.0232831	1	0.00015766	12	0	5.943	-9.07717e-06
2	0	0	1	0	0	16.3189	0.38682	0.386385	-0.0350938	1	0.00014646	12	0	6.2925	-1.35597e-05
2	0	0	1	0	0	16.6685	0.383325	0.382898	-0.0423787	1	0.000134984	12	0	6.6421	-1.62267e-05
2	0	0	1	0	0	17.0181	0.379829	0.379383	-0.0424172	1	0.000123181	12	0	6.9917	-1.60924e-05
2	0	0	1	0	0	17.3677	0.376333	0.375941	-0.0346321	1	0.000111201	12	0	7.3413	-1.30196e-05
2	0	0	1	0	0	17.7173	0.372837	0.37239	-0.0279856	1	9.89887e-05	12	0	7.6909	-1.04216e-05
2	0	0	1	0	0	18.0669	0.369341	0.368926	-0.0253214	1	8.65968e-05	12	0	8.0405	-9.34172e-06
2	0	0	1	0	0	18.4165	0.365845	0.365421	-0.0293265	1	7.3933e-05	12	0	8.3901	-1.07165e-05
2	0	0	1	0	0	18.7661	0.362349	0.361888	-0.0363401	1	6.09666e-05	12	0	8.7397	-1.3151e-05
2	0	0	1	0	0	19.1157	0.358854	0.358437	-0.0453118	1	4.7668e-05	12	0	9.0893	-1.62414e-05
2	0	0	1	0	0	19.4653	0.355358	0.354879	-0.0498732	1	3.40415e-05	12	0	9.4389	-1.7699e-05
2	0	0	1	0	0	19.8148	0.351863	0.351439	-0.0488843	1	2.00872e-05	12	0	9.7884	-1.71798e-05
2	1	0	1	0	1	20.0311	0.350314	0.349884	0.00292205	2	1.27339e-05	12	0	0.000000000000000E+000	1.02238e-06
2	1	0	1	0	1	20.3807	0.353809	0.353359	0.031827	2	2.35555e-05	12	0	0.3496	1.12464e-05
2	1	0	1	0	1	20.7303	0.357305	0.356842	0.0442535	2	3.56924e-05	12	0	0.6992	1.57915e-05
2	1	0	1	0	1	21.0799	0.360801	0.360357	0.0449788	2	4.80036e-05	12	0	1.0488	1.62085e-05
2	1	0	1	0	1	21.4295	0.364297	0.363882	0.0395411	2	6.03892e-05	12	0	1.3984	1.43883e-05
2	1	0	1	0	1	21.7791	0.367793	0.367328	0.0296549	2	7.25931e-05	12	0	1.748	1.08931e-05
2	1	0	1	0	1	22.1287	0.371289	0.370773	0.0245604	2	8.46784e-05	12	0	2.0976	9.10633e-06
2	1	0	1	0	1	22.4783	0.374785	0.374383	0.0271662	2	9.6559e-05	12	0	2.4472	1.01706e-05
2	1	0	1	0	1	22.8279	0.37828	0.377858	0.0378794	2	0.0001084	12	0	2.7968	1.4313e-05
2	1	0	1	0	1	23.1774	0.381775	0.381361	0.0429227	2	0.00012015	12	0	3.1463	1.63691e-05
2	1	0	1	0	1	23.527	0.385272	0.38482	0.0404856	2	0.000131754	12	0	3.4959	1.55797e-05
2	1	0	1	0	1	23.8766	0.388768	0.388352	0.0297718	2	0.000143196	12	0	3.8455	1.1562e-05
2	1	0	1	0	1	24.2262	0.392265	0.391816	0.0224293	2	0.000154361	12	0	4.1951	8.78815e-06
2	1	0	1	0	1	24.5757	0.39576	0.395263	0.0229689	2	0.00016539	12	0	4.5446	9.07876e-06
2	1	0	1	0	1	24.9253	0.399256	0.398826	0.028186	2	0.000176226	12	0	4.8942	1.12413e-05
2	1	0	1	0	1	25.2749	0.402751	0.402318	0.03682	2	0.000187036	12	0	5.2438	1.48133e-05
2	1	0	1	0	1	25.6245	0.406247	0.405854	0.0402411	2	0.000197698	12	0	5.5934	1.6332e-05
2	1	0	1	0	1	25.9741	0.409743	0.409287	0.0334981	2	0.000208236	12	0	5.943	1.37103e-05
2	1	0	1	0	1	26.3237	0.413239	0.412786	0.023217	2	0.000218544	12	0	6.2926	9.58366e-06
2	1	0	1	0	1	26.6733	0.416735	0.416256	0.019718	2	0.000228719	12	0	6.6422	8.20772e-06
2	1	0	1	0	1	27.0229	0.420231	0.419804	0.0231047	2	0.000238675	12	0	6.9918	9.69947e-06
2	1	0	1	0	1	27.3725	0.423727	0.423304	0.0308548	2	0.000248628	12	0	7.3414	1.30609e-05
2	1	0	1	0	1	27.7221	0.427222	0.426763	0.0362863	2	0.000258486	12	0	7.691	1.54857e-05
2	1	0	1	0	1	28.0716	0.430717	0.430248	0.036537	2	0.000268298	12	0	8.0405	1.572e-05
2	0	0	1	0	1	28.4212	0.434214	0.433732	0.0304443	2	0.000277919	12	0	8.3901	1.32047e-05
2	1	0	1	0	1	28.7708	0.43771	0.437283	0.0225265	2	0.000287436	12	0	8.7397	9.85044e-06
2	1	0	1	0	1	29.1204	0.441207	0.440771	0.0176256	2	0.000296782	12	0	9.0893	7.76886e-06
2	1	0	1	0	1	29.4699	0.444702	0.444291	0.0206153	2	0.000306017	12	0	9.4388	9.1592e-06
2	1	0	1	0	1	29.8195	0.448198	0.447717	0.0260943	2	0.000315193	12	0	9.7884	1.16828e-05
2	0	0	1	0	1	30.0749	0.449246	0.448756	-0.0138693	2	0.000319136	12	0	0.0499	-6.22395e-06
2	0	0	1	0	1	30.4245	0.445751	0.445318	-0.0228538	2	0.000311941	12	0	0.3995	-1.01772e-05
2	0	0	1	0	1	30.7741	0.442255	0.441772	-0.0287052	2	0.000304193	12	0	0.7491	-1.26811e-05
2	0	0	1	0	1	31.1237	0.438759	0.438301	-0.0332287	2	0.000296031	12	0	1.0987	-1.45642e-05
2	0	0	1	0	1	31.4733	0.435263	0.434805	-0.0317746	2	0.000287669	12	0	1.4483	-1.38158e-05
2	0	0	1	0	1	31.8229	0.431767	0.431268	-0.0285069	2	0.000279051	12	0	1.7979	-1.22941e-05
2	0	0	1	0	1	32.1725	0.428271	0.427834	-0.0213204	2	0.000270311	12	0	2.1475	-9.1216e-06
2	0	0	1	0	1	32.5221	0.424775	0.424343	-0.0177294	2	0.000261354	12	0	2.4971	-7.52336e-06
2	0	0	1	0	1	32.8717	0.42128	0.420795	-0.0170102	2	0.000252277	12	0	2.8467	-7.15782e-06
2	0	0	1	0	1	33.2213	0.417784	0.417282	-0.0222994	2	0.000242963	12	0	3.1963	-9.30511e-06
2	0	0	1	0	1	33.5708	0.414288	0.413828	-0.0303653	2	0.00023346	12	0	3.5458	-1.2566e-05
2	0	0	1	0	1	33.9204	0.410792	0.410351	-0.0366087	2	0.000223682	12	0	3.8954	-1.50224e-05
2	0	0	1	0	1	34.27	0.407296	0.406854	-0.0372333	2	0.000213751	12	0	4.245	-1.51485e-05
2	0	0	1	0	1	34.6196	0.4038	0.403351	-0.0358207	2	0.00020359	12	0	4.5946	-1.44483e-05
2	0	0	1	0	1	34.9691	0.400304	0.399828	-0.0281432	2	0.000193214	12	0	4.9441	-1.12524e-05
2	0	0	1	0	1	35.3187	0.396808	0.396375	-0.0221712	2	0.000182713	12	0	5.2937	-8.78809e-06
2	0	0	1	0	1	35.6683	0.393313	0.392858	-0.0215628	2	0.000171976	12	0	5.6433	-8.47111e-06
2	0	0	1	0	1	36.0179	0.389817	0.389352	-0.025013	2	0.000161069	12	0	5.9929	-9.73887e-06
2	0	0	1	0	1	36.3675	0.386321	0.385864	-0.0303858	2	0.000149856	12	0	6.3425	-1.17248e-05
2	0	0	1	0	1	36.7171	0.382825	0.382398	-0.0374238	2	0.000138426	12	0	6.6921	-1.43108e-05
2	0	0	1	0	1	37.0667	0.379329	0.378867	-0.0428371	2	0.000126696	12	0	7.0417	-1.62296e-05
2	0	0	1	0	1	37.4163	0.375833	0.375392	-0.0445951	2	0.000114724	12	0	7.3913	-1.67407e-05
2	0	0	1	0	1	37.7659	0.372338	0.371941	-0.0426435	2	0.000102429	12	0	7.7409	-1.58609e-05
2	0	0	1	0	1	38.1155	0.368842	0.368416	-0.0354674	2	8.99454e-05	12	0	8.0905	-1.30668e-05
2	0	0	1	0	1	38.465	0.365347	0.364875	-0.0286528	2	7.72289e-05	12	0	8.44	-1.04547e-05
2	0	0	1	0	1	38.8146	0.36185	0.361395	-0.0276685	2	6.43167e-05	12	0	8.7896	-9.99927e-06
2	0	0	1	0	1	39.1642	0.358354	0.357878	-0.0382723	2	5.10828e-05	12	0	9.1392	-1.36968e-05
2	0	0	1	0	1	39.5138	0.354857	0.354458	-0.0473298	2	3.75397e-05	12	0	9.4888	-1.67764e-05
2	0	0	1	0	1	39.8633	0.351362	0.350937	-0.0517717	2	2.35889e-05	12	0	9.8383	-1.81686e-05
2	1	0	1	0	0	40.0797	0.350813	0.350415	0.0181426	3	1.93717e-05	12	0	0.05	6.35745e-06
2	1	0	1	0	0	40.4293	0.354309	0.353881	0.0272136	3	3.08128e-05	12	0	0.3996	9.63036e-06
2	1	0	1	0	0	40.7789	0.357805	0.357352	0.0353999	3	4.28683e-05	12	0	0.7492	1.26502e-05
2	1	0	1	0	0	41.1285	0.361301	0.360852	0.0448132	3	5.51167e-05	12	0	1.0988	1.6171e-05
2	1	0	1	0	0	41.4781	0.364796	0.364367	0.0449261	3	6.74121e-05	12	0	1.4484	1.63696e-05
2	1	0	1	0	0	41.8276	0.368291	0.367829	0.0376301	3	7.9623e-05	12	0	1.7979	1.38414e-05
2	1	0	1	0	0	42.1772	0.371788	0.371338	0.0278286	3	9.16833e-05	12	0	2.1475	1.03338e-05
2	1	0	1	0	0	42.5268	0.375284	0.374827	0.0233855	3	0.000103498	12	0	2.4971	8.7655e-06
2	1	0	1	0	0	42.8764	0.378781	0.378331	0.0279325	3	0.000115196	12	0	2.8467	1.05677e-05
2	1	0	1	0	0	43.2259	0.382276	0.381822	0.0371653	3	0.000126732	12	0	3.1962	1.41905e-05
2	1	0	1	0	0	43.5755	0.385772	0.385304	0.0420336	3	0.000138243	12	0	3.5458	1.61957e-05
2	1	0	1	0	0	43.9251	0.389267	0.388864	0.0408073	3	0.000149611	12	0	3.8954	1.58685e-05
2	1	0	1	0	0	44.2747	0.392763	0.3923	0.030476	3	0.000160839	12	0	4.245	1.19557e-05
2	1	0	1	0	0	44.6243	0.396259	0.395777	0.0231713	3	0.00017179	12	0	4.5946	9.17067e-06
2	1	0	1	0	0	44.9739	0.399755	0.399314	0.0215463	3	0.000182592	12	0	4.9442	8.60376e-06
2	1	0	1	0	0	45.3235	0.403251	0.402825	0.0251612	3	0.000193194	12	0	5.2938	1.01355e-05
2	1	0	1	0	0	45.6731	0.406747	0.406335	0.0332165	3	0.000203748	12	0	5.6434	1.3497e-05
2	1	0	1	0	0	46.0227	0.410243	0.409763	0.0374363	3	0.000214085	12	0	5.993	1.534e-05
2	1	0	1	0	0	46.3723	0.413738	0.413248	0.0385343	3	0.000224446	12	0	6.3426	1.59242e-05
2	0	0	1	0	0	46.7218	0.417233	0.416787	0.0297281	3	0.000234624	12	0	6.6921	1.23903e-05
2	1	0	1	0	0	47.0714	0.42073	0.420294	0.0199744	3	0.000244633	12	0	7.0417	8.3951e-06
2	1	0	1	0	0	47.421	0.424226	0.423773	0.0195589	3	0.000254426	12	0	7.3913	8.28852e-06
2	1	0	1	0	0	47.7706	0.427723	0.427255	0.0287402	3	0.000264168	12	0	7.7409	1.22794e-05
2	1	0	1	0	0	48.1201	0.431218	0.430771	0.0342174	3	0.000273836	12	0	8.0904	1.47399e-05
2	1	0	1	0	0	48.4697	0.434714	0.434224	0.0369902	3	0.000283482	12	0	8.44	1.6062e-05
2	0	0	1	0	0	48.8193	0.438209	0.437733	0.0291134	3	0.000292994	12	0	8.7896	1.27439e-05
2	1	0	1	0	0	49.1689	0.441705	0.441221	0.0209891	3	0.000302377	12	0	9.1392	9.26082e-06
2	1	0	1	0	0	49.5185	0.445201	0.444765	0.0186063	3	0.000311529	12	0	9.4888	8.27541e-06
2	1	0	1	0	0	49.8681	0.448697	0.448252	0.0284229	3	0.000320679	12	0	9.8384	1.27406e-05
2	0	0	1	0	0	50.1235	0.448747	0.448265	-0.0187364	3	0.000322333	12	0	0.0999	-8.39885e-06
2	0	0	1	0	0	50.4731	0.445251	0.44483	-0.0304723	3	0.00031499	12	0	0.4495	-1.3555e-05
2	0	0	1	0	0	50.8227	0.441755	0.441288	-0.0295287	3	0.000307099	12	0	0.7991	-1.30307e-05
2	0	0	1	0	0	51.1723	0.438259	0.437777	-0.0162449	3	0.000298987	12	0	1.1487	-7.11163e-06
2	0	0	1	0	0	51.5219	0.434764	0.434266	-0.015978	3	0.000290682	12	0	1.4983	-6.93873e-06
2	0	0	1	0	0	51.8715	0.431268	0.4308	-0.0236073	3	0.000282218	12	0	1.8479	-1.017e-05
2	0	0	1	0	0	52.221	0.427772	0.427343	-0.0332452	3	0.000273402	12	0	2.1974	-1.42071e-05
2	0	0	1	0	0	52.5706	0.424276	0.423831	-0.0343844	3	0.000264363	12	0	2.547	-1.45732e-05
2	0	0	1	0	0	52.9202	0.42078	0.420326	-0.0292687	3	0.000255111	12	0	2.8966	-1.23024e-05
2	0	0	1	0	0	53.2698	0.417283	0.416798	-0.0227273	3	0.000245784	12	0	3.2462	-9.47271e-06
2	0	0	1	0	0	53.6193	0.413788	0.413337	-0.0188725	3	0.000236274	12	0	3.5957	-7.80071e-06
2	0	0	1	0	0	53.9689	0.410293	0.409843	-0.0212123	3	0.000226645	12	0	3.9453	-8.69373e-06
2	0	0	1	0	0	54.3185	0.406797	0.40634	-0.0356041	3	0.000216765	12	0	4.2949	-1.44674e-05
2	0	0	1	0	0	54.6681	0.403301	0.402844	-0.0369416	3	0.000206564	12	0	4.6445	-1.48817e-05
2	0	0	1	0	0	55.0177	0.399805	0.399376	-0.0292567	3	0.00019612	12	0	4.9941	-1.16844e-05
2	0	0	1	0	0	55.3673	0.396309	0.395827	-0.021773	3	0.00018564	12	0	5.3437	-8.61835e-06
2	0	0	1	0	0	55.7169	0.392813	0.392375	-0.0228653	3	0.000174925	12	0	5.6933	-8.97176e-06
2	0	0	1	0	0	56.0665	0.389317	0.388882	-0.033279	3	0.000164024	12	0	6.0429	-1.29416e-05
2	0	0	1	0	0	56.4161	0.385822	0.385349	-0.0425099	3	0.000152746	12	0	6.3925	-1.63812e-05
2	0	0	1	0	0	56.7657	0.382326	0.381885	-0.0420303	3	0.000141243	12	0	6.7421	-1.60507e-05
2	0	0	1	0	0	57.1152	0.378831	0.378359	-0.0359236	3	0.000129477	12	0	7.0916	-1.3592e-05
2	0	0	1	0	0	57.4648	0.375334	0.37491	-0.0278416	3	0.000117557	12	0	7.4412	-1.04381e-05
2	0	0	1	0	0	57.8144	0.371838	0.371431	-0.0249465	3	0.000105418	12	0	7.7908	-9.2659e-06
2	0	0	1	0	0	58.164	0.368341	0.367898	-0.0298471	3	9.30314e-05	12	0	8.1404	-1.09807e-05
2	0	0	1	0	0	58.5135	0.364846	0.364366	-0.042241	3	8.03347e-05	12	0	8.4899	-1.53912e-05
2	0	0	1	0	0	58.8631	0.361351	0.360917	-0.0477886	3	6.72534e-05	12	0	8.8395	-1.72477e-05
2	0	0	1	0	0	59.2127	0.357855	0.357403	-0.0470578	3	5.38667e-05	12	0	9.1891	-1.68186e-05
2	0	0	1	0	0	59.5623	0.354359	0.353903	-0.0353865	3	4.02222e-05	12	0	9.5387	-1.25234e-05
2	0	0	1	0	0	59.9119	0.350863	0.350461	-0.0299511	3	2.64e-05	12	0	9.8883	-1.04967e-05
2	1	0	1	0	1	60.1283	0.351312	0.350872	0.0424337	4	2.57383e-05	12	0	0.1	1.48888e-05
2	0	0	1	0	1	60.4778	0.354807	0.35441	0.0391932	4	3.75474e-05	12	0	0.4495	1.38905e-05
2	1	0	1	0	1	60.8274	0.358304	0.357839	0.0309379	4	4.97189e-05	12	0	0.7991	1.10708e-05
2	1	0	1	0	1	61.177	0.3618	0.361352	0.0236797	4	6.18505e-05	12	0	1.1487	8.55669e-06
2	1	0	1	0	1	61.5266	0.365297	0.364894	0.0314236	4	7.39957e-05	12	0	1.4983	1.14663e-05
2	1	0	1	0	1	61.8761	0.368792	0.368407	0.0422698	4	8.60806e-05	12	0	1.8478	1.55725e-05
2	1	0	1	0	1	62.2257	0.372288	0.371871	0.0443583	4	9.81818e-05	12	0	2.1974	1.64956e-05
2	1	0	1	0	1	62.5753	0.375783	0.375299	0.0384035	4	0.000110082	12	0	2.547	1.44128e-05
2	1	0	1	0	1	62.9249	0.379279	0.378824	0.0265183	4	0.000121834	12	0	2.8966	1.00458e-05
2	1	0	1	0	1	63.2745	0.382775	0.382336	0.0225983	4	0.000133272	12	0	3.2462	8.64013e-06
2	1	0	1	0	1	63.6241	0.386271	0.385801	0.0322408	4	0.000144612	12	0	3.5958	1.24385e-05
2	1	0	1	0	1	63.9737	0.389767	0.389297	0.0373802	4	0.000155873	12	0	3.9454	1.4552e-05
2	1	0	1	0	1	64.3233	0.393263	0.392856	0.0417019	4	0.000167036	12	0	4.295	1.63828e-05
2	1	0	1	0	1	64.6729	0.396759	0.396307	0.0399114	4	0.000178042	12	0	4.6446	1.58172e-05
2	1	0	1	0	1	65.0225	0.400254	0.399814	0.0353148	4	0.000188929	12	0	4.9942	1.41193e-05
2	1	0	1	0	1	65.372	0.40375	0.403309	0.0267274	4	0.00019958	12	0	5.3437	1.07794e-05
2	1	0	1	0	1	65.7216	0.407246	0.406806	0.0218331	4	0.000210077	12	0	5.6933	8.88183e-06
2	1	0	1	0	1	66.0712	0.410742	0.410302	0.0198746	4	0.00022028	12	0	6.0429	8.1546e-06
2	1	0	1	0	1	66.4208	0.414239	0.413787	0.0263397	4	0.000230456	12	0	6.3925	1.08991e-05
2	1	0	1	0	1	66.7703	0.417734	0.417271	0.0282692	4	0.000240515	12	0	6.742	1.17959e-05
2	1	0	1	0	1	67.1199	0.42123	0.420822	0.0323214	4	0.000250531	12	0	7.0916	1.36015e-05
2	1	0	1	0	1	67.4695	0.424725	0.42429	0.0343238	4	0.000260381	12	0	7.4412	1.45633e-05
2	1	0	1	0	1	67.8191	0.428221	0.427762	0.0377052	4	0.00027021	12	0	7.7908	1.61289e-05
2	1	0	1	0	1	68.1687	0.431717	0.431236	0.034106	4	0.00027991	12	0	8.1404	1.47077e-05
2	1	0	1	0	1	68.5183	0.435213	0.434752	0.0309159	4	0.000289489	12	0	8.49	1.34408e-05
2	0	0	1	0	1	68.8679	0.438709	0.438223	0.0276397	4	0.000298915	12	0	8.8396	1.21123e-05
2	1	0	1	0	1	69.2175	0.442205	0.441791	0.0249327	4	0.000308264	12	0	9.1892	1.1015e-05
2	1	0	1	0	1	69.5671	0.445701	0.445262	0.0205842	4	0.000317477	12	0	9.5388	9.16538e-06
2	1	0	1	0	1	69.9167	0.449196	0.448749	0.0179767	4	0.000326617	12	0	9.8884	8.06703e-06
2	0	0	1	0	1	70.1721	0.448247	0.44782	-0.0167092	4	0.000325667	12	0	0.1	-7.48271e-06
2	0	0	1	0	1	70.5217	0.444752	0.444281	-0.0156191	4	0.000318277	12	0	0.4496	-6.93926e-06
2	0	0	1	0	1	70.8712	0.441256	0.4408	-0.0151359	4	0.000310423	12	0	0.7991	-6.67192e-06
2	0	0	1	0	1	71.2208	0.43776	0.437284	-0.014941	4	0.000302316	12	0	1.1487	-6.53345e-06
2	0	0	1	0	1	71.5704	0.434264	0.433756	-0.0157321	4	0.000293949	12	0	1.4983	-6.82391e-06
2	0	0	1	0	1	71.92	0.430767	0.430314	-0.0188219	4	0.000285424	12	0	1.8479	-8.09932e-06
2	0	0	1	0	1	72.2695	0.427272	0.426816	-0.0221407	4	0.000276627	12	0	2.1974	-9.45e-06
2	0	0	1	0	1	72.6191	0.423777	0.423296	-0.0262917	4	0.000267663	12	0	2.547	-1.11292e-05
2	0	0	1	0	1	72.9687	0.420281	0.419834	-0.0295214	4	0.000258448	12	0	2.8966	-1.23941e-05
2	0	0	1	0	1	73.3183	0.416785	0.416313	-0.0299299	4	0.000249105	12	0	3.2462	-1.24602e-05
2	0	0	1	0	1	73.6679	0.413289	0.412785	-0.0334883	4	0.000239486	12	0	3.5958	-1.38235e-05
2	0	0	1	0	1	74.0175	0.409793	0.409299	-0.0367303	4	0.000229732	12	0	3.9454	-1.50337e-05
2	0	0	1	0	1	74.3671	0.406297	0.405809	-0.0385832	4	0.000219782	12	0	4.295	-1.56574e-05
2	0	0	1	0	1	74.7167	0.402801	0.402373	-0.0389888	4	0.000209638	12	0	4.6446	-1.56881e-05
2	0	0	1	0	1	75.0663	0.399306	0.398835	-0.0396302	4	0.00019922	12	0	4.9942	-1.58059e-05
2	0	0	1	0	1	75.4159	0.39581	0.395339	-0.0385954	4	0.000188667	12	0	5.3438	-1.52583e-05
2	0	0	1	0	1	75.7654	0.392315	0.391853	-0.0390172	4	0.000177815	12	0	5.6933	-1.5289e-05
2	0	0	1	0	1	76.115	0.388818	0.388339	-0.0368838	4	0.000166826	12	0	6.0429	-1.43234e-05
2	0	0	1	0	1	76.4646	0.385322	0.384896	-0.0374882	4	0.000155545	12	0	6.3925	-1.44291e-05
2	1	0	1	0	1	76.8142	0.381825	0.381367	-0.0363615	4	0.000144117	12	0	6.7421	-1.38671e-05
2	0	0	1	0	1	77.1637	0.37833	0.377885	-0.0349066	4	0.000132391	12	0	7.0916	-1.31907e-05
2	0	0	1	0	1	77.5133	0.374835	0.374399	-0.0305727	4	0.000120445	12	0	7.4412	-1.14464e-05
2	0	0	1	0	1	77.8629	0.371339	0.370886	-0.0301492	4	0.000108224	12	0	7.7908	-1.11819e-05
2	0	0	1	0	1	78.2125	0.367843	0.367414	-0.0262326	4	9.57928e-05	12	0	8.1404	-9.6382e-06
2	0	0	1	0	1	78.5621	0.364347	0.363874	-0.0273778	4	8.30669e-05	12	0	8.49	-9.96208e-06
2	0	0	1	0	1	78.9117	0.360851	0.360384	-0.0267558	4	7.00858e-05	12	0	8.8396	-9.64235e-06
2	0	0	1	0	1	79.2613	0.357355	0.356913	-0.0292889	4	5.67859e-05	12	0	9.1892	-1.04536e-05
2	0	0	1	0	1	79.6109	0.353859	0.353435	-0.0303368	4	4.3249e-05	12	0	9.5388	-1.07221e-05
2	0	0	1	0	1	79.9605	0.350364	0.349923	-0.0337088	4	2.9342e-05	12	0	9.8884	-1.17955e-05
2	1	0	1	0	0	80.1768	0.351813	0.351352	0.0424087	5	3.22617e-05	12	0	0.1499	1.49004e-05
2	1	0	1	0	0	80.5263	0.355308	0.354873	0.0419262	5	4.41106e-05	12	0	0.4994	1.48785e-05
2	1	0	1	0	0	80.8759	0.358804	0.358352	0.040412	5	5.62707e-05	12	0	0.849	1.44817e-05
2	1	0	1	0	0	81.2255	0.362299	0.361863	0.0368549	5	6.84946e-05	12	0	1.1986	1.33364e-05
2	1	0	1	0	0	81.5751	0.365795	0.365363	0.0293153	5	8.06904e-05	12	0	1.5482	1.07107e-05
2	1	0	1	0	0	81.9247	0.369291	0.368832	0.0263829	5	9.27361e-05	12	0	1.8978	9.73086e-06
2	1	0	1	0	0	82.2743	0.372787	0.372396	0.0238342	5	0.000104678	12	0	2.2474	8.87575e-06
2	1	0	1	0	0	82.6239	0.376283	0.375817	0.0237419	5	0.000116443	12	0	2.597	8.92261e-06
2	1	0	1	0	0	82.9735	0.379779	0.37935	0.034627	5	0.000128054	12	0	2.9466	1.31357e-05
2	1	0	1	0	0	83.3231	0.383275	0.382847	0.0413545	5	0.000139659	12	0	3.2962	1.58325e-05
2	1	0	1	0	0	83.6727	0.38677	0.386345	0.0262171	5	0.000151088	12	0	3.6458	1.01289e-05
2	1	0	1	0	0	84.0222	0.390266	0.389846	0.0239194	5	0.000162187	12	0	3.9953	9.32489e-06
2	1	0	1	0	0	84.3718	0.393762	0.393328	0.036437	5	0.000173209	12	0	4.3449	1.43317e-05
2	1	0	1	0	0	84.7214	0.397258	0.396806	0.0404787	5	0.000184222	12	0	4.6945	1.60622e-05
2	1	0	1	0	0	85.071	0.400755	0.400325	0.0253734	5	0.000195047	12	0	5.0441	1.01576e-05
2	1	0	1	0	0	85.4205	0.40425	0.403769	0.0205129	5	0.000205585	12	0	5.3936	8.28246e-06
2	1	0	1	0	0	85.7701	0.407746	0.407279	0.0239707	5	0.000215946	12	0	5.7432	9.76277e-06
2	1	0	1	0	0	86.1197	0.411241	0.410762	0.0320687	5	0.000226199	12	0	6.0928	1.31726e-05
2	1	0	1	0	0	86.4693	0.414737	0.414283	0.0366133	5	0.000236446	12	0	6.4424	1.51683e-05
2	1	0	1	0	0	86.8189	0.418233	0.41779	0.0380394	5	0.000246572	12	0	6.792	1.58925e-05
2	1	0	1	0	0	87.1685	0.421729	0.421261	0.0215658	5	0.000256579	12	0	7.1416	9.08484e-06
2	1	0	1	0	0	87.5181	0.425225	0.424801	0.0251835	5	0.000266253	12	0	7.4912	1.0698e-05
2	1	0	1	0	0	87.8677	0.428721	0.428251	0.0368496	5	0.000276044	12	0	7.8408	1.57809e-05
2	1	0	1	0	0	88.2173	0.432217	0.431723	0.0205496	5	0.000285674	12	0	8.1904	8.87172e-06
2	1	0	1	0	0	88.5669	0.435712	0.43524	0.0270779	5	0.000295049	12	0	8.54	1.17854e-05
2	1	0	1	0	0	88.9164	0.439208	0.438734	0.0344517	5	0.000304507	12	0	8.8895	1.51151e-05
2	1	0	1	0	0	89.266	0.442704	0.442236	0.0179426	5	0.000313839	12	0	9.2391	7.93486e-06
2	1	0	1	0	0	89.6755	0.446799	0.446352	0.0351218	5	0.000323676	12	0	9.6486	1.56767e-05
2	1	0	1	0	0	89.9934	0.450021	0.449573	0.0207266	5	0.00033217	12	0	9.9665	9.31812e-06
2	0	0	1	0	0	90.3205	0.446749	0.446294	-0.0231487	5	0.00032617	12	0	0.2997	-1.03311e-05
2	0	0	1	0	0	90.6701	0.443253	0.442768	-0.0313134	5	0.000318465	12	0	0.6493	-1.38646e-05
2	0	0	1	0	0	91.0197	0.439758	0.439287	-0.0315356	5	0.000310451	12	0	0.9989	-1.38532e-05
2	0	0	1	0	0	91.3692	0.436263	0.435819	-0.029222	5	0.000302121	12	0	1.3484	-1.27355e-05
2	1	0	1	0	0	91.7188	0.432766	0.432313	-0.0211591	5	0.000293667	12	0	1.698	-9.14735e-06
2	0	0	1	0	0	92.0684	0.42927	0.428833	-0.0162077	5	0.000285039	12	0	2.0476	-6.9504e-06
2	0	0	1	0	0	92.418	0.425773	0.425289	-0.019365	5	0.000276262	12	0	2.3972	-8.23575e-06
2	0	0	1	0	0	92.7675	0.422278	0.421833	-0.0274221	5	0.00026723	12	0	2.7467	-1.15675e-05
2	0	0	1	0	0	93.1171	0.418782	0.418326	-0.0341991	5	0.000257942	12	0	3.0963	-1.43063e-05
2	0	0	1	0	0	93.4667	0.415287	0.414779	-0.0350433	5	0.000248401	12	0	3.4459	-1.45352e-05
2	0	0	1	0	0	93.8163	0.411791	0.411327	-0.021629	5	0.00023873	12	0	3.7955	-8.8966e-06
2	0	0	1	0	0	94.1659	0.408295	0.407809	-0.0201599	5	0.000229003	12	0	4.1451	-8.22137e-06
2	0	0	1	0	0	94.5155	0.404799	0.404355	-0.0330196	5	0.000219117	12	0	4.4947	-1.33517e-05
2	0	0	1	0	0	94.8651	0.401303	0.400852	-0.0385642	5	0.000208792	12	0	4.8443	-1.54586e-05
2	0	0	1	0	0	95.2147	0.397807	0.397344	-0.0241255	5	0.000198307	12	0	5.1939	-9.58614e-06
2	0	0	1	0	0	95.5643	0.394311	0.393882	-0.0224912	5	0.000187773	12	0	5.5435	-8.85888e-06
2	0	0	1	0	0	95.9139	0.390816	0.390412	-0.0396343	5	0.000176924	12	0	5.8931	-1.54737e-05
2	0	0	1	0	0	96.2634	0.387321	0.386843	-0.0363282	5	0.000165709	12	0	6.2426	-1.40533e-05
2	0	0	1	0	0	96.613	0.383824	0.383384	-0.0221489	5	0.000154438	12	0	6.5922	-8.49151e-06
2	0	0	1	0	0	96.9626	0.380328	0.37983	-0.0380635	5	0.000142996	12	0	6.9418	-1.44577e-05
2	0	0	1	0	0	97.3122	0.376832	0.376344	-0.0422961	5	0.000131084	12	0	7.2914	-1.59179e-05
2	0	0	1	0	0	97.6617	0.373336	0.372895	-0.0265014	5	0.000119024	12	0	7.6409	-9.88224e-06
2	0	0	1	0	0	98.0113	0.369841	0.369377	-0.033457	5	0.000106857	12	0	7.9905	-1.23582e-05
2	0	0	1	0	0	98.3609	0.366345	0.365888	-0.0469524	5	9.42369e-05	12	0	8.3401	-1.71793e-05
2	0	0	1	0	0	98.7105	0.362849	0.362411	-0.0387942	5	8.12883e-05	12	0	8.6897	-1.40594e-05
2	0	0	1	0	0	99.0601	0.359353	0.358863	-0.0270423	5	6.8253e-05	12	0	9.0393	-9.70448e-06
2	0	0	1	0	0	99.4097	0.355857	0.355394	-0.0369108	5	5.4981e-05	12	0	9.3889	-1.31179e-05
2	0	0	1	0	0	99.7593	0.352361	0.351901	-0.050738	5	4.12702e-05	12	0	9.7385	-1.78548e-05
2	0	0	1	0	1	99.998	0.350039	0.349629	-0.0269529	6	3.15092e-05	12	0	9.9772	-9.4235e-06
2	1	0	1	0	1	100.325	0.35331	0.352942	0.0333626	6	4.11212e-05	12	0	0.2997	1.17751e-05
2	1	0	1	0	1	100.675	0.356806	0.356383	0.0445033	6	5.31813e-05	12	0	0.6493	1.58602e-05
2	1	0	1	0	1	101.024	0.360302	0.359852	0.0421498	6	6.54474e-05	12	0	0.9988	1.51677e-05
2	1	0	1	0	1	101.374	0.363798	0.36335	0.0320029	6	7.77069e-05	12	0	1.3484	1.16283e-05
2	1	0	1	0	1	101.723	0.367293	0.366812	0.0235114	6	8.97437e-05	12	0	1.698	8.62425e-06
2	1	0	1	0	1	102.073	0.370789	0.370397	0.0299385	6	0.000101692	12	0	2.0476	1.10891e-05
2	1	0	1	0	1	102.423	0.374285	0.373843	0.0408863	6	0.000113564	12	0	2.3972	1.52851e-05
2	1	0	1	0	1	102.772	0.377781	0.377414	0.043947	6	0.000125406	12	0	2.7468	1.65862e-05
2	1	0	1	0	1	103.122	0.381277	0.380878	0.0356302	6	0.000137077	12	0	3.0964	1.35708e-05
2	1	0	1	0	1	103.471	0.384773	0.38433	0.0261973	6	0.000148507	12	0	3.446	1.00684e-05
2	1	0	1	0	1	103.821	0.388269	0.387869	0.0215322	6	0.00015973	12	0	3.7956	8.35169e-06
2	1	0	1	0	1	104.171	0.391764	0.391371	0.0235283	6	0.000170794	12	0	4.1452	9.20829e-06
2	1	0	1	0	1	104.52	0.395259	0.394857	0.029972	6	0.000181722	12	0	4.4947	1.18347e-05
2	1	0	1	0	1	104.87	0.398756	0.398316	0.0388739	6	0.000192555	12	0	4.8443	1.54841e-05
2	1	0	1	0	1	105.219	0.402252	0.401806	0.0399645	6	0.000203331	12	0	5.1939	1.6058e-05
2	1	0	1	0	1	105.569	0.405749	0.405277	0.0340906	6	0.00021391	12	0	5.5435	1.38161e-05
2	1	0	1	0	1	105.918	0.409244	0.408769	0.0254472	6	0.000224259	12	0	5.893	1.0402e-05
2	1	0	1	0	1	106.268	0.41274	0.412267	0.0194469	6	0.000234422	12	0	6.2426	8.01731e-06
2	1	0	1	0	1	106.618	0.416236	0.415774	0.0240137	6	0.000244486	12	0	6.5922	9.98426e-06
2	1	0	1	0	1	106.967	0.419731	0.419201	0.0311215	6	0.000254432	12	0	6.9418	1.30462e-05
2	1	0	1	0	1	107.317	0.423227	0.4228	0.0368744	6	0.000264375	12	0	7.2914	1.55905e-05
2	1	0	1	0	1	107.666	0.426723	0.426309	0.0362171	6	0.000274157	12	0	7.641	1.54397e-05
2	1	0	1	0	1	108.016	0.430219	0.429795	0.0287537	6	0.000283887	12	0	7.9906	1.23582e-05
2	1	0	1	0	1	108.366	0.433715	0.433271	0.0199235	6	0.00029337	12	0	8.3402	8.63227e-06
2	1	0	1	0	1	108.715	0.437211	0.436745	0.0181477	6	0.00030277	12	0	8.6898	7.92594e-06
2	1	0	1	0	1	109.065	0.440706	0.440226	0.0180665	6	0.000312053	12	0	9.0394	7.95333e-06
2	1	0	1	0	1	109.414	0.444202	0.443705	0.0217515	6	0.00032128	12	0	9.389	9.65125e-06
2	1	0	1	0	1	109.764	0.447698	0.447259	0.0273113	6	0.000330406	12	0	9.7385	1.22152e-05
2	0	0	1	0	1	110.019	0.449747	0.449276	-0.00557918	6	0.000336378	12	0	0.000000000000000E+000	-2.5066e-06
2	0	0	1	0	1	110.369	0.44625	0.4458	-0.0216555	6	0.000329535	12	0	0.3496	-9.65404e-06
2	0	0	1	0	1	110.719	0.442754	0.442305	-0.0284287	6	0.000321831	12	0	0.6992	-1.25742e-05
2	0	0	1	0	1	111.068	0.439258	0.438778	-0.0321431	6	0.000313762	12	0	1.0488	-1.41037e-05
2	0	0	1	0	1	111.418	0.435762	0.435299	-0.0328809	6	0.000305466	12	0	1.3983	-1.4313e-05
2	0	0	1	0	1	111.767	0.432266	0.431824	-0.0301996	6	0.000296894	12	0	1.7479	-1.30409e-05
2	0	0	1	0	1	112.117	0.428771	0.42832	-0.021916	6	0.000288195	12	0	2.0975	-9.38707e-06
2	0	0	1	0	1	112.466	0.425275	0.424839	-0.0179381	6	0.000279289	12	0	2.4471	-7.6208e-06
2	0	0	1	0	1	112.816	0.421779	0.421295	-0.0172844	6	0.000270301	12	0	2.7967	-7.28184e-06
2	0	0	1	0	1	113.166	0.418283	0.417856	-0.0235004	6	0.000261058	12	0	3.1463	-9.8198e-06
2	0	0	1	0	1	113.515	0.414787	0.41432	-0.037062	6	0.000251562	12	0	3.4959	-1.53555e-05
2	0	0	1	0	1	113.865	0.411291	0.410787	-0.0269446	6	0.000241781	12	0	3.8455	-1.10685e-05
2	0	0	1	0	1	114.214	0.407795	0.407329	-0.0180022	6	0.000232057	12	0	4.1951	-7.3328e-06
2	0	0	1	0	1	114.564	0.4043	0.403896	-0.0332755	6	0.000222139	12	0	4.5447	-1.34399e-05
2	0	0	1	0	1	114.914	0.400805	0.400371	-0.0371815	6	0.00021182	12	0	4.8942	-1.48864e-05
2	0	0	1	0	1	115.263	0.397308	0.396861	-0.0233856	6	0.000201345	12	0	5.2438	-9.28082e-06
2	0	0	1	0	1	115.613	0.393812	0.393353	-0.0223193	6	0.000190804	12	0	5.5934	-8.77937e-06
2	0	0	1	0	1	115.962	0.390316	0.389846	-0.0359088	6	0.000179967	12	0	5.943	-1.39989e-05
2	0	0	1	0	1	116.312	0.38682	0.386371	-0.0414354	6	0.000168772	12	0	6.2925	-1.60094e-05
2	0	0	1	0	1	116.661	0.383325	0.382887	-0.0297423	6	0.000157369	12	0	6.6421	-1.1388e-05
2	0	0	1	0	1	117.011	0.379829	0.379373	-0.0230814	6	0.00014593	12	0	6.9917	-8.75644e-06
2	0	0	1	0	1	117.361	0.376333	0.375883	-0.0392707	6	0.000134194	12	0	7.3413	-1.47612e-05
2	0	0	1	0	1	117.71	0.372837	0.372412	-0.044044	6	0.000122021	12	0	7.6909	-1.64025e-05
2	0	0	1	0	1	118.06	0.369341	0.368893	-0.0312209	6	0.000109647	12	0	8.0405	-1.15172e-05
2	0	0	1	0	1	118.409	0.365845	0.36537	-0.0257618	6	9.71368e-05	12	0	8.3901	-9.41261e-06
2	0	0	1	0	1	118.759	0.362349	0.361863	-0.0331489	6	8.438e-05	12	0	8.7397	-1.19954e-05
2	0	0	1	0	1	119.109	0.358854	0.358372	-0.039805	6	7.12561e-05	12	0	9.0893	-1.4265e-05
2	0	0	1	0	1	119.458	0.355358	0.354882	-0.0459425	6	5.7873e-05	12	0	9.4389	-1.63042e-05
2	0	0	1	0	1	119.808	0.351863	0.35148	-0.0498696	6	4.41104e-05	12	0	9.7884	-1.75282e-05
2	0	0	1	0	0	120.024	0.350314	0.349885	0.00146465	7	3.68632e-05	12	0	10.0047	5.12459e-07
2	1	0	1	0	0	120.374	0.353809	0.353321	0.0239273	7	4.77555e-05	12	0	0.2996	8.45403e-06
2	1	0	1	0	0	120.723	0.357305	0.356819	0.0287824	7	5.97056e-05	12	0	0.6492	1.02701e-05
2	1	0	1	0	0	121.073	0.360801	0.36037	0.0346103	7	7.18798e-05	12	0	0.9988	1.24725e-05
2	1	0	1	0	0	121.422	0.364297	0.363832	0.0381115	7	8.40585e-05	12	0	1.3484	1.38662e-05
2	1	0	1	0	0	121.772	0.367793	0.367386	0.0439401	7	9.6207e-05	12	0	1.698	1.6143e-05
2	1	0	1	0	0	122.122	0.371289	0.370842	0.0418092	7	0.000108304	12	0	2.0476	1.55046e-05
2	1	0	1	0	0	122.471	0.374785	0.374344	0.0280269	7	0.000120212	12	0	2.3972	1.04917e-05
2	1	0	1	0	0	122.821	0.37828	0.377842	0.0229233	7	0.000131879	12	0	2.7468	8.66139e-06
2	1	0	1	0	0	123.17	0.381775	0.381356	0.0233891	7	0.000143391	12	0	3.0963	8.91957e-06
2	1	0	1	0	0	123.52	0.385272	0.384863	0.0243825	7	0.000154741	12	0	3.4459	9.3839e-06
2	1	0	1	0	0	123.87	0.388768	0.38832	0.0282948	7	0.000165958	12	0	3.7955	1.09875e-05
2	1	0	1	0	0	124.219	0.392265	0.391817	0.0344829	7	0.000177047	12	0	4.1451	1.3511e-05
2	1	0	1	0	0	124.569	0.39576	0.39533	0.0391287	7	0.000188019	12	0	4.4946	1.54687e-05
2	1	0	1	0	0	124.918	0.399256	0.398796	0.0401269	7	0.000198866	12	0	4.8442	1.60024e-05
2	1	0	1	0	0	125.268	0.402751	0.402295	0.038573	7	0.000209581	12	0	5.1938	1.55177e-05
2	1	0	1	0	0	125.617	0.406247	0.405823	0.0319373	7	0.000220138	12	0	5.5434	1.29609e-05
2	1	0	1	0	0	125.967	0.409743	0.40926	0.0265291	7	0.00023041	12	0	5.893	1.08573e-05
2	1	0	1	0	0	126.317	0.413239	0.412775	0.0235095	7	0.000240622	12	0	6.2426	9.70415e-06
2	1	0	1	0	0	126.666	0.416735	0.416254	0.020908	7	0.000250686	12	0	6.5922	8.70305e-06
2	1	0	1	0	0	127.016	0.420231	0.419772	0.0189803	7	0.000260629	12	0	6.9418	7.96741e-06
2	1	0	1	0	0	127.365	0.423727	0.423226	0.0188802	7	0.000270403	12	0	7.2914	7.9906e-06
2	1	0	1	0	0	127.715	0.427222	0.426764	0.0208192	7	0.000280112	12	0	7.641	8.88489e-06
2	1	0	1	0	0	128.065	0.430717	0.4302	0.0249393	7	0.000289664	12	0	7.9905	1.07289e-05
2	1	0	1	0	0	128.414	0.434214	0.433791	0.0305673	7	0.000299171	12	0	8.3401	1.32598e-05
2	1	0	1	0	0	128.764	0.43771	0.437235	0.0317989	7	0.000308551	12	0	8.6897	1.39036e-05
2	1	0	1	0	0	129.113	0.441207	0.440736	0.0346209	7	0.000317936	12	0	9.0393	1.52587e-05
2	1	0	1	0	0	129.463	0.444702	0.444228	0.0347888	7	0.000327153	12	0	9.3888	1.54542e-05
2	1	0	1	0	0	129.812	0.448198	0.447715	0.03546	7	0.000336363	12	0	9.7384	1.5876e-05
2	0	0	1	0	0	130.068	0.449246	0.448761	-0.0266483	7	0.000340131	12	0	0.0499	-1.19587e-05
2	0	0	1	0	0	130.417	0.445751	0.445288	-0.0313574	7	0.000332915	12	0	0.3995	-1.39631e-05
2	0	0	1	0	0	130.767	0.442255	0.441777	-0.0294206	7	0.000325101	12	0	0.7491	-1.29974e-05
2	0	0	1	0	0	131.117	0.438759	0.438285	-0.0233844	7	0.000316997	12	0	1.0987	-1.0249e-05
2	0	0	1	0	0	131.466	0.435263	0.434759	-0.0182474	7	0.000308693	12	0	1.4483	-7.93321e-06
2	0	0	1	0	0	131.816	0.431767	0.431284	-0.0155027	7	0.000300256	12	0	1.7979	-6.68608e-06
2	0	0	1	0	0	132.165	0.428271	0.427846	-0.0166693	7	0.000291578	12	0	2.1475	-7.13188e-06
2	0	0	1	0	0	132.515	0.424775	0.424291	-0.0212097	7	0.000282758	12	0	2.4971	-8.9991e-06
2	0	0	1	0	0	132.865	0.42128	0.42078	-0.0273346	7	0.00027367	12	0	2.8467	-1.15019e-05
2	0	0	1	0	0	133.214	0.417784	0.417339	-0.0325846	7	0.000264396	12	0	3.1963	-1.35988e-05
2	0	0	1	0	0	133.564	0.414288	0.413825	-0.0355773	7	0.000254882	12	0	3.5458	-1.47228e-05
2	0	0	1	0	0	133.913	0.410792	0.410322	-0.0370462	7	0.000245219	12	0	3.8954	-1.52009e-05
2	0	0	1	0	0	134.263	0.407296	0.406858	-0.0374151	7	0.000235339	12	0	4.245	-1.52226e-05
2	1	0	1	0	0	134.613	0.4038	0.403358	-0.0342583	7	0.000225276	12	0	4.5946	-1.38184e-05
2	0	0	1	0	0	134.962	0.400304	0.399869	-0.032116	7	0.000214962	12	0	4.9441	-1.28422e-05
2	0	0	1	0	0	135.312	0.396808	0.396363	-0.0268791	7	0.000204526	12	0	5.2937	-1.06539e-05
2	0	0	1	0	0	135.661	0.393313	0.392838	-0.0240293	7	0.000193842	12	0	5.6433	-9.43961e-06
2	0	0	1	0	0	136.011	0.389817	0.38937	-0.0215901	7	0.00018302	12	0	5.9929	-8.40652e-06
2	0	0	1	0	0	136.36	0.386321	0.38588	-0.0242944	7	0.000171958	12	0	6.3425	-9.37473e-06
2	0	0	1	0	0	136.71	0.382825	0.382409	-0.0354422	7	0.000160686	12	0	6.6921	-1.35534e-05
2	0	0	1	0	0	137.06	0.379329	0.378854	-0.043437	7	0.000149063	12	0	7.0417	-1.64563e-05
2	0	0	1	0	0	137.409	0.375833	0.375396	-0.0438884	7	0.000137205	12	0	7.3913	-1.64755e-05
2	0	0	1	0	0	137.759	0.372338	0.371883	-0.0432573	7	0.000125066	12	0	7.7409	-1.60867e-05
2	0	0	1	0	0	138.108	0.368842	0.368411	-0.0379037	7	0.000112678	12	0	8.0905	-1.39641e-05
2	0	0	1	0	0	138.458	0.365347	0.36487	-0.0307622	7	0.000100088	12	0	8.44	-1.12242e-05
2	0	0	1	0	0	138.808	0.36185	0.361342	-0.0287469	7	8.7218e-05	12	0	8.7896	-1.03875e-05
2	0	0	1	0	0	139.157	0.358354	0.357891	-0.0276799	7	7.41235e-05	12	0	9.1392	-9.90639e-06
2	0	0	1	0	0	139.507	0.354857	0.354376	-0.0300924	7	6.07676e-05	12	0	9.4888	-1.0664e-05
2	0	0	1	0	0	139.856	0.351362	0.350911	-0.0324611	7	4.7102e-05	12	0	9.8383	-1.1391e-05
2	1	0	1	0	1	140.073	0.350813	0.350319	0.0397954	8	4.29104e-05	12	0	0.05	1.39411e-05
2	1	0	1	0	1	140.422	0.354309	0.353854	0.0432443	8	5.44234e-05	12	0	0.3996	1.53022e-05
2	1	0	1	0	1	140.772	0.357805	0.357335	0.0423741	8	6.65307e-05	12	0	0.7492	1.51417e-05
2	1	0	1	0	1	141.121	0.361301	0.360851	0.0394251	8	7.87071e-05	12	0	1.0988	1.42266e-05
2	1	0	1	0	1	141.471	0.364796	0.36431	0.0340254	8	9.09192e-05	12	0	1.4484	1.23958e-05
2	1	0	1	0	1	141.821	0.368291	0.367845	0.0277045	8	0.000102949	12	0	1.7979	1.0191e-05
2	1	0	1	0	1	142.17	0.371788	0.37141	0.025448	8	0.000114901	12	0	2.1475	9.45163e-06
2	1	0	1	0	1	142.52	0.375284	0.374839	0.0230322	8	0.00012668	12	0	2.4971	8.63336e-06
2	1	0	1	0	1	142.869	0.378781	0.378396	0.0234057	8	0.00013836	12	0	2.8467	8.85665e-06
2	1	0	1	0	1	143.219	0.382276	0.381862	0.0223484	8	0.000149868	12	0	3.1962	8.53401e-06
2	1	0	1	0	1	143.568	0.385772	0.385329	0.0226604	8	0.000161222	12	0	3.5458	8.73172e-06
2	1	0	1	0	1	143.918	0.389267	0.388835	0.0225837	8	0.000172434	12	0	3.8954	8.78132e-06
2	1	0	1	0	1	144.268	0.392763	0.392308	0.0230816	8	0.000183466	12	0	4.245	9.05509e-06
2	1	0	1	0	1	144.617	0.396259	0.395799	0.023808	8	0.000194376	12	0	4.5946	9.42319e-06
2	1	0	1	0	1	144.967	0.399755	0.399329	0.0262058	8	0.000205095	12	0	4.9442	1.04648e-05
2	1	0	1	0	1	145.316	0.403251	0.402809	0.0297528	8	0.00021573	12	0	5.2938	1.19847e-05
2	1	0	1	0	1	145.666	0.406747	0.40632	0.037543	8	0.000226198	12	0	5.6434	1.52545e-05
2	1	0	1	0	1	146.016	0.410243	0.409788	0.0392829	8	0.000236534	12	0	5.993	1.60976e-05
2	1	0	1	0	1	146.365	0.413738	0.413273	0.035239	8	0.000246766	12	0	6.3426	1.45633e-05
2	1	0	1	0	1	146.715	0.417233	0.416743	0.0306313	8	0.000256883	12	0	6.6921	1.27654e-05
2	1	0	1	0	1	147.064	0.42073	0.420258	0.0241877	8	0.000266781	12	0	7.0417	1.01651e-05
2	1	0	1	0	1	147.414	0.424226	0.423767	0.0206804	8	0.000276596	12	0	7.3913	8.76368e-06
2	1	0	1	0	1	147.764	0.427723	0.427251	0.0193022	8	0.000286248	12	0	7.7409	8.2469e-06
2	1	0	1	0	1	148.113	0.431218	0.430743	0.0187446	8	0.00029583	12	0	8.0904	8.0741e-06
2	1	0	1	0	1	148.463	0.434714	0.434238	0.0177315	8	0.000305252	12	0	8.44	7.6997e-06
2	1	0	1	0	1	148.812	0.438209	0.437716	0.0181309	8	0.000314602	12	0	8.7896	7.93618e-06
2	1	0	1	0	1	149.162	0.441705	0.44121	0.0174133	8	0.000323853	12	0	9.1392	7.68292e-06
2	1	0	1	0	1	149.511	0.445201	0.444732	0.0206952	8	0.000333035	12	0	9.4888	9.2038e-06
2	1	0	1	0	1	149.861	0.448697	0.448216	0.021102	8	0.000342123	12	0	9.8384	9.45825e-06
2	0	0	1	0	1	150.116	0.448747	0.448267	-0.0109313	8	0.000343687	12	0	0.0999	-4.90013e-06
2	0	0	1	0	1	150.466	0.445251	0.444828	-0.0139139	8	0.000336385	12	0	0.4495	-6.18927e-06
2	0	0	1	0	1	150.816	0.441755	0.441283	-0.0157191	8	0.000328641	12	0	0.7991	-6.93656e-06
2	0	0	1	0	1	151.165	0.438259	0.437766	-0.0179343	8	0.000320553	12	0	1.1487	-7.85103e-06
2	0	0	1	0	1	151.515	0.434764	0.434302	-0.021633	8	0.000312271	12	0	1.4983	-9.39523e-06
2	0	0	1	0	1	151.864	0.431268	0.430805	-0.0239026	8	0.000303725	12	0	1.8479	-1.02973e-05
2	0	0	1	0	1	152.214	0.427772	0.427279	-0.0266094	8	0.000295014	12	0	2.1974	-1.13696e-05
2	0	0	1	0	1	152.564	0.424276	0.423792	-0.0304421	8	0.00028605	12	0	2.547	-1.29011e-05
2	0	0	1	0	1	152.913	0.42078	0.420314	-0.0316388	8	0.00027696	12	0	2.8966	-1.32982e-05
2	0	0	1	0	1	153.263	0.417283	0.416834	-0.0337605	8	0.000267609	12	0	3.2462	-1.40725e-05
2	0	0	1	0	1	153.612	0.413788	0.413285	-0.0356546	8	0.000258143	12	0	3.5957	-1.47355e-05
2	0	0	1	0	1	153.962	0.410293	0.409797	-0.0371202	8	0.000248419	12	0	3.9453	-1.52118e-05
2	0	0	1	0	1	154.311	0.406797	0.406362	-0.0382382	8	0.000238599	12	0	4.2949	-1.55386e-05
2	0	0	1	0	1	154.661	0.403301	0.402851	-0.0292107	8	0.000228422	12	0	4.6445	-1.17675e-05
2	0	0	1	0	1	155.011	0.399805	0.399389	-0.0192231	8	0.00021824	12	0	4.9941	-7.67748e-06
2	0	0	1	0	1	155.36	0.396309	0.395859	-0.0288649	8	0.000207851	12	0	5.3437	-1.14265e-05
2	0	0	1	0	1	155.71	0.392813	0.392332	-0.0393712	8	0.000197142	12	0	5.6933	-1.54466e-05
2	0	0	1	0	1	156.059	0.389317	0.3889	-0.0387542	8	0.000186116	12	0	6.0429	-1.50715e-05
2	0	0	1	0	1	156.409	0.385822	0.385369	-0.0242144	8	0.000174988	12	0	6.3925	-9.33149e-06
2	0	0	1	0	1	156.759	0.382326	0.381903	-0.0231215	8	0.000163679	12	0	6.7421	-8.83014e-06
2	0	0	1	0	1	157.108	0.378831	0.378367	-0.0242583	8	0.000152159	12	0	7.0916	-9.17852e-06
2	0	0	1	0	1	157.458	0.375334	0.374896	-0.0271411	8	0.000140318	12	0	7.4412	-1.01751e-05
2	0	0	1	0	1	157.807	0.371838	0.371381	-0.027902	8	0.000128255	12	0	7.7908	-1.03623e-05
2	0	0	1	0	1	158.157	0.368341	0.367881	-0.0332938	8	0.000115901	12	0	8.1404	-1.22482e-05
2	0	0	1	0	1	158.506	0.364846	0.36444	-0.037464	8	0.000103325	12	0	8.4899	-1.36534e-05
2	0	0	1	0	1	158.856	0.361351	0.360855	-0.0455287	8	9.03868e-05	12	0	8.8395	-1.64292e-05
2	0	0	1	0	1	159.206	0.357855	0.357425	-0.0485909	8	7.72006e-05	12	0	9.1891	-1.73676e-05
2	0	0	1	0	1	159.555	0.354359	0.353917	-0.0487119	8	6.37124e-05	12	0	9.5387	-1.724e-05
2	0	0	1	0	1	159.905	0.350863	0.350431	-0.0464798	8	4.99389e-05	12	0	9.8883	-1.6288e-05
2	1	0	1	0	0	160.121	0.351312	0.350863	0.0228688	9	4.93292e-05	12	0	0.1	8.02383e-06
2	1	0	1	0	0	160.471	0.354807	0.354364	0.0306178	9	6.09956e-05	12	0	0.4495	1.08499e-05
2	1	0	1	0	0	160.82	0.358304	0.357841	0.0371035	9	7.30255e-05	12	0	0.7991	1.32772e-05
2	1	0	1	0	0	161.17	0.3618	0.361338	0.0438031	9	8.52508e-05	12	0	1.1487	1.58277e-05
2	1	0	1	0	0	161.52	0.365297	0.364874	0.0454281	9	9.74277e-05	12	0	1.4983	1.65755e-05
2	1	0	1	0	0	161.869	0.368792	0.368321	0.0434501	9	0.000109543	12	0	1.8478	1.60036e-05
2	0	0	1	0	0	162.219	0.372288	0.371823	0.039166	9	0.000121492	12	0	2.1974	1.45628e-05
2	1	0	1	0	0	162.568	0.375783	0.375324	0.0362073	9	0.000133329	12	0	2.547	1.35895e-05
2	1	0	1	0	0	162.918	0.379279	0.378831	0.0305381	9	0.000144952	12	0	2.8966	1.15688e-05
2	1	0	1	0	0	163.267	0.382775	0.382337	0.026321	9	0.000156438	12	0	3.2462	1.00635e-05
2	1	0	1	0	0	163.617	0.386271	0.385824	0.0232332	9	0.000167713	12	0	3.5958	8.96394e-06
2	1	0	1	0	0	163.967	0.389767	0.389293	0.0221528	9	0.000178895	12	0	3.9454	8.62393e-06
2	1	0	1	0	0	164.316	0.393263	0.392846	0.0219234	9	0.000189842	12	0	4.295	8.61254e-06
2	1	0	1	0	0	164.666	0.396759	0.396336	0.0256706	9	0.000200693	12	0	4.6446	1.01742e-05
2	1	0	1	0	0	165.015	0.400254	0.399804	0.0262333	9	0.000211377	12	0	4.9942	1.04882e-05
2	1	0	1	0	0	165.365	0.40375	0.403339	0.0297269	9	0.000221971	12	0	5.3437	1.199e-05
2	1	0	1	0	0	165.715	0.407246	0.406824	0.0319359	9	0.000232389	12	0	5.6933	1.29923e-05
2	1	0	1	0	0	166.064	0.410742	0.410265	0.0350881	9	0.000242634	12	0	6.0429	1.43954e-05
2	1	0	1	0	0	166.414	0.414239	0.413758	0.03699	9	0.00025281	12	0	6.3925	1.53049e-05
2	1	0	1	0	0	166.763	0.417734	0.417247	0.0382623	9	0.000262886	12	0	6.742	1.59648e-05
2	1	0	1	0	0	167.113	0.42123	0.420797	0.0368786	9	0.00027283	12	0	7.0916	1.55184e-05
2	1	0	1	0	0	167.462	0.424725	0.42426	0.034203	9	0.000282648	12	0	7.4412	1.4511e-05
2	0	0	1	0	0	167.812	0.428221	0.427771	0.0316879	9	0.000292341	12	0	7.7908	1.35552e-05
2	1	0	1	0	0	168.162	0.431717	0.431271	0.0298701	9	0.000301901	12	0	8.1404	1.28821e-05
2	1	0	1	0	0	168.511	0.435213	0.43471	0.0260176	9	0.000311343	12	0	8.49	1.13101e-05
2	1	0	1	0	0	168.861	0.438709	0.438215	0.022283	9	0.000320671	12	0	8.8396	9.76474e-06
2	1	0	1	0	0	169.21	0.442205	0.441711	0.0175016	9	0.000329898	12	0	9.1892	7.73063e-06
2	1	0	1	0	0	169.56	0.445701	0.445212	0.0185176	9	0.000338978	12	0	9.5388	8.24426e-06
2	1	0	1	0	0	169.91	0.449196	0.448749	0.0244004	9	0.000348044	12	0	9.8884	1.09497e-05
2	0	0	1	0	0	170.165	0.448247	0.44781	-0.0158146	9	0.000347395	12	0	0.1499	-7.08193e-06
2	0	0	1	0	0	170.515	0.444752	0.444229	-0.0227426	9	0.00033997	12	0	0.4995	-1.01029e-05
2	0	0	1	0	0	170.864	0.441256	0.440735	-0.0269902	9	0.000332155	12	0	0.849	-1.18955e-05
2	0	0	1	0	0	171.214	0.43776	0.43729	-0.0324103	9	0.000323971	12	0	1.1986	-1.41727e-05
2	0	0	1	0	0	171.563	0.434264	0.433775	-0.0327675	9	0.000315572	12	0	1.5482	-1.42137e-05
2	0	0	1	0	0	171.913	0.430767	0.43029	-0.0318011	9	0.00030695	12	0	1.8978	-1.36837e-05
2	1	0	1	0	0	172.262	0.427272	0.42674	-0.0244821	9	0.000298184	12	0	2.2473	-1.04475e-05
2	0	0	1	0	0	172.612	0.423777	0.423374	-0.0215127	9	0.000289224	12	0	2.5969	-9.1079e-06
2	0	0	1	0	0	172.962	0.420281	0.419831	-0.0199206	9	0.000280131	12	0	2.9465	-8.36328e-06
2	0	0	1	0	0	173.311	0.416785	0.416317	-0.0199368	9	0.000270821	12	0	3.2961	-8.30003e-06
2	0	0	1	0	0	173.661	0.413289	0.412867	-0.0188314	9	0.000261337	12	0	3.6457	-7.77485e-06
2	0	0	1	0	0	174.01	0.409793	0.409335	-0.0195507	9	0.000251663	12	0	3.9953	-8.00277e-06
2	0	0	1	0	0	174.36	0.406297	0.405827	-0.0183938	9	0.000241876	12	0	4.3449	-7.46472e-06
2	0	0	1	0	0	174.71	0.402801	0.402341	-0.0199574	9	0.000231824	12	0	4.6945	-8.02967e-06
2	0	0	1	0	0	175.059	0.399306	0.398852	-0.0202482	9	0.000221569	12	0	5.0441	-8.07603e-06
2	0	0	1	0	0	175.409	0.39581	0.395354	-0.0234197	9	0.000211121	12	0	5.3937	-9.25908e-06
2	0	0	1	0	0	175.758	0.392315	0.391876	-0.0259354	9	0.000200426	12	0	5.7432	-1.01634e-05
2	0	0	1	0	0	176.108	0.388818	0.388422	-0.0320252	9	0.000189538	12	0	6.0928	-1.24393e-05
2	0	0	1	0	0	176.458	0.385322	0.38488	-0.0391116	9	0.000178353	12	0	6.4424	-1.50533e-05
2	0	0	1	0	0	176.807	0.381825	0.381389	-0.043141	9	0.000166956	12	0	6.792	-1.64535e-05
2	0	0	1	0	0	177.157	0.37833	0.377933	-0.0433429	9	0.000155317	12	0	7.1415	-1.63807e-05
2	0	0	1	0	0	177.506	0.374835	0.374391	-0.0435824	9	0.000143407	12	0	7.4911	-1.63168e-05
2	0	0	1	0	0	177.856	0.371339	0.370896	-0.0428556	9	0.000131279	12	0	7.8407	-1.5895e-05
2	0	0	1	0	0	178.205	0.367843	0.367406	-0.0419516	9	0.000118874	12	0	8.1903	-1.54133e-05
2	0	0	1	0	0	178.555	0.364347	0.363928	-0.0390049	9	0.000106194	12	0	8.5399	-1.4195e-05
2	0	0	1	0	0	178.905	0.360851	0.360382	-0.0363633	9	9.32594e-05	12	0	8.8895	-1.31047e-05
2	0	0	1	0	0	179.254	0.357355	0.356911	-0.0359059	9	8.00584e-05	12	0	9.2391	-1.28152e-05
2	0	0	1	0	0	179.604	0.353859	0.35337	-0.0351624	9	6.66306e-05	12	0	9.5887	-1.24253e-05
2	0	0	1	0	0	179.953	0.350364	0.349909	-0.0322327	9	5.28684e-05	12	0	9.9383	-1.12785e-05
2	1	0	1	0	1	180.17	0.351813	0.351372	0.0361475	10	5.5821e-05	12	0	0.1499	1.27012e-05
2	1	0	1	0	1	180.519	0.355308	0.354853	0.0382493	10	6.76404e-05	12	0	0.4994	1.35729e-05
2	1	0	1	0	1	180.869	0.358804	0.358346	0.036991	10	7.96983e-05	12	0	0.849	1.32556e-05
2	1	0	1	0	1	181.218	0.362299	0.361844	0.0379588	10	9.18768e-05	12	0	1.1986	1.37352e-05
2	1	0	1	0	1	181.568	0.365795	0.365326	0.0363578	10	0.000103976	12	0	1.5482	1.32825e-05
2	1	0	1	0	1	181.918	0.369291	0.368831	0.039622	10	0.000116015	12	0	1.8978	1.46138e-05
2	1	0	1	0	1	182.267	0.372787	0.372337	0.0408276	10	0.000127893	12	0	2.2474	1.52016e-05
2	1	0	1	0	1	182.617	0.376283	0.375813	0.0414243	10	0.000139671	12	0	2.597	1.55678e-05
2	1	0	1	0	1	182.966	0.379779	0.379353	0.0399301	10	0.000151256	12	0	2.9466	1.51476e-05
2	1	0	1	0	1	183.316	0.383275	0.382843	0.0392532	10	0.000162717	12	0	3.2962	1.50278e-05
2	1	0	1	0	1	183.666	0.38677	0.38633	0.0408659	10	0.000174039	12	0	3.6458	1.57877e-05
2	1	0	1	0	1	184.015	0.390266	0.389796	0.0424847	10	0.000185247	12	0	3.9953	1.65604e-05
2	1	0	1	0	1	184.365	0.393762	0.39331	0.0405395	10	0.000196251	12	0	4.3449	1.59446e-05
2	1	0	1	0	1	184.714	0.397258	0.396859	0.0401759	10	0.000207149	12	0	4.6945	1.59442e-05
2	1	0	1	0	1	185.064	0.400755	0.400348	0.0379693	10	0.000217839	12	0	5.0441	1.52009e-05
2	1	0	1	0	1	185.413	0.40425	0.403795	0.0361294	10	0.000228422	12	0	5.3936	1.45889e-05
2	0	0	1	0	1	185.763	0.407746	0.407316	0.0312153	10	0.00023879	12	0	5.7432	1.27145e-05
2	1	0	1	0	1	186.113	0.411241	0.410781	0.0307288	10	0.000249022	12	0	6.0928	1.26228e-05
2	1	0	1	0	1	186.462	0.414737	0.414278	0.0282019	10	0.000259151	12	0	6.4424	1.16834e-05
2	1	0	1	0	1	186.812	0.418233	0.417748	0.0268113	10	0.000269155	12	0	6.792	1.12004e-05
2	1	0	1	0	1	187.161	0.421729	0.421285	0.0259905	10	0.000279028	12	0	7.1416	1.09494e-05
2	1	0	1	0	1	187.511	0.425225	0.424712	0.0275782	10	0.000288784	12	0	7.4912	1.17128e-05
2	1	0	1	0	1	187.861	0.428721	0.428238	0.0255419	10	0.000298421	12	0	7.8408	1.0938e-05
2	1	0	1	0	1	188.21	0.432217	0.431747	0.026238	10	0.000307948	12	0	8.1904	1.13282e-05
2	1	0	1	0	1	188.56	0.435712	0.435247	0.0241496	10	0.000317348	12	0	8.54	1.05111e-05
2	1	0	1	0	1	188.909	0.439208	0.438742	0.0207464	10	0.000326652	12	0	8.8895	9.10232e-06
2	1	0	1	0	1	189.259	0.442704	0.442264	0.0183921	10	0.000335882	12	0	9.2391	8.13415e-06
2	1	0	1	0	1	189.609	0.4462	0.445753	0.018204	10	0.000345011	12	0	9.5887	8.1145e-06
2	1	0	1	0	1	189.958	0.449697	0.449216	0.0163517	10	0.000354043	12	0	9.9383	7.34543e-06
2	0	0	1	0	1	190.214	0.447748	0.447344	-0.0135711	10	0.000350836	12	0	0.1998	-6.07095e-06
2	0	0	1	0	1	190.563	0.444252	0.443755	-0.0152343	10	0.000343315	12	0	0.5493	-6.76031e-06
2	0	0	1	0	1	190.913	0.440756	0.440278	-0.0147914	10	0.000335479	12	0	0.8989	-6.51235e-06
2	0	0	1	0	1	191.262	0.437261	0.43674	-0.0154082	10	0.000327306	12	0	1.2485	-6.72936e-06
2	0	0	1	0	1	191.612	0.433765	0.433277	-0.0151482	10	0.000318993	12	0	1.5981	-6.56334e-06
2	0	0	1	0	1	191.961	0.430269	0.429791	-0.0163058	10	0.000310418	12	0	1.9477	-7.00806e-06
2	0	0	1	0	1	192.311	0.426773	0.426331	-0.0171558	10	0.000301695	12	0	2.2973	-7.31403e-06
2	0	0	1	0	1	192.661	0.423277	0.42281	-0.0178879	10	0.000292706	12	0	2.6469	-7.56318e-06
2	0	0	1	0	1	193.01	0.419781	0.419304	-0.0178996	10	0.000283575	12	0	2.9965	-7.50536e-06
2	0	0	1	0	1	193.36	0.416285	0.415816	-0.0194816	10	0.000274221	12	0	3.3461	-8.10075e-06
2	0	0	1	0	1	193.709	0.41279	0.412319	-0.0189888	10	0.000264712	12	0	3.6957	-7.82942e-06
2	0	0	1	0	1	194.059	0.409294	0.408804	-0.0204322	10	0.000254989	12	0	4.0453	-8.35278e-06
2	0	0	1	0	1	194.409	0.405798	0.405348	-0.0203357	10	0.000245178	12	0	4.3948	-8.24303e-06
2	0	0	1	0	1	194.758	0.402302	0.401829	-0.0206696	10	0.000235046	12	0	4.7444	-8.30564e-06
2	0	0	1	0	1	195.108	0.398806	0.398365	-0.0205311	10	0.000224759	12	0	5.094	-8.17885e-06
2	0	0	1	0	1	195.457	0.395309	0.394839	-0.0214893	10	0.00021423	12	0	5.4436	-8.48483e-06
2	0	0	1	0	1	195.807	0.391814	0.391335	-0.0210774	10	0.000203525	12	0	5.7931	-8.24831e-06
2	0	0	1	0	1	196.156	0.388319	0.387848	-0.0235389	10	0.00019259	12	0	6.1427	-9.12953e-06
2	0	0	1	0	1	196.506	0.384823	0.384393	-0.0230796	10	0.000181456	12	0	6.4923	-8.87164e-06
2	0	0	1	0	1	196.856	0.381327	0.380876	-0.0247875	10	0.000170055	12	0	6.8419	-9.44097e-06
2	0	0	1	0	1	197.205	0.377831	0.377402	-0.0259986	10	0.000158483	12	0	7.1915	-9.81189e-06
2	0	0	1	0	1	197.555	0.374335	0.373904	-0.0270061	10	0.000146563	12	0	7.5411	-1.00977e-05
2	0	0	1	0	1	197.904	0.370839	0.370399	-0.0271119	10	0.000134456	12	0	7.8907	-1.00422e-05
2	0	0	1	0	1	198.254	0.367343	0.366878	-0.0328528	10	0.000122072	12	0	8.2403	-1.20529e-05
2	0	0	1	0	1	198.604	0.363848	0.363352	-0.0340184	10	0.000109453	12	0	8.5899	-1.23607e-05
2	0	0	1	0	1	198.953	0.360352	0.359851	-0.0361843	10	9.64855e-05	12	0	8.9395	-1.3021e-05
2	0	0	1	0	1	199.303	0.356856	0.356388	-0.0355785	10	8.32958e-05	12	0	9.289	-1.26798e-05
2	0	0	1	0	1	199.652	0.35336	0.352912	-0.0385183	10	6.98156e-05	12	0	9.6386	-1.35936e-05
2	0	0	1	0	1	199.982	0.350064	0.3496	-0.0587919	10	5.67642e-05	12	0	9.9683	-2.05537e-05
2	0	0	0	0	1	199.986	0.349989	0.34961	-0.0692983	10	5.65102e-05	12	0	9.9722	-2.42274e-05