File: ACS_Catal_2026/Figures_Na_K/main_figures/data/EC/20251112_2-148_alpha_reproducibility/20251112_2-148_002_alpha_reproducibility_2_K1_02_PEIS_C02.mpt
EC-Lab ASCII FILE
Nb header lines : 63

Potentio Electrochemical Impedance Spectroscopy

Run on channel : 2 (SN 69290)
User :
CE vs. WE compliance from -10 V to 10 V
Electrode connection : standard
Potential control : Ewe
Ewe ctrl range : min = -1.00 V, max = 1.00 V
Safety Limits :
	Do not start on E overload
Acquisition started on : 11/12/2025 13:25:42.107
Loaded Setting File :  C:\Users\User\Documents\EC-Lab\Data\Yatsuzuka\20251112_2-148_alpha_reproducibility\20251112_2-148_002_alpha_reproducibility_2_K1.mps
Saved on :
	File : 20251112_2-148_002_alpha_reproducibility_2_K1_02_PEIS_C02.mpr
	Directory : C:\Users\User\Documents\EC-Lab\Data\Yatsuzuka\20251112_2-148_alpha_reproducibility\
	Host : 192.109.209.127
Device : SP-150e (SN .003883)
Address : 192.109.209.128
EC-LAB for windows v11.52 (software)
Internet server v11.52 (firmware)
Command interpretor v11.50 (firmware)
Electrode material :
Initial state :
Electrolyte :
Comments :
Electrode surface area : 0.001 cm2
Characteristic mass : 0.001 g
Equivalent Weight : 0.000 g/eq.
Density : 0.000 g/cm3
Volume (V) : 0.001 cm3
Cycle Definition : Charge/Discharge alternance
Mode                Single sine
E (V)               0.4500
vs.                 Ref
tE (h:m:s)          0:00:0.0000
record              0
dI                  0.000
unit dI             mA
dt (s)              0.000
fi                  500.000
unit fi             kHz
ff                  1.000
unit ff             Hz
Nd                  6
Points              per decade
spacing             Logarithmic
Va (mV)             10.0
pw                  0.10
Na                  2
corr                0
E range min (V)     -1.000
E range max (V)     1.000
I Range             Auto
Bandwidth           5
nc cycles           0
goto Ns'            0
nr cycles           0
inc. cycle          0

freq/Hz	Re(Z)/Ohm	-Im(Z)/Ohm	|Z|/Ohm	Phase(Z)/deg	time/s	<Ewe>/V	<I>/mA	Cs/uF	Cp/uF	cycle number	I Range	|Ewe|/V	|I|/A	Ns	(Q-Qo)/mA.h	Re(Y)/Ohm-1	Im(Y)/Ohm-1	|Y|/Ohm-1	Phase(Y)/deg	Re(C)/nF	Im(C)/nF	|C|/nF	Phase(C)/deg	Re(M)	Im(M)	|M|	Phase(M)/deg	Re(Permittivity)	Im(Permittivity)	|Permittivity|	Phase(Permittivity)/deg	Re(Resistivity)/Ohm.cm	Im(Resistivity)/Ohm.cm	|Resistivity|/Ohm.cm	Phase(Resistivity)/deg	Re(Conductivity)/mS/cm	Im(Conductivity)/mS/cm	|Conductivity|/mS/cm	Phase(Conductivity)/deg	Tan(Delta)	Loss Angle(Delta)/deg	dq/mA.h	Pwe/W	Rwe/Ohm
500019	11.3699	-2.44144	11.6291	12.119	201.614	0.449781	0.0236145	-0.130373	-0.0057463	1	10	0.00387752	0.000333433	0	3.46081e-05	0.0840748	-0.0180532	0.0859913	-12.119	-5.7463	26.7609	27.3709	-102.119	0.0000000E+000	0.0000000E+000	0.0000000E+000	102.119	0.0000000E+000	0.0000000E+000	0.0000000E+000	-102.119	0.0000000E+000	0.0000000E+000	0.0000000E+000	12.119	0.0000000E+000	0.0000000E+000	0.0000000E+000	-12.119	4.65706	77.881	3.46081e-05	1.06214e-05	19046.8
339899	7.59645	-1.34547	7.71468	10.044	202.036	0.449676	0.0225835	-0.348013	-0.0105854	1	10	0.005875	0.000761535	0	3.68244e-05	0.127636	-0.0226067	0.129623	-10.044	-10.5854	59.7647	60.6949	-100.044	0.0000000E+000	0.0000000E+000	0.0000000E+000	100.044	0.0000000E+000	0.0000000E+000	0.0000000E+000	-100.044	0.0000000E+000	0.0000000E+000	0.0000000E+000	10.044	0.0000000E+000	0.0000000E+000	0.0000000E+000	-10.044	5.64595	79.956	2.21633e-06	1.01553e-05	19911.8
231063	6.28822	-0.632944	6.31999	5.74778	202.322	0.449539	0.0235046	-1.08824	-0.010915	1	10	0.0100272	0.00158659	0	3.96168e-05	0.157432	-0.0158465	0.158228	-5.74778	-10.915	108.439	108.987	-95.7478	0.0000000E+000	0.0000000E+000	0.0000000E+000	95.7478	0.0000000E+000	0.0000000E+000	0.0000000E+000	-95.7478	0.0000000E+000	0.0000000E+000	0.0000000E+000	5.74778	0.0000000E+000	0.0000000E+000	0.0000000E+000	-5.74778	9.93487	84.2522	2.7924e-06	1.05662e-05	19125.6
157076	5.87145	-0.226242	5.87581	2.20666	202.744	0.449522	0.0243231	-4.47855	-0.0066397	1	10	0.0108624	0.00184867	0	3.67308e-05	0.170063	-0.00655296	0.170189	-2.20666	-6.6397	172.314	172.442	-92.2067	0.0000000E+000	0.0000000E+000	0.0000000E+000	92.2067	0.0000000E+000	0.0000000E+000	0.0000000E+000	-92.2067	0.0000000E+000	0.0000000E+000	0.0000000E+000	2.20666	0.0000000E+000	0.0000000E+000	0.0000000E+000	-2.20666	25.9521	87.7933	-2.88603e-06	1.09338e-05	18481.3
106786	5.78475	-0.0399486	5.78489	0.395669	203.166	0.449538	0.0240397	-37.3081	-0.00177916	1	10	0.0109863	0.00189914	0	3.86074e-05	0.17286	-0.00119374	0.172864	-0.395669	-1.77916	257.632	257.638	-90.3957	0.0000000E+000	0.0000000E+000	0.0000000E+000	90.3957	0.0000000E+000	0.0000000E+000	0.0000000E+000	-90.3957	0.0000000E+000	0.0000000E+000	0.0000000E+000	0.395669	0.0000000E+000	0.0000000E+000	0.0000000E+000	-0.395669	144.805	89.6043	1.87664e-06	1.08067e-05	18699.8
72595	5.78168	0.0224505	5.78172	-0.222481	203.588	0.449535	0.0238495	97.6535	0.0014724	1	10	0.0107856	0.00186546	0	4.27147e-05	0.172958	0.000671601	0.172959	0.222481	1.4724	379.187	379.189	-89.7775	0.0000000E+000	0.0000000E+000	0.0000000E+000	89.7775	0.0000000E+000	0.0000000E+000	0.0000000E+000	-89.7775	0.0000000E+000	0.0000000E+000	0.0000000E+000	-0.222481	0.0000000E+000	0.0000000E+000	0.0000000E+000	0.222481	257.53	89.7775	4.10728e-06	1.07212e-05	18848.8
49352.4	5.79263	0.0379962	5.79276	-0.375821	204.01	0.449542	0.0232696	84.8734	0.00365159	1	10	0.0106448	0.0018376	0	4.5164e-05	0.172626	0.00113232	0.172629	0.375821	3.65162	556.695	556.707	-89.6242	0.0000000E+000	0.0000000E+000	0.0000000E+000	89.6242	0.0000000E+000	0.0000000E+000	0.0000000E+000	-89.6242	0.0000000E+000	0.0000000E+000	0.0000000E+000	-0.375821	0.0000000E+000	0.0000000E+000	0.0000000E+000	0.375821	152.453	89.6242	2.4493e-06	1.04607e-05	19318.8
33551.1	5.79635	0.0500266	5.79657	-0.49449	204.432	0.449543	0.0233554	94.8229	0.00706273	1	10	0.0105586	0.00182152	0	5.05905e-05	0.172509	0.00148888	0.172516	0.49449	7.06275	818.327	818.357	-89.5055	0.0000000E+000	0.0000000E+000	0.0000000E+000	89.5055	0.0000000E+000	0.0000000E+000	0.0000000E+000	-89.5055	0.0000000E+000	0.0000000E+000	0.0000000E+000	-0.49449	0.0000000E+000	0.0000000E+000	0.0000000E+000	0.49449	115.865	89.5055	5.42644e-06	1.04993e-05	19247.9
22806.6	5.81444	0.0502074	5.81465	-0.494735	204.854	0.449544	0.0228389	138.993	0.0103629	1	10	0.0104856	0.0018033	0	5.22625e-05	0.171973	0.00148498	0.171979	0.494735	10.3629	1200.11	1200.15	-89.5053	0.0000000E+000	0.0000000E+000	0.0000000E+000	89.5053	0.0000000E+000	0.0000000E+000	0.0000000E+000	-89.5053	0.0000000E+000	0.0000000E+000	0.0000000E+000	-0.494735	0.0000000E+000	0.0000000E+000	0.0000000E+000	0.494735	115.808	89.5053	1.67204e-06	1.02671e-05	19683.2
15504.4	5.82659	0.0500615	5.82681	-0.492267	205.276	0.449551	0.0229937	205.051	0.0151359	1	10	0.0104963	0.00180137	0	5.84028e-05	0.171614	0.00147449	0.171621	0.492267	15.1358	1761.65	1761.71	-89.5077	0.0000000E+000	0.0000000E+000	0.0000000E+000	89.5077	0.0000000E+000	0.0000000E+000	0.0000000E+000	-89.5077	0.0000000E+000	0.0000000E+000	0.0000000E+000	-0.492267	0.0000000E+000	0.0000000E+000	0.0000000E+000	0.492267	116.389	89.5077	6.1403e-06	1.03368e-05	19551.1
10540.4	5.82928	0.046868	5.82947	-0.460654	205.698	0.449549	0.0219197	322.172	0.0208248	1	10	0.0103322	0.0017724	0	5.99802e-05	0.171537	0.00137917	0.171542	0.460654	20.8249	2590.12	2590.21	-89.5393	0.0000000E+000	0.0000000E+000	0.0000000E+000	89.5393	0.0000000E+000	0.0000000E+000	0.0000000E+000	-89.5393	0.0000000E+000	0.0000000E+000	0.0000000E+000	-0.460654	0.0000000E+000	0.0000000E+000	0.0000000E+000	0.460654	124.377	89.5393	1.57745e-06	9.85399e-06	20508.9
7163.78	5.84054	0.0512941	5.84077	-0.503183	206.222	0.449536	0.0173349	433.122	0.0334045	1	10	0.0102213	0.00174999	0	6.11345e-05	0.171204	0.00150358	0.17121	0.503183	33.4044	3803.57	3803.71	-89.4968	0.0000000E+000	0.0000000E+000	0.0000000E+000	89.4968	0.0000000E+000	0.0000000E+000	0.0000000E+000	-89.4968	0.0000000E+000	0.0000000E+000	0.0000000E+000	-0.503183	0.0000000E+000	0.0000000E+000	0.0000000E+000	0.503183	113.864	89.4968	1.15428e-06	7.79264e-06	25932.4
4871.56	5.85144	0.0534068	5.85168	-0.522931	206.91	0.449536	0.0178719	611.724	0.050955	1	10	0.0101422	0.00173321	0	6.32134e-05	0.170884	0.00155968	0.170891	0.522931	50.9553	5582.82	5583.05	-89.4771	0.0000000E+000	0.0000000E+000	0.0000000E+000	89.4771	0.0000000E+000	0.0000000E+000	0.0000000E+000	-89.4771	0.0000000E+000	0.0000000E+000	0.0000000E+000	-0.522931	0.0000000E+000	0.0000000E+000	0.0000000E+000	0.522931	109.564	89.4771	2.07887e-06	8.03404e-06	25153.3
3311.06	5.85685	0.0530906	5.85709	-0.519356	207.375	0.44954	0.0192553	905.389	0.0743888	1	10	0.0108472	0.00185198	0	6.38202e-05	0.170726	0.00154759	0.170733	0.519356	74.3888	8206.42	8206.75	-89.4806	0.0000000E+000	0.0000000E+000	0.0000000E+000	89.4806	0.0000000E+000	0.0000000E+000	0.0000000E+000	-89.4806	0.0000000E+000	0.0000000E+000	0.0000000E+000	-0.519356	0.0000000E+000	0.0000000E+000	0.0000000E+000	0.519356	110.318	89.4806	6.06797e-07	8.65604e-06	23346.3
2250.72	5.86245	0.0641351	5.8628	-0.62679	208.062	0.449542	0.0176891	1102.56	0.131942	1	10	0.0101642	0.00173368	0	7.04086e-05	0.170557	0.00186589	0.170567	0.62679	131.943	12060.6	12061.3	-89.3732	0.0000000E+000	0.0000000E+000	0.0000000E+000	89.3732	0.0000000E+000	0.0000000E+000	0.0000000E+000	-89.3732	0.0000000E+000	0.0000000E+000	0.0000000E+000	-0.62679	0.0000000E+000	0.0000000E+000	0.0000000E+000	0.62679	91.4078	89.3732	6.58846e-06	7.95201e-06	25413.5
1530.49	5.86921	0.0750697	5.86969	-0.732797	208.527	0.44954	0.019054	1385.24	0.226581	1	10	0.0103408	0.00176173	0	7.24265e-05	0.170353	0.00217888	0.170367	0.732797	226.581	17714.9	17716.4	-89.2672	0.0000000E+000	0.0000000E+000	0.0000000E+000	89.2672	0.0000000E+000	0.0000000E+000	0.0000000E+000	-89.2672	0.0000000E+000	0.0000000E+000	0.0000000E+000	-0.732797	0.0000000E+000	0.0000000E+000	0.0000000E+000	0.732797	78.1835	89.2672	2.01787e-06	8.56551e-06	23593
1040.33	5.87923	0.104801	5.88017	-1.02123	208.992	0.449542	0.0178774	1459.76	0.463697	1	10	0.0104319	0.00177408	0	7.37237e-05	0.170036	0.003031	0.170063	1.02123	463.697	26012.9	26017.1	-88.9788	0.0000000E+000	0.0000000E+000	0.0000000E+000	88.9788	0.0000000E+000	0.0000000E+000	0.0000000E+000	-88.9788	0.0000000E+000	0.0000000E+000	0.0000000E+000	-1.02123	0.0000000E+000	0.0000000E+000	0.0000000E+000	1.02123	56.099	88.9788	1.2972e-06	8.03666e-06	25145.7
707.036	5.88407	0.143298	5.88582	-1.39508	209.457	0.449536	0.0190801	1570.86	0.931121	1	10	0.0104702	0.00177889	0	7.59096e-05	0.16985	0.00413645	0.1699	1.39508	931.119	38233.4	38244.7	-88.6049	0.0000000E+000	0.0000000E+000	0.0000000E+000	88.6049	0.0000000E+000	0.0000000E+000	0.0000000E+000	-88.6049	0.0000000E+000	0.0000000E+000	0.0000000E+000	-1.39508	0.0000000E+000	0.0000000E+000	0.0000000E+000	1.39508	41.0617	88.6049	2.18591e-06	8.57718e-06	23560.5
480.769	5.89305	0.195899	5.8963	-1.90395	209.922	0.449534	0.0166972	1689.86	1.86534	1	10	0.01049	0.00177908	0	7.85753e-05	0.169504	0.00563474	0.169598	1.90395	1865.34	56113.1	56144.1	-88.096	0.0000000E+000	0.0000000E+000	0.0000000E+000	88.096	0.0000000E+000	0.0000000E+000	0.0000000E+000	-88.096	0.0000000E+000	0.0000000E+000	0.0000000E+000	-1.90395	0.0000000E+000	0.0000000E+000	0.0000000E+000	1.90395	30.082	88.096	2.66567e-06	7.50596e-06	26922.7
326.778	5.91039	0.271829	5.91664	-2.63327	210.385	0.449534	0.0183529	1791.73	3.78193	1	10	0.0105076	0.00177594	0	8.00324e-05	0.168836	0.00776507	0.169015	2.63327	3781.92	82230.7	82317.6	-87.3667	0.0000000E+000	0.0000000E+000	0.0000000E+000	87.3667	0.0000000E+000	0.0000000E+000	0.0000000E+000	-87.3667	0.0000000E+000	0.0000000E+000	0.0000000E+000	-2.63327	0.0000000E+000	0.0000000E+000	0.0000000E+000	2.63327	21.7431	87.3667	1.45707e-06	8.25025e-06	24493.9
222.061	5.92863	0.385462	5.94114	-3.71997	210.846	0.449533	0.0159719	1859.37	7.8269	1	10	0.0105134	0.00176959	0	8.35255e-05	0.167963	0.0109205	0.168318	3.71997	7826.9	120382	120636	-86.28	0.0000000E+000	0.0000000E+000	0.0000000E+000	86.28	0.0000000E+000	0.0000000E+000	0.0000000E+000	-86.28	0.0000000E+000	0.0000000E+000	0.0000000E+000	-3.71997	0.0000000E+000	0.0000000E+000	0.0000000E+000	3.71997	15.3806	86.28	3.49311e-06	7.1799e-06	28145.2
151.015	5.95486	0.540723	5.97936	-5.18843	211.308	0.449529	0.0189943	1949.06	15.9392	1	10	0.0105202	0.00175942	0	8.49407e-05	0.166557	0.0151239	0.167242	5.18843	15939.1	175534	176257	-84.8116	0.0000000E+000	0.0000000E+000	0.0000000E+000	84.8116	0.0000000E+000	0.0000000E+000	0.0000000E+000	-84.8116	0.0000000E+000	0.0000000E+000	0.0000000E+000	-5.18843	0.0000000E+000	0.0000000E+000	0.0000000E+000	5.18843	11.0128	84.8116	1.41519e-06	8.53848e-06	23666.5
102.667	5.98509	0.761254	6.03331	-7.24863	211.783	0.449534	0.0174542	2036.38	32.4195	1	10	0.0105179	0.0017433	0	8.60499e-05	0.164422	0.0209131	0.165747	7.24863	32419.5	254887	256940	-82.7514	0.0000000E+000	0.0000000E+000	0.0000000E+000	82.7514	0.0000000E+000	0.0000000E+000	0.0000000E+000	-82.7514	0.0000000E+000	0.0000000E+000	0.0000000E+000	-7.24863	0.0000000E+000	0.0000000E+000	0.0000000E+000	7.24863	7.86214	82.7514	1.10925e-06	7.84626e-06	25755.1
69.7545	6.03347	1.07835	6.12908	-10.1334	212.25	0.449542	0.0192852	2115.87	65.4964	1	10	0.0105315	0.00171828	0	8.76794e-05	0.160612	0.0287058	0.163157	10.1334	65496.4	366459	372266	-79.8666	0.0000000E+000	0.0000000E+000	0.0000000E+000	79.8666	0.0000000E+000	0.0000000E+000	0.0000000E+000	-79.8666	0.0000000E+000	0.0000000E+000	0.0000000E+000	-10.1334	0.0000000E+000	0.0000000E+000	0.0000000E+000	10.1334	5.5951	79.8666	1.62945e-06	8.6695e-06	23310.3
47.4443	6.08836	1.5262	6.27673	-14.0726	212.694	0.449528	0.0152951	2197.99	129.951	1	10	0.010538	0.0016789	0	8.81733e-05	0.154537	0.0387385	0.159319	14.0726	129951	518404	534444	-75.9274	0.0000000E+000	0.0000000E+000	0.0000000E+000	75.9274	0.0000000E+000	0.0000000E+000	0.0000000E+000	-75.9274	0.0000000E+000	0.0000000E+000	0.0000000E+000	-14.0726	0.0000000E+000	0.0000000E+000	0.0000000E+000	14.0726	3.98923	75.9274	4.93911e-07	6.87557e-06	29390.3
32.2387	6.15215	2.16712	6.52268	-19.405	213.129	0.449529	0.0134306	2278.03	251.463	1	10	0.0105387	0.0016157	0	8.9841e-05	0.144602	0.0509368	0.153311	19.405	251463	713868	756863	-70.595	0.0000000E+000	0.0000000E+000	0.0000000E+000	70.595	0.0000000E+000	0.0000000E+000	0.0000000E+000	-70.595	0.0000000E+000	0.0000000E+000	0.0000000E+000	-19.405	0.0000000E+000	0.0000000E+000	0.0000000E+000	19.405	2.83886	70.595	1.66774e-06	6.03743e-06	33470.6
21.9144	6.22981	3.0852	6.9519	-26.3461	213.56	0.449519	0.0137848	2354	463.624	1	10	0.0105456	0.00151694	0	8.81042e-05	0.128904	0.0638376	0.143845	26.3461	463624	936174	1.04469e+06	-63.6539	0.0000000E+000	0.0000000E+000	0.0000000E+000	63.6539	0.0000000E+000	0.0000000E+000	0.0000000E+000	-63.6539	0.0000000E+000	0.0000000E+000	0.0000000E+000	-26.3461	0.0000000E+000	0.0000000E+000	0.0000000E+000	26.3461	2.01925	63.6539	-1.73685e-06	6.19654e-06	32609.8
14.9093	6.25165	4.47241	7.68671	-35.5798	214.028	0.449538	0.0180583	2386.82	808.019	1	10	0.0105628	0.00137416	0	9.01635e-05	0.105807	0.0756938	0.130095	35.5798	808019	1.12947e+06	1.38874e+06	-54.4202	0.0000000E+000	0.0000000E+000	0.0000000E+000	54.4202	0.0000000E+000	0.0000000E+000	0.0000000E+000	-54.4202	0.0000000E+000	0.0000000E+000	0.0000000E+000	-35.5798	0.0000000E+000	0.0000000E+000	0.0000000E+000	35.5798	1.39783	54.4202	2.05937e-06	8.11788e-06	24893.7
10.1329	6.42358	6.43204	9.0903	-45.0377	214.487	0.44953	0.0158842	2441.94	1222.58	1	10	0.0105619	0.00116188	0	9.95635e-05	0.0777357	0.0778382	0.110007	45.0377	1.22258e+06	1.22097e+06	1.72785e+06	-44.9623	0.0000000E+000	0.0000000E+000	0.0000000E+000	44.9623	0.0000000E+000	0.0000000E+000	0.0000000E+000	-44.9623	0.0000000E+000	0.0000000E+000	0.0000000E+000	-45.0377	0.0000000E+000	0.0000000E+000	0.0000000E+000	45.0377	0.998684	44.9623	9.39995e-06	7.14045e-06	28300.4
6.88933	6.602	9.24424	11.3597	-54.4665	215.04	0.449534	0.00157041	2499.03	1654.94	1	11	0.0105892	0.000932175	0	0.000100423	0.0511615	0.0716372	0.0880306	54.4665	1.65494e+06	1.18192e+06	2.03365e+06	-35.5335	0.0000000E+000	0.0000000E+000	0.0000000E+000	35.5335	0.0000000E+000	0.0000000E+000	0.0000000E+000	-35.5335	0.0000000E+000	0.0000000E+000	0.0000000E+000	-54.4665	0.0000000E+000	0.0000000E+000	0.0000000E+000	54.4665	0.714175	35.5335	8.59929e-07	7.05951e-07	286253
4.68375	6.7876	13.3981	15.0193	-63.1327	215.537	0.449551	0.00248884	2536.2	2018.22	1	11	0.0105765	0.000704196	0	9.06295e-05	0.0300896	0.059394	0.066581	63.1327	2.01822e+06	1.02245e+06	2.26244e+06	-26.8673	0.0000000E+000	0.0000000E+000	0.0000000E+000	26.8673	0.0000000E+000	0.0000000E+000	0.0000000E+000	-26.8673	0.0000000E+000	0.0000000E+000	0.0000000E+000	-63.1327	0.0000000E+000	0.0000000E+000	0.0000000E+000	63.1327	0.506611	26.8673	-9.7939e-06	1.11886e-06	180627
3.18099	7.15235	19.5023	20.7725	-69.8598	216.239	0.449548	0.00252953	2565.5	2261.35	1	11	0.0105765	0.000509157	0	9.25631e-05	0.0165757	0.0451969	0.0481406	69.8598	2.26135e+06	829334	2.40863e+06	-20.1402	0.0000000E+000	0.0000000E+000	0.0000000E+000	20.1402	0.0000000E+000	0.0000000E+000	0.0000000E+000	-20.1402	0.0000000E+000	0.0000000E+000	0.0000000E+000	-69.8598	0.0000000E+000	0.0000000E+000	0.0000000E+000	69.8598	0.366743	20.1402	1.9336e-06	1.13715e-06	177720
2.16533	7.48582	28.3254	29.2979	-75.1964	217.25	0.449561	0.00207138	2594.89	2425.49	1	11	0.0105741	0.000360917	0	0.000101493	0.00872099	0.0329992	0.0341321	75.1964	2.42549e+06	641006	2.50876e+06	-14.8036	0.0000000E+000	0.0000000E+000	0.0000000E+000	14.8036	0.0000000E+000	0.0000000E+000	0.0000000E+000	-14.8036	0.0000000E+000	0.0000000E+000	0.0000000E+000	-75.1964	0.0000000E+000	0.0000000E+000	0.0000000E+000	75.1964	0.264279	14.8036	8.92998e-06	9.31212e-07	217035
1.46962	8.24653	41.2877	42.1032	-78.7048	219.45	0.44956	0.00184733	2622.97	2522.35	1	12	0.0105833	0.000251364	0	0.000103456	0.00465201	0.0232911	0.0237511	78.7048	2.52235e+06	503797	2.57217e+06	-11.2952	0.0000000E+000	0.0000000E+000	0.0000000E+000	11.2952	0.0000000E+000	0.0000000E+000	0.0000000E+000	-11.2952	0.0000000E+000	0.0000000E+000	0.0000000E+000	-78.7048	0.0000000E+000	0.0000000E+000	0.0000000E+000	78.7048	0.199733	11.2952	1.96248e-06	8.30484e-07	243357
1.00006	9.00574	59.9187	60.5917	-81.4525	221.59	0.449558	0.00117486	2656.01	2597.34	1	12	0.0105809	0.000174626	0	9.82274e-05	0.00245298	0.0163206	0.0165039	81.4525	2.59734e+06	390378	2.62651e+06	-8.54754	0.0000000E+000	0.0000000E+000	0.0000000E+000	8.54754	0.0000000E+000	0.0000000E+000	0.0000000E+000	-8.54754	0.0000000E+000	0.0000000E+000	0.0000000E+000	-81.4525	0.0000000E+000	0.0000000E+000	0.0000000E+000	81.4525	0.150299	8.54755	-5.2282e-06	5.2817e-07	382647