File: ACS_Catal_2026/Figures_Na_K/main_figures/data/EC/20251112_2-148_alpha_reproducibility/20251112_2-148_001_alpha_reproducibility_1_K2_03_CVA_C01.mpt
EC-Lab ASCII FILE
Nb header lines : 66

Cyclic Voltammetry Advanced

Run on channel : 1 (SN 69187)
User :
CE vs. WE compliance from -10 V to 10 V
Electrode connection : standard
Potential control : Ewe
Ewe ctrl range : min = -1.00 V, max = 1.00 V
Safety Limits :
	Do not start on E overload
Acquisition started on : 11/12/2025 14:40:36.984
Loaded Setting File :  C:\Users\User\Documents\EC-Lab\Data\Yatsuzuka\20251030_2-147_gamma_reproducibility\20251030_2-147_001_gamma1_K_1.mps
Saved on :
	File : 20251112_2-148_001_alpha_reproducibility_1_K2_03_CVA_C01.mpr
	Directory : C:\Users\User\Documents\EC-Lab\Data\Yatsuzuka\20251112_2-148_alpha_reproducibility\
	Host : 192.109.209.127
Device : SP-150e (SN .003883)
Address : 192.109.209.128
EC-LAB for windows v11.52 (software)
Internet server v11.52 (firmware)
Command interpretor v11.50 (firmware)
Electrode material :
Initial state :
Electrolyte :
Comments :
Electrode surface area : 0.001 cm2
Characteristic mass : 0.001 g
Equivalent Weight : 0.000 g/eq.
Density : 0.000 g/cm3
Volume (V) : 0.001 cm3
Cycle Definition : Charge/Discharge alternance
Ei (V)              0.450
vs.                 Ref
ti (h:m:s)          0:00:10.0000
dti (s)             0.0000
dE/dt               5.000
dE/dt unit          mV/s
E1 (V)              0.700
vs.                 Ref
t1 (h:m:s)          0:00:0.0000
dt1 (s)             0.1000
Step percent        50
N                   10
E range min (V)     -1.000
E range max (V)     1.000
I Range             10 mA
I Range min         Unset
I Range max         Unset
I Range init        Unset
Bandwidth           5
E2 (V)              0.450
vs.                 Ref
t2 (h:m:s)          0:00:0.0000
dt2 (s)             0.1000
nc cycles           14
nr                  1
Reverse Scan        0
Ef (V)              0.000
vs.                 Eoc
tf (h:m:s)          0:00:0.0000
dtf (s)             0.1000

mode	ox/red	error	control changes	Ns changes	counter inc.	time/s	control/V	Ewe/V	<I>/mA	cycle number	(Q-Qo)/C	I Range	Ns	step time/s	Pwe/W	Rwe/Ohm
2	0	0	0	0	0	232.318	0.449961	0.449697	-0.0061051	1	0.0000000E+000	11	0	0.000000000000000E+000	-2.74544e-06	73659.3
2	1	0	1	0	0	235.069	0.463717	0.463504	0.0124162	1	3.41777e-05	11	0	2.6962	5.75494e-06	37330.7
2	1	0	1	0	0	237.866	0.477697	0.477474	0.012357	1	6.92719e-05	11	0	5.4923	5.90012e-06	38640.1
2	1	0	1	0	0	240.662	0.491678	0.49144	0.0125749	1	0.00010391	11	0	8.2884	6.17981e-06	39081.1
2	0	0	1	0	0	243.458	0.505659	0.505413	0.0120134	1	0.000138753	11	0	11.0846	6.07175e-06	42070.6
2	1	0	1	0	0	246.254	0.519639	0.519435	0.0126468	1	0.000173864	11	0	13.8807	6.56916e-06	41072.6
2	1	0	1	0	0	249.05	0.53362	0.533397	0.0127779	1	0.000209211	11	0	16.6768	6.81567e-06	41743.8
2	1	0	1	0	0	251.846	0.547601	0.547379	0.0137347	1	0.000246556	11	0	19.473	7.51809e-06	39853.8
2	1	0	1	0	0	254.642	0.56158	0.561398	0.0151589	1	0.000287325	11	0	22.269	8.5102e-06	37034.2
2	1	0	1	0	0	257.438	0.575562	0.575332	0.0186784	1	0.000334201	11	0	25.0652	1.07463e-05	30802
2	1	0	0	0	0	260.235	0.589542	0.589306	0.0249041	1	0.000394511	11	0	27.8613	1.46761e-05	23663
2	1	0	1	0	0	263.031	0.603523	0.603328	0.038663	1	0.000481907	11	0	30.6574	2.33264e-05	15604.8
2	1	0	1	0	0	265.827	0.617504	0.617239	0.0655159	1	0.00062308	11	0	33.4536	4.04389e-05	9421.21
2	1	0	0	0	0	268.623	0.631484	0.631268	0.119813	1	0.000874012	11	0	36.2497	7.56341e-05	5268.78
2	1	0	1	0	0	271.419	0.645465	0.645273	0.223348	1	0.00133993	11	0	39.0458	0.00014412	2889.09
2	1	0	1	0	0	274.215	0.659445	0.659208	0.404877	1	0.0021981	11	0	41.8419	0.000266898	1628.17
2	1	0	1	0	0	277.011	0.673426	0.673189	0.686843	1	0.00370093	11	0	44.638	0.000462375	980.121
2	1	0	1	0	0	279.807	0.687407	0.687181	1.07517	1	0.00614331	11	0	47.4342	0.000738839	639.135
2	1	0	1	0	0	282.386	0.69969	0.699428	1.47104	1	0.00945891	11	0	50.0128	0.00102889	475.465
2	1	0	1	0	0	285.182	0.685708	0.68553	0.906785	1	0.0127113	11	0	52.809	0.000621628	756
2	1	0	1	0	0	287.978	0.671728	0.671518	0.542315	1	0.0147036	11	0	55.6051	0.000364174	1238.24
2	1	0	1	0	0	290.774	0.657748	0.657496	0.304524	1	0.0158591	11	0	58.4012	0.000200223	2159.1
2	1	0	0	0	0	293.571	0.643767	0.643587	0.161727	1	0.016493	11	0	61.1973	0.000104085	3979.47
2	1	0	1	0	0	296.367	0.629787	0.62959	0.0800201	1	0.0168184	11	0	63.9934	5.03798e-05	7867.9
2	1	0	1	0	0	299.163	0.615806	0.615556	0.0366261	1	0.0169737	11	0	66.7896	2.25454e-05	16806.5
2	1	0	0	0	0	301.959	0.601825	0.601592	0.0140642	1	0.0170409	11	0	69.5857	8.46091e-06	42774.6
2	0	0	1	0	0	304.755	0.587845	0.587611	0.0026215	1	0.0170627	11	0	72.3818	1.54042e-06	224151
2	0	0	1	0	0	307.551	0.573864	0.573567	-0.00322289	1	0.0170609	11	0	1.4979	-1.84854e-06	177967
2	1	0	1	0	0	310.347	0.559884	0.559678	-0.00588856	1	0.0170471	11	0	4.294	-3.2957e-06	95044.9
2	1	0	1	0	0	313.143	0.545902	0.545689	-0.00783955	1	0.0170269	11	0	7.0902	-4.27796e-06	69607.1
2	0	0	1	0	0	315.94	0.531922	0.531703	-0.00891256	1	0.0170029	11	0	9.8863	-4.73884e-06	59657.8
2	0	0	1	0	0	318.736	0.517942	0.517717	-0.00971844	1	0.0169768	11	0	12.6824	-5.0314e-06	53271.6
2	0	0	1	0	0	321.532	0.50396	0.503707	-0.00992261	1	0.0169494	11	0	15.4786	-4.99808e-06	50763.5
2	1	0	1	0	0	324.328	0.48998	0.489763	-0.0103904	1	0.0169204	11	0	18.2747	-5.08883e-06	47136.1
2	0	0	1	0	0	327.124	0.476	0.475753	-0.0107786	1	0.0168898	11	0	21.0708	-5.12797e-06	44138.5
2	0	0	0	0	0	329.92	0.462019	0.461778	-0.011627	1	0.0168584	11	0	23.8669	-5.36907e-06	39716.2
2	1	0	1	0	1	332.574	0.451284	0.451038	0.0096934	2	0.0168326	11	0	0.1997	4.37209e-06	46530.4
2	0	0	1	0	1	335.37	0.465265	0.465006	0.011317	2	0.0168639	11	0	2.9959	5.26248e-06	41089.1
2	1	0	0	0	1	338.166	0.479245	0.47899	0.0114427	2	0.0168963	11	0	5.792	5.48093e-06	41860.1
2	1	0	1	0	1	340.962	0.493226	0.492992	0.0118466	2	0.0169288	11	0	8.5881	5.84026e-06	41614.8
2	1	0	1	0	1	343.758	0.507206	0.506946	0.0113306	2	0.016961	11	0	11.3842	5.74401e-06	44741.3
2	0	0	1	0	1	346.554	0.521187	0.520956	0.0114764	2	0.0169934	11	0	14.1803	5.97869e-06	45393.8
2	1	0	1	0	1	349.35	0.535168	0.53489	0.0118459	2	0.0170268	11	0	16.9765	6.33624e-06	45154.2
2	1	0	1	0	1	352.147	0.549148	0.548997	0.0130082	2	0.0170613	11	0	19.7726	7.14146e-06	42204
2	1	0	1	0	1	354.943	0.563129	0.562888	0.0141124	2	0.0170991	11	0	22.5687	7.94367e-06	39886.1
2	1	0	1	0	1	357.739	0.57711	0.576851	0.0176595	2	0.0171439	11	0	25.3649	1.01869e-05	32665.2
2	1	0	1	0	1	360.535	0.59109	0.590833	0.0245685	2	0.0172022	11	0	28.161	1.45159e-05	24048.4
2	1	0	1	0	1	363.331	0.605071	0.604901	0.038766	2	0.0172884	11	0	30.9571	2.34496e-05	15603.9
2	1	0	0	0	1	366.127	0.619051	0.618824	0.0670643	2	0.0174321	11	0	33.7532	4.1501e-05	9227.33
2	1	0	1	0	1	368.923	0.633031	0.632819	0.125047	2	0.0176929	11	0	36.5493	7.91322e-05	5060.65
2	1	0	1	0	1	371.719	0.647013	0.646794	0.235034	2	0.018182	11	0	39.3455	0.000152019	2751.91
2	1	0	0	0	1	374.516	0.660993	0.660749	0.425915	2	0.0190845	11	0	42.1416	0.000281423	1551.36
2	1	0	1	0	1	377.312	0.674974	0.674747	0.716559	2	0.0206602	11	0	44.9377	0.000483496	941.65
2	1	0	1	0	1	380.108	0.688955	0.688732	1.11886	2	0.0232055	11	0	47.7339	0.000770598	615.563
2	1	0	1	0	1	382.676	0.698192	0.697937	1.38428	2	0.0265902	11	0	50.3025	0.000966142	504.187
2	1	0	1	0	1	385.473	0.684211	0.684044	0.857222	2	0.0296553	11	0	53.0986	0.000586378	797.977
2	1	0	1	0	1	388.269	0.670231	0.669982	0.514118	2	0.0315429	11	0	55.8947	0.00034445	1303.17
2	1	0	1	0	1	391.065	0.65625	0.655981	0.290312	2	0.0326391	11	0	58.6909	0.000190439	2259.57
2	1	0	1	0	1	393.861	0.642269	0.642025	0.153098	2	0.0332435	11	0	61.487	9.82927e-05	4193.56
2	1	0	1	0	1	396.657	0.628289	0.628057	0.0746646	2	0.0335504	11	0	64.2831	4.68937e-05	8411.71
2	1	0	1	0	1	399.453	0.614307	0.614108	0.0331448	2	0.0336949	11	0	67.0793	2.03545e-05	18528
2	1	0	1	0	1	402.249	0.600327	0.60009	0.0119642	2	0.0337549	11	0	69.8754	7.17961e-06	50157
2	0	0	1	0	1	405.045	0.586347	0.586077	0.00135614	2	0.033772	11	0	72.6715	7.94802e-07	432166
2	0	0	0	0	1	407.842	0.572366	0.572121	-0.00383342	2	0.033768	11	0	1.5978	-2.19318e-06	149246
2	0	0	1	0	1	410.638	0.558386	0.558183	-0.00670965	2	0.0337531	11	0	4.3939	-3.74521e-06	83191.1
2	0	0	1	0	1	413.434	0.544404	0.54419	-0.00830421	2	0.0337321	11	0	7.1901	-4.51907e-06	65531.9
2	0	0	0	0	1	416.23	0.530424	0.530184	-0.00927996	2	0.0337077	11	0	9.9862	-4.92009e-06	57132.2
2	0	0	1	0	1	419.026	0.516444	0.516236	-0.00981695	2	0.0336814	11	0	12.7823	-5.06786e-06	52586.1
2	0	0	1	0	1	421.822	0.502463	0.502164	-0.0101792	2	0.0336536	11	0	15.5784	-5.11162e-06	49332.4
2	0	0	1	0	1	424.618	0.488483	0.488286	-0.0105092	2	0.0336244	11	0	18.3745	-5.1315e-06	46462.6
2	0	0	1	0	1	427.414	0.474502	0.474246	-0.0109009	2	0.033594	11	0	21.1707	-5.16972e-06	43505.1
2	1	0	1	0	1	430.211	0.460521	0.460307	-0.0110243	2	0.0335625	11	0	23.9668	-5.07457e-06	41753.8
2	1	0	1	0	0	432.864	0.452782	0.452576	0.0102002	3	0.0335434	11	0	0.4993	4.61635e-06	44369.4
2	0	0	1	0	0	435.66	0.466763	0.466543	0.0111956	3	0.0335746	11	0	3.2955	5.22325e-06	41671.8
2	0	0	1	0	0	438.456	0.480743	0.480469	0.0109893	3	0.0336067	11	0	6.0916	5.28e-06	43721.7
2	1	0	1	0	0	441.252	0.494724	0.494479	0.0113782	3	0.033639	11	0	8.8877	5.62628e-06	43458.6
2	1	0	0	0	0	444.049	0.508704	0.508455	0.0111162	3	0.0336714	11	0	11.6838	5.65209e-06	45739.9
2	0	0	1	0	0	446.845	0.522684	0.522406	0.0114546	3	0.0337037	11	0	14.4799	5.98396e-06	45606.6
2	1	0	1	0	0	449.641	0.536666	0.536423	0.0115894	3	0.0337369	11	0	17.2761	6.21681e-06	46285.8
2	1	0	0	0	0	452.437	0.550646	0.550445	0.0126816	3	0.0337717	11	0	20.0722	6.98051e-06	43405.1
2	1	0	1	0	0	455.233	0.564627	0.564477	0.0141148	3	0.0338097	11	0	22.8683	7.9675e-06	39991.8
2	1	0	1	0	0	458.029	0.578607	0.578358	0.0180616	3	0.0338547	11	0	25.6644	1.0446e-05	32021.4
2	1	0	1	0	0	460.825	0.592588	0.592374	0.0251527	3	0.0339146	11	0	28.4605	1.48998e-05	23551.1
2	1	0	1	0	0	463.621	0.606569	0.606388	0.0404359	3	0.0340043	11	0	31.2567	2.45198e-05	14996.3
2	1	0	1	0	0	466.418	0.620549	0.620324	0.0711039	3	0.0341556	11	0	34.0528	4.41074e-05	8724.19
2	1	0	1	0	0	469.214	0.63453	0.634319	0.133122	3	0.0344319	11	0	36.8489	8.4442e-05	4764.94
2	1	0	1	0	0	472.01	0.648511	0.648326	0.249367	3	0.0349512	11	0	39.6451	0.000161671	2599.89
2	1	0	1	0	0	474.806	0.662491	0.662238	0.448069	3	0.0359046	11	0	42.4412	0.000296728	1477.98
2	1	0	1	0	0	477.602	0.676472	0.676244	0.749857	3	0.0375562	11	0	45.2373	0.000507086	901.831
2	1	0	0	0	0	480.398	0.690452	0.69025	1.15685	3	0.0401967	11	0	48.0334	0.000798512	596.666
2	1	0	1	0	0	482.967	0.696693	0.696456	1.31028	3	0.0436355	11	0	50.6021	0.000912552	531.532
2	1	0	0	0	0	485.763	0.682713	0.682501	0.805898	3	0.0465355	11	0	53.3982	0.000550026	846.883
2	1	0	1	0	0	488.559	0.668733	0.668539	0.47422	3	0.0482895	11	0	56.1943	0.000317034	1409.77
2	1	0	1	0	0	491.355	0.654751	0.654562	0.265235	3	0.0492962	11	0	58.9905	0.000173612	2467.86
2	1	0	0	0	0	494.151	0.640771	0.640585	0.136651	3	0.0498419	11	0	61.7866	8.75368e-05	4687.73
2	1	0	1	0	0	496.947	0.626791	0.626537	0.0652625	3	0.0501135	11	0	64.5827	4.08894e-05	9600.27
2	1	0	1	0	0	499.744	0.61281	0.612583	0.0287925	3	0.0502386	11	0	67.3788	1.76378e-05	21275.8
2	1	0	1	0	0	502.54	0.59883	0.598564	0.0105883	3	0.05029	11	0	70.1749	6.33777e-06	56530.7
2	1	0	1	0	0	505.336	0.584849	0.584615	0.000821955	3	0.0503036	11	0	72.9711	4.80527e-07	711250
2	1	0	1	0	0	508.132	0.570868	0.570623	-0.00387391	3	0.0502978	11	0	1.8974	-2.21054e-06	147299
2	1	0	1	0	0	510.928	0.556888	0.556645	-0.00649907	3	0.050282	11	0	4.6935	-3.61767e-06	85650
2	1	0	1	0	0	513.724	0.542906	0.54266	-0.00785633	3	0.0502608	11	0	7.4897	-4.26332e-06	69073
2	1	0	1	0	0	516.52	0.528926	0.528667	-0.00889253	3	0.0502363	11	0	10.2858	-4.70118e-06	59450.6
2	0	0	1	0	0	519.316	0.514946	0.514773	-0.00936705	3	0.0502098	11	0	13.0819	-4.8219e-06	54955.7
2	0	0	0	0	0	522.113	0.500965	0.500722	-0.0101275	3	0.0501819	11	0	15.878	-5.07105e-06	49442
2	0	0	1	0	0	524.909	0.486985	0.486761	-0.0106526	3	0.0501526	11	0	18.6741	-5.1853e-06	45693.9
2	0	0	1	0	0	527.705	0.473004	0.472784	-0.0114238	3	0.050122	11	0	21.4703	-5.401e-06	41385.8
2	0	0	0	0	0	530.501	0.459023	0.458775	-0.0115388	3	0.0500902	11	0	24.2664	-5.29373e-06	39759.3
2	1	0	1	0	1	533.154	0.45428	0.454085	0.0109157	4	0.0500778	11	0	0.7989	4.95664e-06	41599.3
2	1	0	1	0	1	535.951	0.46826	0.468055	0.0114811	4	0.0501093	11	0	3.595	5.37379e-06	40767.4
2	1	0	0	0	1	538.747	0.482241	0.482038	0.011309	4	0.0501414	11	0	6.3912	5.45138e-06	42624.1
2	0	0	1	0	1	541.543	0.496222	0.495978	0.0112213	4	0.0501735	11	0	9.1873	5.56554e-06	44199.6
2	1	0	1	0	1	544.339	0.510202	0.510037	0.011095	4	0.0502056	11	0	11.9834	5.65886e-06	45970
2	1	0	1	0	1	547.135	0.524183	0.523908	0.0114288	4	0.0502379	11	0	14.7795	5.98762e-06	45841.3
2	1	0	1	0	1	549.931	0.538164	0.537927	0.0118474	4	0.0502709	11	0	17.5757	6.37305e-06	45404.5
2	1	0	1	0	1	552.727	0.552144	0.551876	0.0130664	4	0.0503057	11	0	20.3718	7.21105e-06	42236.2
2	1	0	1	0	1	555.523	0.566125	0.565902	0.014743	4	0.0503441	11	0	23.1679	8.34308e-06	38384.5
2	1	0	0	0	1	558.32	0.580105	0.579871	0.0187059	4	0.05039	11	0	25.964	1.0847e-05	30999.4
2	1	0	1	0	1	561.116	0.594085	0.593917	0.0263353	4	0.0504516	11	0	28.7601	1.5641e-05	22552.2
2	1	0	1	0	1	563.912	0.608067	0.60784	0.0423858	4	0.050545	11	0	31.5563	2.57638e-05	14340.7
2	1	0	0	0	1	566.708	0.622047	0.621788	0.0752207	4	0.0507039	11	0	34.3524	4.67713e-05	8266.18
2	1	0	1	0	1	569.504	0.636028	0.635793	0.141054	4	0.0509965	11	0	37.1485	8.96812e-05	4507.43
2	1	0	1	0	1	572.3	0.650008	0.649818	0.263659	4	0.0515467	11	0	39.9446	0.00017133	2464.62
2	1	0	1	0	1	575.096	0.663989	0.66378	0.471765	4	0.0525533	11	0	42.7407	0.000313148	1407.01
2	1	0	1	0	1	577.892	0.67797	0.677752	0.779204	4	0.0542814	11	0	45.5369	0.000528108	869.801
2	1	0	1	0	1	580.689	0.69195	0.691719	1.18391	4	0.0570069	11	0	48.333	0.000818932	584.268
2	1	0	1	0	1	583.257	0.695196	0.694951	1.21056	4	0.0603897	11	0	50.9017	0.000841277	574.076
2	1	0	1	0	1	586.053	0.681215	0.681006	0.740749	4	0.0630608	11	0	53.6978	0.000504455	919.349
2	1	0	1	0	1	588.849	0.667235	0.667012	0.437316	4	0.0646765	11	0	56.4939	0.000291695	1525.24
2	1	0	1	0	1	591.646	0.653253	0.652996	0.240452	4	0.0656012	11	0	59.2901	0.000157014	2715.7
2	1	0	1	0	1	594.442	0.639273	0.639036	0.122072	4	0.0660913	11	0	62.0862	7.80082e-05	5234.92
2	1	0	1	0	1	597.238	0.625292	0.625044	0.0595118	4	0.066335	11	0	64.8823	3.71975e-05	10502.9
2	1	0	0	0	1	600.034	0.611312	0.6111	0.0257584	4	0.0664485	11	0	67.6784	1.5741e-05	23724.3
2	1	0	1	0	1	602.83	0.597332	0.597101	0.00869992	4	0.0664938	11	0	70.4745	5.19473e-06	68632.9
2	0	0	1	0	1	605.626	0.58335	0.583135	-0.000174001	4	0.0665042	11	0	0.000000000000000E+000	-1.01466e-07	3.35134e+06
2	0	0	0	0	1	608.422	0.56937	0.569129	-0.0045325	4	0.0664966	11	0	2.7961	-2.57958e-06	125566
2	0	0	1	0	1	611.218	0.55539	0.555173	-0.00710971	4	0.06648	11	0	5.5922	-3.94713e-06	78086.6
2	0	0	1	0	1	614.015	0.541409	0.541145	-0.0084266	4	0.0664583	11	0	8.3883	-4.56001e-06	64218.7
2	0	0	1	0	1	616.811	0.527429	0.527203	-0.00941232	4	0.0664336	11	0	11.1844	-4.96221e-06	56012
2	0	0	1	0	1	619.607	0.513448	0.513215	-0.00981728	4	0.0664071	11	0	13.9806	-5.03837e-06	52276.7
2	0	0	1	0	1	622.403	0.499467	0.499184	-0.0104779	4	0.0663792	11	0	16.7767	-5.23042e-06	47641.5
2	0	0	1	0	1	625.199	0.485487	0.485306	-0.0107307	4	0.0663501	11	0	19.5728	-5.20768e-06	45225.8
2	0	0	1	0	1	627.995	0.471505	0.471278	-0.0112455	4	0.0663197	11	0	22.369	-5.29976e-06	41908.1
2	0	0	1	0	1	630.791	0.457525	0.457245	-0.0114692	4	0.0662881	11	0	25.1651	-5.24425e-06	39867
2	1	0	1	0	0	633.445	0.455778	0.455545	0.0113129	5	0.0662826	11	0	1.0985	5.15352e-06	40267.8
2	1	0	0	0	0	636.241	0.469758	0.469532	0.0114611	5	0.0663143	11	0	3.8946	5.38137e-06	40967.3
2	1	0	1	0	0	639.037	0.483739	0.483476	0.0117061	5	0.0663465	11	0	6.6907	5.65961e-06	41301.2
2	1	0	1	0	0	641.833	0.49772	0.497492	0.0115459	5	0.0663787	11	0	9.4869	5.74398e-06	43088.3
2	1	0	0	0	0	644.629	0.5117	0.511512	0.0116003	5	0.0664109	11	0	12.283	5.93369e-06	44094.7
2	1	0	1	0	0	647.425	0.525681	0.525468	0.0117327	5	0.0664432	11	0	15.0791	6.16516e-06	44786.6
2	1	0	1	0	0	650.222	0.539662	0.539416	0.0123298	5	0.0664763	11	0	17.8753	6.6509e-06	43748.9
2	1	0	0	0	0	653.018	0.553642	0.553438	0.0130024	5	0.0665113	11	0	20.6714	7.19601e-06	42564.4
2	1	0	1	0	0	655.814	0.567623	0.567451	0.0150465	5	0.0665501	11	0	23.4675	8.53816e-06	37713.1
2	1	0	1	0	0	658.61	0.581603	0.58135	0.018994	5	0.066597	11	0	26.2636	1.10421e-05	30607.1
2	1	0	1	0	0	661.406	0.595584	0.595344	0.0274359	5	0.0666605	11	0	29.0597	1.63338e-05	21699.5
2	1	0	1	0	0	664.202	0.609565	0.609346	0.0444473	5	0.0667582	11	0	31.8559	2.70838e-05	13709.4
2	1	0	1	0	0	666.998	0.623545	0.623346	0.0797285	5	0.0669261	11	0	34.652	4.96984e-05	7818.35
2	1	0	1	0	0	669.794	0.637526	0.637327	0.14986	5	0.0672369	11	0	37.4481	9.551e-05	4252.81
2	1	0	0	0	0	672.591	0.651506	0.651303	0.279756	5	0.0678213	11	0	40.2442	0.000182206	2328.11
2	1	0	1	0	0	675.387	0.665486	0.665243	0.495411	5	0.0688827	11	0	43.0403	0.000329569	1342.81
2	1	0	1	0	0	678.183	0.679468	0.679268	0.811764	5	0.0706894	11	0	45.8365	0.000551406	836.781
2	1	0	0	0	0	680.979	0.693448	0.6932	1.21778	5	0.0735067	11	0	48.6326	0.000844162	569.234
2	1	0	1	0	0	683.548	0.693698	0.693466	1.14188	5	0.0768531	11	0	51.2013	0.000791858	607.299
2	1	0	0	0	0	686.344	0.679717	0.679495	0.699603	5	0.0793779	11	0	53.9974	0.000475377	971.258
2	1	0	1	0	0	689.14	0.665737	0.665479	0.414022	5	0.0809079	11	0	56.7935	0.000275523	1607.35
2	1	0	1	0	0	691.936	0.651756	0.651542	0.227229	5	0.0817811	11	0	59.5896	0.000148049	2867.34
2	1	0	1	0	0	694.732	0.637776	0.637517	0.115954	5	0.0822469	11	0	62.3857	7.3923e-05	5498
2	1	0	1	0	0	697.528	0.623795	0.62361	0.0552314	5	0.0824775	11	0	65.1819	3.44428e-05	11290.9
2	1	0	1	0	0	700.324	0.609814	0.609564	0.0232649	5	0.0825824	11	0	67.978	1.41815e-05	26201
2	1	0	1	0	0	703.12	0.595834	0.595587	0.00724848	5	0.0826228	11	0	70.7741	4.3171e-06	82167.2
2	0	0	1	0	0	705.917	0.581852	0.581605	-0.000875532	5	0.0826306	11	0	0.0999	-5.09214e-07	664287
2	0	0	1	0	0	708.713	0.567872	0.567685	-0.0049267	5	0.082622	11	0	2.896	-2.79681e-06	115226
2	0	0	1	0	0	711.509	0.553891	0.553674	-0.00727108	5	0.0826048	11	0	5.6921	-4.0258e-06	76147.4
2	0	0	0	0	0	714.305	0.539911	0.539664	-0.008401	5	0.0825827	11	0	8.4882	-4.53371e-06	64238
2	0	0	1	0	0	717.101	0.525931	0.525761	-0.0094174	5	0.0825579	11	0	11.2843	-4.9513e-06	55828.6
2	0	0	1	0	0	719.897	0.51195	0.511729	-0.0098037	5	0.0825311	11	0	14.0805	-5.01683e-06	52197.5
2	0	0	0	0	0	722.693	0.497969	0.497733	-0.0103528	5	0.0825031	11	0	16.8766	-5.15296e-06	48077
2	0	0	1	0	0	725.489	0.483989	0.483739	-0.0107031	5	0.0824739	11	0	19.6727	-5.17749e-06	45196.3
2	0	0	1	0	0	728.286	0.470008	0.469794	-0.01142	5	0.0824434	11	0	22.4688	-5.36503e-06	41138
2	0	0	1	0	0	731.082	0.456028	0.455793	-0.0116791	5	0.0824115	11	0	25.2649	-5.32323e-06	39026.5
2	1	0	1	0	1	733.735	0.457276	0.457022	0.0113592	6	0.0824124	11	0	1.3981	5.19139e-06	40233.8
2	1	0	1	0	1	736.531	0.471256	0.47108	0.0113574	6	0.0824442	11	0	4.1942	5.35025e-06	41477.8
2	1	0	1	0	1	739.327	0.485237	0.484994	0.0117106	6	0.0824763	11	0	6.9903	5.67957e-06	41414.9
2	1	0	1	0	1	742.124	0.499218	0.498965	0.0114484	6	0.0825083	11	0	9.7865	5.71237e-06	43583.7
2	1	0	1	0	1	744.92	0.513198	0.51296	0.0116794	6	0.0825404	11	0	12.5826	5.99109e-06	43919.9
2	1	0	1	0	1	747.716	0.527179	0.526951	0.0116459	6	0.0825726	11	0	15.3787	6.13679e-06	45247.9
2	1	0	0	0	1	750.512	0.541159	0.5409	0.0123569	6	0.0826057	11	0	18.1748	6.68384e-06	43773.2
2	1	0	1	0	1	753.308	0.55514	0.554868	0.0131503	6	0.0826408	11	0	20.9709	7.2967e-06	42194.2
2	1	0	1	0	1	756.104	0.569121	0.568892	0.0153726	6	0.0826801	11	0	23.7671	8.74537e-06	37006.7
2	1	0	0	0	1	758.9	0.583101	0.582829	0.0194332	6	0.0827279	11	0	26.5632	1.13262e-05	29991.3
2	1	0	1	0	1	761.696	0.597082	0.596832	0.0287786	6	0.0827935	11	0	29.3593	1.7176e-05	20738.8
2	1	0	1	0	1	764.493	0.611063	0.610873	0.0468332	6	0.0828959	11	0	32.1555	2.86091e-05	13043.6
2	1	0	0	0	1	767.289	0.625043	0.624866	0.0845169	6	0.0830736	11	0	34.9516	5.28117e-05	7393.38
2	1	0	1	0	1	770.085	0.639024	0.638776	0.15888	6	0.0834032	11	0	37.7477	0.000101489	4020.49
2	1	0	1	0	1	772.881	0.653004	0.652758	0.296533	6	0.0840241	11	0	40.5438	0.000193564	2201.3
2	1	0	1	0	1	775.677	0.666985	0.666746	0.522277	6	0.0851479	11	0	43.3399	0.000348226	1276.61
2	1	0	1	0	1	778.473	0.680966	0.680766	0.852873	6	0.0870475	11	0	46.1361	0.000580607	798.204
2	1	0	1	0	1	781.269	0.694946	0.694727	1.2676	6	0.09	11	0	48.9322	0.000880635	548.066
2	1	0	1	0	1	783.838	0.692199	0.691972	1.07657	6	0.0932935	11	0	51.5009	0.000744958	642.754
2	1	0	1	0	1	786.634	0.678219	0.678017	0.647296	6	0.0956568	11	0	54.297	0.000438878	1047.46
2	1	0	1	0	1	789.43	0.664239	0.663976	0.395906	6	0.0970828	11	0	57.0931	0.000262872	1677.11
2	1	0	0	0	1	792.226	0.650258	0.650091	0.213618	6	0.0979114	11	0	59.8892	0.000138871	3043.24
2	1	0	1	0	1	795.022	0.636278	0.6361	0.111006	6	0.0983534	11	0	62.6853	7.06106e-05	5730.35
2	1	0	1	0	1	797.819	0.622297	0.62207	0.0518204	6	0.0985716	11	0	65.4815	3.22359e-05	12004.4
2	1	0	0	0	1	800.615	0.608316	0.608117	0.0214923	6	0.0986696	11	0	68.2776	1.30698e-05	28294.7
2	0	0	1	0	1	803.411	0.594336	0.594111	0.00624394	6	0.0987062	11	0	71.0737	3.7096e-06	95150
2	0	0	1	0	1	806.207	0.580355	0.580122	-0.00142277	6	0.0987118	11	0	0.1997	-8.25381e-07	407742
2	0	0	1	0	1	809.003	0.566375	0.566158	-0.00536033	6	0.0987018	11	0	2.9958	-3.03479e-06	105620
2	0	0	1	0	1	811.799	0.552393	0.552167	-0.00720591	6	0.0986839	11	0	5.792	-3.97887e-06	76627
2	0	0	1	0	1	814.595	0.538413	0.538138	-0.00830757	6	0.0986617	11	0	8.5881	-4.47062e-06	64776.9
2	1	0	1	0	1	817.391	0.524433	0.524215	-0.00887793	6	0.0986367	11	0	11.3842	-4.65395e-06	59046.9
2	0	0	1	0	1	820.188	0.510451	0.510215	-0.00959826	6	0.0986099	11	0	14.1804	-4.89718e-06	53157
2	0	0	1	0	1	822.984	0.496471	0.496234	-0.0101546	6	0.0985817	11	0	16.9765	-5.03904e-06	48868
2	0	0	1	0	1	825.78	0.482491	0.482266	-0.0108899	6	0.0985522	11	0	19.7726	-5.25183e-06	44285.5
2	0	0	0	0	1	828.576	0.46851	0.468264	-0.0113629	6	0.0985215	11	0	22.5687	-5.32085e-06	41209.8
2	0	0	1	0	1	831.372	0.45453	0.454275	-0.0117593	6	0.0984894	11	0	25.3648	-5.34193e-06	38631.3
2	1	0	1	0	0	834.026	0.458774	0.458532	0.0115483	7	0.0984974	11	0	1.6977	5.29526e-06	39705.6
2	1	0	0	0	0	836.822	0.472754	0.472482	0.0115424	7	0.0985295	11	0	4.4938	5.45359e-06	40934.4
2	1	0	1	0	0	839.618	0.486735	0.486483	0.0117079	7	0.0985616	11	0	7.2899	5.69568e-06	41551.8
2	1	0	1	0	0	842.414	0.500715	0.500467	0.0114678	7	0.0985936	11	0	10.086	5.73925e-06	43641.1
2	1	0	0	0	0	845.21	0.514696	0.514484	0.0117445	7	0.0986258	11	0	12.8822	6.04237e-06	43806.2
2	1	0	1	0	0	848.006	0.528677	0.528431	0.0117241	7	0.0986582	11	0	15.6783	6.19538e-06	45072.3
2	1	0	1	0	0	850.802	0.542657	0.542378	0.0124673	7	0.0986914	11	0	18.4744	6.762e-06	43504
2	1	0	1	0	0	853.598	0.556638	0.556405	0.0132237	7	0.0987268	11	0	21.2705	7.35775e-06	42076.3
2	1	0	1	0	0	856.395	0.570619	0.570467	0.0155364	7	0.0987667	11	0	24.0667	8.86303e-06	36718
2	1	0	1	0	0	859.191	0.584599	0.584342	0.0198329	7	0.0988157	11	0	26.8628	1.15892e-05	29463.2
2	1	0	1	0	0	861.987	0.59858	0.59836	0.0296239	7	0.0988837	11	0	29.6589	1.77257e-05	20198.6
2	1	0	0	0	0	864.783	0.61256	0.612344	0.0490533	7	0.0989912	11	0	32.455	3.00375e-05	12483.2
2	1	0	1	0	0	867.579	0.626541	0.626329	0.0893461	7	0.0991791	11	0	35.2511	5.59601e-05	7010.14
2	1	0	1	0	0	870.375	0.640522	0.640283	0.168254	7	0.0995286	11	0	38.0473	0.00010773	3805.45
2	1	0	0	0	0	873.171	0.654502	0.654259	0.312842	7	0.100184	11	0	40.8434	0.00020468	2091.34
2	1	0	1	0	0	875.967	0.668483	0.668236	0.54622	7	0.101365	11	0	43.6395	0.000365004	1223.38
2	1	0	1	0	0	878.764	0.682464	0.682257	0.880743	7	0.10334	11	0	46.4357	0.000600893	774.638
2	1	0	0	0	0	881.56	0.696444	0.696211	1.29781	7	0.106374	11	0	49.2318	0.000903551	536.451
2	1	0	1	0	0	884.128	0.690702	0.690525	1.01689	7	0.10956	11	0	51.8004	0.000702189	679.054
2	1	0	1	0	0	886.924	0.676722	0.676532	0.615511	7	0.111803	11	0	54.5965	0.000416412	1099.14
2	1	0	1	0	0	889.721	0.66274	0.662475	0.353643	7	0.113128	11	0	57.3927	0.000234279	1873.29
2	1	0	1	0	0	892.517	0.64876	0.648535	0.191331	7	0.113871	11	0	60.1888	0.000124085	3389.6
2	1	0	1	0	0	895.313	0.63478	0.634583	0.0968454	7	0.11426	11	0	62.9849	6.14565e-05	6552.54
2	1	0	1	0	0	898.109	0.620798	0.620567	0.0446755	7	0.11445	11	0	65.7811	2.77241e-05	13890.6
2	1	0	1	0	0	900.905	0.606818	0.606625	0.0181571	7	0.114534	11	0	68.5772	1.10146e-05	33409.8
2	0	0	1	0	0	903.701	0.592838	0.592594	0.0045671	7	0.114564	11	0	71.3733	2.70644e-06	129753
2	0	0	0	0	0	906.497	0.578857	0.578658	-0.00197706	7	0.114566	11	0	0.7989	-1.14404e-06	292685
2	0	0	1	0	0	909.293	0.564877	0.564667	-0.00549706	7	0.114555	11	0	3.595	-3.104e-06	102722
2	0	0	1	0	0	912.09	0.550896	0.550659	-0.00728401	7	0.114537	11	0	6.3912	-4.011e-06	75598.4
2	0	0	0	0	0	914.886	0.536915	0.536666	-0.00841779	7	0.114514	11	0	9.1873	-4.51754e-06	63753.8
2	0	0	1	0	0	917.682	0.522935	0.522698	-0.00897152	7	0.114489	11	0	11.9834	-4.68939e-06	58261.9
2	0	0	1	0	0	920.478	0.508954	0.508743	-0.00983605	7	0.114462	11	0	14.7795	-5.00402e-06	51722.3
2	0	0	1	0	0	923.274	0.494974	0.494753	-0.00990679	7	0.114434	11	0	17.5756	-4.90141e-06	49940.8
2	1	0	1	0	0	926.07	0.480993	0.480765	-0.0104895	7	0.114405	11	0	20.3718	-5.04296e-06	45833.1
2	0	0	1	0	0	928.866	0.467012	0.466801	-0.0106883	7	0.114374	11	0	23.1679	-4.9893e-06	43674.1
2	0	0	1	0	0	931.662	0.453032	0.45281	-0.0114805	7	0.114342	11	0	25.964	-5.1985e-06	39441.6
2	1	0	1	0	1	934.316	0.460272	0.460028	0.0109928	8	0.114357	11	0	1.9973	5.05697e-06	41848.2
2	0	0	1	0	1	937.112	0.474252	0.474038	0.0111699	8	0.114389	11	0	4.7934	5.29495e-06	42439
2	0	0	1	0	1	939.908	0.488233	0.488039	0.0112189	8	0.114421	11	0	7.5895	5.47527e-06	43501.5
2	1	0	0	0	1	942.704	0.502213	0.501938	0.0110821	8	0.114453	11	0	10.3856	5.56254e-06	45292.6
2	1	0	1	0	1	945.5	0.516193	0.515975	0.0112258	8	0.114485	11	0	13.1817	5.79224e-06	45963.3
2	0	0	1	0	1	948.297	0.530175	0.529945	0.0113393	8	0.114518	11	0	15.9779	6.00923e-06	46735.1
2	1	0	0	0	1	951.093	0.544155	0.543885	0.0119309	8	0.114551	11	0	18.774	6.48903e-06	45586.3
2	1	0	1	0	1	953.889	0.558136	0.557896	0.0131911	8	0.114586	11	0	21.5701	7.35929e-06	42293.3
2	1	0	1	0	1	956.685	0.572116	0.571898	0.0158612	8	0.114627	11	0	24.3662	9.07099e-06	36056.4
2	1	0	1	0	1	959.481	0.586097	0.585877	0.0207796	8	0.114677	11	0	27.1623	1.21743e-05	28194.8
2	1	0	1	0	1	962.277	0.600078	0.599832	0.0309631	8	0.114748	11	0	29.9585	1.85727e-05	19372.5
2	1	0	1	0	1	965.073	0.614058	0.61386	0.0518565	8	0.11486	11	0	32.7546	3.18326e-05	11837.7
2	1	0	1	0	1	967.869	0.628039	0.627826	0.0947605	8	0.115059	11	0	35.5507	5.94931e-05	6625.4
2	1	0	1	0	1	970.666	0.64202	0.641808	0.178175	8	0.115429	11	0	38.3469	0.000114354	3602.11
2	1	0	1	0	1	973.462	0.656	0.655748	0.329114	8	0.116121	11	0	41.143	0.000215816	1992.47
2	1	0	1	0	1	976.258	0.669981	0.669724	0.569535	8	0.117356	11	0	43.9391	0.000381432	1175.91
2	1	0	0	0	1	979.054	0.683961	0.683742	0.907536	8	0.119401	11	0	46.7352	0.000620521	753.405
2	1	0	1	0	1	981.85	0.697941	0.697727	1.31809	8	0.122505	11	0	49.5313	0.000919668	529.347
2	1	0	0	0	1	984.419	0.689204	0.688957	0.933106	8	0.12551	11	0	52.1	0.00064287	738.348
2	1	0	1	0	1	987.215	0.675224	0.674976	0.563317	8	0.127567	11	0	54.8961	0.000380225	1198.22
2	1	0	1	0	1	990.011	0.661242	0.661002	0.326923	8	0.128784	11	0	57.6923	0.000216096	2021.89
2	1	0	0	0	1	992.807	0.647262	0.647081	0.178187	8	0.129472	11	0	60.4884	0.000115301	3631.47
2	1	0	1	0	1	995.603	0.633282	0.633096	0.0888868	8	0.129833	11	0	63.2845	5.62739e-05	7122.5
2	1	0	1	0	1	998.399	0.619301	0.619067	0.0407004	8	0.130006	11	0	66.0806	2.51962e-05	15210.4
2	1	0	1	0	1	1001.2	0.605321	0.605152	0.01638	8	0.130082	11	0	68.8767	9.91237e-06	36944.7
2	1	0	1	0	1	1003.99	0.591339	0.591043	0.00384844	8	0.130108	11	0	71.6729	2.27459e-06	153580
2	1	0	1	0	1	1006.79	0.577359	0.577112	-0.00213875	8	0.130109	11	0	1.2982	-1.2343e-06	269836
2	1	0	1	0	1	1009.58	0.563379	0.563155	-0.00570841	8	0.130097	11	0	4.0943	-3.21472e-06	98653.5
2	1	0	1	0	1	1012.38	0.549397	0.549162	-0.00733776	8	0.130077	11	0	6.8905	-4.02962e-06	74840.6
2	1	0	1	0	1	1015.18	0.535417	0.535172	-0.0085297	8	0.130054	11	0	9.6866	-4.56485e-06	62742.1
2	0	0	1	0	1	1017.97	0.521437	0.521237	-0.00910877	8	0.130029	11	0	12.4827	-4.74783e-06	57223.7
2	0	0	0	0	1	1020.77	0.507456	0.507229	-0.0101269	8	0.130002	11	0	15.2788	-5.13665e-06	50087.4
2	0	0	1	0	1	1023.56	0.493476	0.493228	-0.0103618	8	0.129973	11	0	18.0749	-5.11072e-06	47600.7
2	0	0	1	0	1	1026.36	0.479494	0.479247	-0.0107215	8	0.129944	11	0	20.8711	-5.13825e-06	44699.6
2	0	0	0	0	1	1029.16	0.465514	0.465255	-0.0108823	8	0.129913	11	0	23.6672	-5.06304e-06	42753.4
2	0	0	1	0	1	1031.95	0.451534	0.451329	-0.0115336	8	0.129881	11	0	26.4633	-5.20545e-06	39131.7
2	0	0	1	0	0	1034.61	0.46177	0.461506	0.0108898	9	0.129902	11	0	2.2969	5.02569e-06	42379.8
2	1	0	0	0	0	1037.4	0.47575	0.475545	0.0114826	9	0.129935	11	0	5.093	5.46047e-06	41414.5
2	1	0	1	0	0	1040.2	0.489731	0.489498	0.0112565	9	0.129967	11	0	7.8891	5.51005e-06	43485.7
2	1	0	1	0	0	1042.99	0.503711	0.50346	0.0114368	9	0.129999	11	0	10.6852	5.758e-06	44020.9
2	1	0	1	0	0	1045.79	0.517692	0.517457	0.0113738	9	0.130031	11	0	13.4813	5.88543e-06	45495.8
2	1	0	1	0	0	1048.59	0.531673	0.531469	0.011733	9	0.130063	11	0	16.2775	6.2357e-06	45297.1
2	1	0	1	0	0	1051.38	0.545653	0.545473	0.0120617	9	0.130097	11	0	19.0736	6.57934e-06	45223.5
2	1	0	1	0	0	1054.18	0.559634	0.55941	0.0135143	9	0.130132	11	0	21.8697	7.56004e-06	41393.9
2	1	0	0	0	0	1056.98	0.573614	0.573459	0.0160468	9	0.130173	11	0	24.6658	9.20215e-06	35736.7
2	1	0	1	0	0	1059.77	0.587594	0.587373	0.021615	9	0.130225	11	0	27.4619	1.2696e-05	27174.4
2	1	0	1	0	0	1062.57	0.601576	0.601395	0.0321231	9	0.130298	11	0	30.2581	1.93187e-05	18721.6
2	1	0	0	0	0	1065.36	0.615556	0.615318	0.0546013	9	0.130417	11	0	33.0542	3.35972e-05	11269.3
2	1	0	1	0	0	1068.16	0.629537	0.629312	0.100733	9	0.130628	11	0	35.8503	6.33924e-05	6247.33
2	1	0	1	0	0	1070.96	0.643517	0.643316	0.189957	9	0.131022	11	0	38.6464	0.000122202	3386.64
2	1	0	1	0	0	1073.75	0.657498	0.65724	0.346974	9	0.131755	11	0	41.4425	0.000228045	1894.21
2	1	0	1	0	0	1076.55	0.671479	0.671256	0.595115	9	0.133049	11	0	44.2387	0.000399475	1127.94
2	1	0	1	0	0	1079.34	0.685459	0.685212	0.936344	9	0.135172	11	0	47.0348	0.000641594	731.796
2	1	0	1	0	0	1082.14	0.699439	0.699184	1.34909	9	0.138355	11	0	49.8309	0.000943261	518.265
2	1	0	1	0	0	1084.71	0.687706	0.687459	0.879178	9	0.141208	11	0	52.3996	0.000604399	781.934
2	1	0	1	0	0	1087.51	0.673726	0.673486	0.52774	9	0.143138	11	0	55.1957	0.000355426	1276.17
2	1	0	1	0	0	1090.3	0.659744	0.659468	0.298854	9	0.144267	11	0	57.9919	0.000197085	2206.65
2	1	0	1	0	0	1093.1	0.645764	0.645575	0.159879	9	0.14489	11	0	60.788	0.000103214	4037.9
2	1	0	1	0	0	1095.89	0.631783	0.631577	0.0798035	9	0.145214	11	0	63.5841	5.04021e-05	7914.15
2	1	0	0	0	0	1098.69	0.617803	0.617588	0.0364431	9	0.145369	11	0	66.3802	2.25069e-05	16946.6
2	1	0	1	0	0	1101.49	0.603823	0.603596	0.0139675	9	0.145435	11	0	69.1763	8.43073e-06	43214.3
2	0	0	1	0	0	1104.28	0.589841	0.589582	0.00238112	9	0.145457	11	0	71.9725	1.40387e-06	247607
2	0	0	0	0	0	1107.08	0.575861	0.575598	-0.00300777	9	0.145455	11	0	1.5978	-1.73126e-06	191370
2	0	0	1	0	0	1109.87	0.561881	0.561687	-0.00603174	9	0.145442	11	0	4.3939	-3.38795e-06	93121.9
2	1	0	1	0	0	1112.67	0.5479	0.547651	-0.00756805	9	0.145422	11	0	7.19	-4.14465e-06	72363.6
2	0	0	1	0	0	1115.47	0.53392	0.533671	-0.00884546	9	0.145399	11	0	9.9861	-4.72056e-06	60332.8
2	0	0	1	0	0	1118.26	0.519939	0.519722	-0.00917316	9	0.145374	11	0	12.7823	-4.76749e-06	56656.8
2	0	0	1	0	0	1121.06	0.505958	0.505696	-0.00985586	9	0.145346	11	0	15.5784	-4.98407e-06	51309.1
2	0	0	1	0	0	1123.85	0.491978	0.491757	-0.0102936	9	0.145318	11	0	18.3745	-5.06195e-06	47773
2	0	0	1	0	0	1126.65	0.477996	0.47778	-0.0109338	9	0.145288	11	0	21.1707	-5.22394e-06	43697.6
2	0	0	1	0	0	1129.45	0.464016	0.4638	-0.0109886	9	0.145258	11	0	23.9668	-5.09652e-06	42207.4
2	0	0	1	0	0	1132.22	0.450161	0.450005	-0.0122701	9	0.145226	11	0	26.7379	-5.5216e-06	36674.9
2	1	0	0	0	1	1134.9	0.463267	0.463002	0.0111718	10	0.145254	11	0	2.5964	5.17256e-06	41443.9
2	1	0	1	0	1	1137.69	0.477248	0.476982	0.0117497	10	0.145286	11	0	5.3925	5.6044e-06	40595.2
2	1	0	1	0	1	1140.49	0.491229	0.491033	0.0115075	10	0.145318	11	0	8.1887	5.65058e-06	42670.5
2	1	0	0	0	1	1143.29	0.505209	0.504921	0.0113441	10	0.14535	11	0	10.9848	5.7279e-06	44509.4
2	1	0	1	0	1	1146.08	0.51919	0.518954	0.0111984	10	0.145382	11	0	13.7809	5.81146e-06	46341.8
2	1	0	1	0	1	1148.88	0.533171	0.53294	0.0116463	10	0.145415	11	0	16.5771	6.20677e-06	45760.5
2	1	0	0	0	1	1151.67	0.547151	0.546977	0.0119903	10	0.145448	11	0	19.3732	6.55842e-06	45618.3
2	1	0	1	0	1	1154.47	0.561132	0.560871	0.0136411	10	0.145485	11	0	22.1693	7.65087e-06	41116.4
2	1	0	1	0	1	1157.27	0.575112	0.574875	0.0163542	10	0.145526	11	0	24.9654	9.40159e-06	35151.6
2	1	0	1	0	1	1160.06	0.589093	0.588851	0.0221498	10	0.145579	11	0	27.7615	1.3043e-05	26584.9
2	1	0	1	0	1	1162.86	0.603074	0.602843	0.033344	10	0.145655	11	0	30.5577	2.01012e-05	18079.5
2	1	0	1	0	1	1165.65	0.617054	0.616799	0.0577566	10	0.145779	11	0	33.3538	3.56242e-05	10679.3
2	1	0	1	0	1	1168.45	0.631035	0.630797	0.10628	10	0.146001	11	0	36.1499	6.70412e-05	5935.23
2	1	0	0	0	1	1171.25	0.645015	0.644809	0.199731	10	0.146416	11	0	38.946	0.000128789	3228.39
2	1	0	1	0	1	1174.04	0.658995	0.658796	0.362011	10	0.147184	11	0	41.7421	0.000238492	1819.82
2	1	0	1	0	1	1176.84	0.672977	0.672724	0.613882	10	0.148529	11	0	44.5383	0.000412973	1095.85
2	1	0	0	0	1	1179.63	0.686957	0.686757	0.954055	10	0.150705	11	0	47.3344	0.000655204	719.829
2	1	0	1	0	1	1182.25	0.699964	0.699764	1.32251	10	0.153686	11	0	49.948	0.000925445	529.119
2	1	0	0	0	1	1185	0.686208	0.685993	0.819781	10	0.156565	11	0	52.6992	0.000562364	836.801
2	1	0	1	0	1	1187.8	0.672228	0.672007	0.490699	10	0.15836	11	0	55.4953	0.000329753	1369.49
2	1	0	1	0	1	1190.59	0.658247	0.657999	0.279597	10	0.159415	11	0	58.2914	0.000183974	2353.39
2	1	0	1	0	1	1193.39	0.644267	0.644069	0.147948	10	0.159996	11	0	61.0875	9.52889e-05	4353.34
2	1	0	1	0	1	1196.18	0.630286	0.630042	0.0717761	10	0.160292	11	0	63.8837	4.5222e-05	8777.88
2	1	0	1	0	1	1198.98	0.616305	0.616064	0.0325004	10	0.160431	11	0	66.6798	2.00223e-05	18955.6
2	1	0	1	0	1	1201.78	0.602325	0.60209	0.012197	10	0.160489	11	0	69.4759	7.34368e-06	49363.8
2	0	0	1	0	1	1204.57	0.588343	0.588158	0.00170669	10	0.160507	11	0	72.2721	1.0038e-06	344620
2	0	0	1	0	1	1207.37	0.574363	0.574114	-0.00352654	10	0.160503	11	0	1.5978	-2.02463e-06	162798
2	1	0	1	0	1	1210.16	0.560382	0.560209	-0.00613212	10	0.160489	11	0	4.3939	-3.43527e-06	91356.6
2	1	0	0	0	1	1212.96	0.546402	0.546216	-0.00754052	10	0.160469	11	0	7.19	-4.11875e-06	72437.4
2	1	0	1	0	1	1215.76	0.532422	0.532204	-0.0086747	10	0.160445	11	0	9.9861	-4.61671e-06	61351.3
2	0	0	1	0	1	1218.55	0.51844	0.518157	-0.00951565	10	0.160419	11	0	12.7823	-4.9306e-06	54453.1
2	0	0	0	0	1	1221.35	0.50446	0.504215	-0.00999472	10	0.160392	11	0	15.5784	-5.03949e-06	50448.1
2	0	0	1	0	1	1224.15	0.49048	0.490269	-0.0102475	10	0.160364	11	0	18.3745	-5.02403e-06	47842.9
2	0	0	1	0	1	1226.94	0.476499	0.476231	-0.0105594	10	0.160334	11	0	21.1706	-5.0287e-06	45100.4
2	0	0	1	0	1	1229.74	0.462519	0.462248	-0.0111793	10	0.160303	11	0	23.9667	-5.1676e-06	41348.6
2	1	0	1	0	0	1232.39	0.450785	0.450632	0.00955449	11	0.160275	11	0	0.0999	4.30556e-06	47164.4
2	1	0	1	0	0	1235.19	0.464765	0.464529	0.0111515	11	0.160305	11	0	2.896	5.18018e-06	41656.3
2	1	0	1	0	0	1237.98	0.478746	0.478484	0.0113015	11	0.160337	11	0	5.6921	5.40761e-06	42338
2	1	0	1	0	0	1240.78	0.492727	0.492527	0.0111825	11	0.160369	11	0	8.4883	5.5077e-06	44044.3
2	1	0	1	0	0	1243.58	0.506707	0.506502	0.0114994	11	0.160401	11	0	11.2844	5.82445e-06	44046.1
2	0	0	1	0	0	1246.37	0.520688	0.520473	0.0111012	11	0.160433	11	0	14.0805	5.77787e-06	46884.5
2	1	0	0	0	0	1249.17	0.534668	0.534431	0.0117486	11	0.160465	11	0	16.8766	6.2788e-06	45488.9
2	1	0	1	0	0	1251.96	0.548649	0.5484	0.0122548	11	0.160499	11	0	19.6727	6.72052e-06	44749.9
2	1	0	1	0	0	1254.76	0.56263	0.562375	0.0136884	11	0.160536	11	0	22.4689	7.69804e-06	41084
2	1	0	0	0	0	1257.56	0.57661	0.576347	0.0165317	11	0.160578	11	0	25.265	9.52798e-06	34863.2
2	1	0	1	0	0	1260.35	0.590591	0.590352	0.0228583	11	0.160632	11	0	28.0611	1.34944e-05	25826.6
2	1	0	1	0	0	1263.15	0.604572	0.604354	0.0350828	11	0.160711	11	0	30.8573	2.12025e-05	17226.5
2	1	0	0	0	0	1265.94	0.618552	0.618338	0.0610884	11	0.160842	11	0	33.6534	3.77733e-05	10122
2	1	0	1	0	0	1268.74	0.632533	0.632283	0.112724	11	0.161077	11	0	36.4495	7.12732e-05	5609.15
2	1	0	1	0	0	1271.54	0.646513	0.646315	0.212078	11	0.161518	11	0	39.2456	0.000137069	3047.53
2	1	0	1	0	0	1274.33	0.660494	0.660276	0.383509	11	0.162332	11	0	42.0417	0.000253222	1721.67
2	1	0	1	0	0	1277.13	0.674475	0.674243	0.64587	11	0.163751	11	0	44.8379	0.000435474	1043.93
2	1	0	1	0	0	1279.93	0.688455	0.688267	0.995025	11	0.166028	11	0	47.634	0.000684843	691.708
2	1	0	1	0	0	1282.49	0.69869	0.698448	1.26797	11	0.169052	11	0	50.2027	0.000885611	550.84
2	1	0	1	0	0	1285.29	0.68471	0.684525	0.77245	11	0.171844	11	0	52.9988	0.000528762	886.175
2	1	0	1	0	0	1288.09	0.67073	0.670539	0.460167	11	0.173535	11	0	55.7949	0.00030856	1457.17
2	1	0	0	0	0	1290.88	0.656749	0.656505	0.261524	11	0.17452	11	0	58.591	0.000171692	2510.3
2	1	0	1	0	0	1293.68	0.642769	0.64259	0.137224	11	0.175063	11	0	61.3871	8.81791e-05	4682.77
2	1	0	1	0	0	1296.47	0.628787	0.628526	0.0665556	11	0.175337	11	0	64.1833	4.18319e-05	9443.63
2	1	0	0	0	0	1299.27	0.614807	0.614566	0.0295903	11	0.175466	11	0	66.9794	1.81852e-05	20769.2
2	1	0	1	0	0	1302.07	0.600827	0.600612	0.0105666	11	0.175518	11	0	69.7755	6.34643e-06	56840.6
2	0	0	1	0	0	1304.86	0.586846	0.586619	0.00101437	11	0.175533	11	0	72.5716	5.95049e-07	578308
2	0	0	1	0	0	1307.66	0.572866	0.572655	-0.00409556	11	0.175527	11	0	2.097	-2.34534e-06	139823
2	1	0	1	0	0	1310.46	0.558885	0.558659	-0.00642069	11	0.175512	11	0	4.8932	-3.58697e-06	87009.1
2	1	0	1	0	0	1313.25	0.544904	0.544667	-0.00807417	11	0.175491	11	0	7.6893	-4.39774e-06	67458
2	1	0	1	0	0	1316.05	0.530924	0.530727	-0.00882243	11	0.175467	11	0	10.4854	-4.6823e-06	60156.5
2	0	0	1	0	0	1318.84	0.516942	0.516701	-0.0096698	11	0.175441	11	0	13.2816	-4.9964e-06	53434.6
2	0	0	1	0	0	1321.64	0.502962	0.502674	-0.00986949	11	0.175414	11	0	16.0777	-4.96113e-06	50932.1
2	0	0	1	0	0	1324.44	0.488982	0.488756	-0.0104937	11	0.175385	11	0	18.8738	-5.12884e-06	46576.2
2	0	0	0	0	0	1327.23	0.475001	0.474735	-0.0107783	11	0.175355	11	0	21.6699	-5.11685e-06	44045.3
2	0	0	1	0	0	1330.03	0.461021	0.460749	-0.011423	11	0.175323	11	0	24.466	-5.26315e-06	40335.1
2	1	0	1	0	1	1332.68	0.452283	0.452015	0.0102028	12	0.175302	11	0	0.3995	4.61184e-06	44302.9
2	1	0	0	0	1	1335.48	0.466263	0.466021	0.0111925	12	0.175333	11	0	3.1956	5.21593e-06	41637
2	1	0	1	0	1	1338.27	0.480244	0.480005	0.0113594	12	0.175364	11	0	5.9917	5.45258e-06	42256.1
2	1	0	1	0	1	1341.07	0.494225	0.494022	0.0112122	12	0.175396	11	0	8.7879	5.53907e-06	44061.1
2	1	0	0	0	1	1343.87	0.508205	0.50794	0.0113734	12	0.175428	11	0	11.584	5.77699e-06	44660.4
2	1	0	1	0	1	1346.66	0.522186	0.521992	0.011308	12	0.17546	11	0	14.3801	5.90267e-06	46161.4
2	1	0	1	0	1	1349.46	0.536166	0.535904	0.0116267	12	0.175492	11	0	17.1762	6.23081e-06	46092.4
2	1	0	1	0	1	1352.25	0.550147	0.549942	0.0122849	12	0.175526	11	0	19.9723	6.75596e-06	44765.7
2	1	0	1	0	1	1355.05	0.564128	0.563883	0.0138852	12	0.175562	11	0	22.7685	7.82963e-06	40610.4
2	1	0	1	0	1	1357.85	0.578108	0.577899	0.0168857	12	0.175605	11	0	25.5646	9.75825e-06	34224.1
2	1	0	1	0	1	1360.64	0.592089	0.591879	0.0235192	12	0.175661	11	0	28.3607	1.39205e-05	25165.8
2	1	0	0	0	1	1363.44	0.606069	0.605883	0.0368582	12	0.175743	11	0	31.1568	2.23317e-05	16438.2
2	1	0	1	0	1	1366.23	0.62005	0.619843	0.0642959	12	0.175881	11	0	33.9529	3.98534e-05	9640.48
2	1	0	1	0	1	1369.03	0.634031	0.633821	0.119267	12	0.176129	11	0	36.7491	7.55941e-05	5314.29
2	1	0	0	0	1	1371.83	0.648011	0.647827	0.224427	12	0.176596	11	0	39.5452	0.00014539	2886.59
2	1	0	1	0	1	1374.62	0.661992	0.661727	0.402207	12	0.177453	11	0	42.3413	0.000266151	1645.24
2	1	0	1	0	1	1377.42	0.675973	0.67579	0.670087	12	0.178932	11	0	45.1375	0.000452838	1008.51
2	1	0	0	0	1	1380.22	0.689953	0.689721	1.02916	12	0.181288	11	0	47.9336	0.000709837	670.176
2	1	0	1	0	1	1382.78	0.697193	0.69694	1.18245	12	0.184341	11	0	50.5022	0.000824099	589.402
2	1	0	1	0	1	1385.58	0.683213	0.68297	0.7218	12	0.186945	11	0	53.2983	0.000492967	946.204
2	1	0	1	0	1	1388.38	0.669231	0.668995	0.4323	12	0.188531	11	0	56.0945	0.000289206	1547.53
2	1	0	1	0	1	1391.17	0.655251	0.65501	0.237933	12	0.189445	11	0	58.8906	0.000155849	2752.92
2	1	0	1	0	1	1393.97	0.641271	0.641024	0.122672	12	0.189933	11	0	61.6867	7.86358e-05	5225.5
2	1	0	1	0	1	1396.76	0.627289	0.627107	0.0590602	12	0.190178	11	0	64.4829	3.70371e-05	10618.1
2	1	0	1	0	1	1399.56	0.613309	0.613035	0.02593	12	0.190291	11	0	67.279	1.5896e-05	23641.9
2	1	0	1	0	1	1402.36	0.599329	0.599075	0.00876241	12	0.190336	11	0	70.0751	5.24934e-06	68368.7
2	0	0	0	0	1	1405.15	0.585348	0.585088	0.000238659	12	0.190347	11	0	0.000000000000000E+000	1.39636e-07	2.45157e+06
2	0	0	1	0	1	1407.95	0.571368	0.571143	-0.00456076	12	0.19034	11	0	2.7961	-2.60485e-06	125230
2	0	0	1	0	1	1410.75	0.557387	0.557195	-0.00659865	12	0.190324	11	0	5.5923	-3.67673e-06	84440.7
2	0	0	0	0	1	1413.54	0.543406	0.543173	-0.00826899	12	0.190303	11	0	8.3884	-4.49149e-06	65688
2	0	0	1	0	1	1416.34	0.529426	0.529238	-0.00885844	12	0.190278	11	0	11.1845	-4.68822e-06	59743.9
2	0	0	1	0	1	1419.13	0.515445	0.515212	-0.00968826	12	0.190252	11	0	13.9806	-4.9915e-06	53179
2	0	0	1	0	1	1421.93	0.501465	0.501202	-0.00994628	12	0.190224	11	0	16.7767	-4.9851e-06	50390.9
2	1	0	1	0	1	1424.73	0.487484	0.487254	-0.0105577	12	0.190195	11	0	19.5729	-5.14427e-06	46151.8
2	0	0	1	0	1	1427.52	0.473503	0.473274	-0.0108009	12	0.190165	11	0	22.369	-5.11177e-06	43818.2
2	0	0	1	0	1	1430.32	0.459523	0.459309	-0.011544	12	0.190134	11	0	25.1651	-5.30226e-06	39787.7
2	1	0	1	0	0	1432.97	0.453781	0.453546	0.0103727	13	0.190119	11	0	0.6991	4.70449e-06	43725
2	1	0	1	0	0	1435.77	0.467761	0.467544	0.0113364	13	0.19015	11	0	3.4952	5.30028e-06	41242.7
2	0	0	1	0	0	1438.56	0.481742	0.481509	0.011201	13	0.190182	11	0	6.2913	5.39336e-06	42988.2
2	1	0	0	0	0	1441.36	0.495722	0.49542	0.0112736	13	0.190214	11	0	9.0874	5.58517e-06	43945.1
2	1	0	1	0	0	1444.16	0.509702	0.50949	0.0111408	13	0.190245	11	0	11.8835	5.67613e-06	45731.8
2	1	0	1	0	0	1446.95	0.523684	0.523466	0.0114753	13	0.190277	11	0	14.6797	6.00695e-06	45616.6
2	1	0	0	0	0	1449.75	0.537664	0.537436	0.0115128	13	0.190309	11	0	17.4758	6.18736e-06	46681.8
2	1	0	1	0	0	1452.54	0.551645	0.551405	0.0125023	13	0.190343	11	0	20.2719	6.89386e-06	44104.2
2	1	0	1	0	0	1455.34	0.565625	0.565419	0.0139816	13	0.19038	11	0	23.068	7.90546e-06	40440.2
2	1	0	0	0	0	1458.14	0.579606	0.579377	0.0175266	13	0.190424	11	0	25.8642	1.01545e-05	33057.1
2	1	0	1	0	0	1460.93	0.593587	0.593321	0.0242484	13	0.190481	11	0	28.6603	1.43871e-05	24468.4
2	1	0	1	0	0	1463.73	0.607567	0.607373	0.0386864	13	0.190567	11	0	31.4564	2.34971e-05	15699.9
2	1	0	1	0	0	1466.53	0.621548	0.621279	0.0677688	13	0.190712	11	0	34.2525	4.21033e-05	9167.62
2	1	0	1	0	0	1469.32	0.635529	0.635329	0.12662	13	0.190976	11	0	37.0487	8.04456e-05	5017.58
2	1	0	1	0	0	1472.12	0.649509	0.649269	0.236097	13	0.191469	11	0	39.8448	0.000153291	2750
2	1	0	1	0	0	1474.91	0.66349	0.663258	0.421164	13	0.192368	11	0	42.6409	0.000279341	1574.82
2	1	0	0	0	0	1477.71	0.67747	0.677264	0.694977	13	0.19391	11	0	45.437	0.000470683	974.513
2	1	0	1	0	0	1480.51	0.69145	0.691252	1.05348	13	0.196338	11	0	48.2331	0.000728221	656.161
2	1	0	0	0	0	1483.07	0.695695	0.695476	1.11584	13	0.199384	11	0	50.8018	0.000776037	623.277
2	1	0	1	0	0	1485.87	0.681715	0.681505	0.681438	13	0.201853	11	0	53.5979	0.000464403	1000.1
2	1	0	1	0	0	1488.67	0.667733	0.667477	0.395059	13	0.203326	11	0	56.3941	0.000263693	1689.56
2	1	0	0	0	0	1491.46	0.653753	0.653492	0.218972	13	0.204161	11	0	59.1902	0.000143097	2984.36
2	1	0	1	0	0	1494.26	0.639773	0.639519	0.113922	13	0.204613	11	0	61.9863	7.28555e-05	5613.65
2	1	0	1	0	0	1497.06	0.625792	0.625597	0.0545119	13	0.20484	11	0	64.7824	3.41025e-05	11476.3
2	1	0	1	0	0	1499.85	0.611812	0.611633	0.0234092	13	0.204944	11	0	67.5785	1.43178e-05	26127.9
2	1	0	1	0	0	1502.65	0.59783	0.597595	0.00733758	13	0.204984	11	0	70.3747	4.3849e-06	81443.1
2	1	0	1	0	0	1505.44	0.58385	0.58359	-0.000471692	13	0.204992	11	0	0.2996	-2.75275e-07	1.23723e+06
2	0	0	1	0	0	1508.24	0.56987	0.569657	-0.00477305	13	0.204984	11	0	3.0957	-2.719e-06	119349
2	0	0	1	0	0	1511.04	0.555888	0.555667	-0.00682632	13	0.204967	11	0	5.8919	-3.79316e-06	81400.7
2	0	0	1	0	0	1513.83	0.541908	0.541677	-0.00833761	13	0.204945	11	0	8.688	-4.51629e-06	64968
2	0	0	1	0	0	1516.63	0.527928	0.5277	-0.00913119	13	0.20492	11	0	11.4841	-4.81853e-06	57790.9
2	0	0	0	0	0	1519.42	0.513947	0.51372	-0.00967165	13	0.204894	11	0	14.2802	-4.96852e-06	53116.1
2	0	0	1	0	0	1522.22	0.499967	0.499703	-0.00997236	13	0.204866	11	0	17.0763	-4.98322e-06	50108.8
2	0	0	1	0	0	1525.02	0.485985	0.485717	-0.0104193	13	0.204837	11	0	19.8725	-5.06086e-06	46616.9
2	0	0	0	0	0	1527.81	0.472005	0.47181	-0.0107388	13	0.204807	11	0	22.6686	-5.06668e-06	43935.1
2	0	0	1	0	0	1530.61	0.458025	0.457781	-0.0115257	13	0.204776	11	0	25.4647	-5.27626e-06	39718.2
2	1	0	1	0	1	1533.26	0.455279	0.455088	0.0106219	14	0.204767	11	0	0.9987	4.83388e-06	42844.5
2	0	0	1	0	1	1536.06	0.469259	0.469042	0.0114154	14	0.204799	11	0	3.7947	5.35431e-06	41088.5
2	0	0	1	0	1	1538.85	0.48324	0.483011	0.0111259	14	0.204831	11	0	6.5909	5.37393e-06	43413.2
2	1	0	1	0	1	1541.65	0.49722	0.49697	0.0113234	14	0.204862	11	0	9.387	5.62739e-06	43888.8
2	1	0	1	0	1	1544.45	0.511201	0.510927	0.0111355	14	0.204894	11	0	12.1831	5.68944e-06	45882.7
2	1	0	1	0	1	1547.24	0.525182	0.524972	0.0114446	14	0.204926	11	0	14.9793	6.00812e-06	45870.6
2	1	0	1	0	1	1550.04	0.539162	0.538897	0.0114972	14	0.204958	11	0	17.7754	6.19582e-06	46872
2	1	0	1	0	1	1552.84	0.553143	0.552964	0.0125108	14	0.204992	11	0	20.5715	6.91801e-06	44199
2	1	0	0	0	1	1555.63	0.567123	0.566899	0.0142435	14	0.205029	11	0	23.3676	8.07461e-06	39800.6
2	1	0	1	0	1	1558.43	0.581103	0.580873	0.017853	14	0.205074	11	0	26.1637	1.03703e-05	32536.4
2	1	0	1	0	1	1561.22	0.595085	0.594943	0.0251448	14	0.205133	11	0	28.9599	1.49597e-05	23660.6
2	1	0	0	0	1	1564.02	0.609065	0.608855	0.040569	14	0.205223	11	0	31.756	2.47006e-05	15007.9
2	1	0	1	0	1	1566.82	0.623046	0.622823	0.0717	14	0.205375	11	0	34.5521	4.46564e-05	8686.52
2	1	0	1	0	1	1569.61	0.637026	0.636837	0.133805	14	0.205654	11	0	37.3482	8.52118e-05	4759.45
2	1	0	1	0	1	1572.41	0.651006	0.650796	0.248879	14	0.206174	11	0	40.1443	0.000161969	2614.91
2	1	0	1	0	1	1575.2	0.664988	0.664757	0.439501	14	0.207118	11	0	42.9405	0.000292161	1512.53
2	1	0	1	0	1	1578	0.678968	0.678732	0.717205	14	0.208717	11	0	45.7366	0.00048679	946.357
2	1	0	1	0	1	1580.8	0.692949	0.692722	1.07246	14	0.211205	11	0	48.5327	0.000742917	645.917
2	1	0	1	0	1	1583.36	0.694197	0.693944	1.02619	14	0.214179	11	0	51.1014	0.000712122	676.231
2	1	0	1	0	1	1586.16	0.680217	0.679959	0.621753	14	0.216437	11	0	53.8975	0.000422767	1093.62
2	1	0	1	0	1	1588.96	0.666236	0.666032	0.358799	14	0.217779	11	0	56.6937	0.000238972	1856.28
2	1	0	1	0	1	1591.75	0.652255	0.652015	0.195229	14	0.218533	11	0	59.4898	0.000127292	3339.75
2	1	0	1	0	1	1594.55	0.638274	0.63802	0.0992948	14	0.218931	11	0	62.2859	6.3352e-05	6425.51
2	1	0	0	0	1	1597.35	0.624294	0.624074	0.0476141	14	0.219129	11	0	65.082	2.97147e-05	13106.9
2	1	0	1	0	1	1600.14	0.610314	0.610068	0.0201415	14	0.219219	11	0	67.8781	1.22877e-05	30289.1
2	1	0	1	0	1	1602.94	0.596332	0.596123	0.00605755	14	0.219254	11	0	70.6743	3.61105e-06	98409.8
2	1	0	0	0	1	1605.73	0.582352	0.582123	-0.00134675	14	0.219259	11	0	0.4993	-7.83971e-07	432244
2	0	0	1	0	1	1608.53	0.568372	0.56819	-0.00501421	14	0.219249	11	0	3.2954	-2.84902e-06	113316
2	0	0	1	0	1	1611.33	0.554391	0.554138	-0.00715761	14	0.219232	11	0	6.0915	-3.9663e-06	77419.5
2	0	0	1	0	1	1614.12	0.540411	0.540173	-0.00820866	14	0.21921	11	0	8.8876	-4.4341e-06	65805.2
2	0	0	1	0	1	1616.92	0.526429	0.526228	-0.00907965	14	0.219185	11	0	11.6838	-4.77797e-06	57956.9
2	0	0	1	0	1	1619.71	0.512449	0.51223	-0.00955017	14	0.219159	11	0	14.4799	-4.89188e-06	53635.7
2	0	0	1	0	1	1622.51	0.498469	0.498212	-0.0101424	14	0.219131	11	0	17.276	-5.05306e-06	49121.7
2	1	0	1	0	1	1625.31	0.484487	0.484259	-0.0104983	14	0.219102	11	0	20.0722	-5.08392e-06	46127.1
2	0	0	1	0	1	1628.1	0.470507	0.470272	-0.0109529	14	0.219072	11	0	22.8683	-5.15085e-06	42935.9
2	0	0	1	0	1	1630.9	0.456527	0.456308	-0.0114515	14	0.21904	11	0	25.6644	-5.2254e-06	39847
2	1	0	0	0	0	1633.55	0.456776	0.456546	0.0107438	15	0.219039	11	0	1.2982	4.90504e-06	42493.9
2	1	0	1	0	0	1636.35	0.470756	0.470519	0.0112208	15	0.21907	11	0	4.0943	5.27962e-06	41932.6
2	1	0	1	0	0	1639.14	0.484738	0.484499	0.0111252	15	0.219101	11	0	6.8905	5.39014e-06	43549.8
2	1	0	0	0	0	1641.94	0.498718	0.498469	0.0112551	15	0.219133	11	0	9.6866	5.61033e-06	44288.1
2	1	0	1	0	0	1644.74	0.512699	0.512423	0.0112432	15	0.219165	11	0	12.4827	5.76126e-06	45576.4
2	1	0	1	0	0	1647.53	0.52668	0.526408	0.0115038	15	0.219197	11	0	15.2789	6.05571e-06	45759.4
2	1	0	1	0	0	1650.33	0.54066	0.540396	0.0117568	15	0.21923	11	0	18.0749	6.35334e-06	45964.4
2	1	0	1	0	0	1653.13	0.554641	0.554416	0.0127147	15	0.219264	11	0	20.8711	7.04921e-06	43604.5
2	1	0	1	0	0	1655.92	0.568621	0.568388	0.0143049	15	0.219302	11	0	23.6672	8.13073e-06	39733.8
2	1	0	1	0	0	1658.72	0.582602	0.582356	0.0184259	15	0.219347	11	0	26.4633	1.07305e-05	31605.2
2	1	0	1	0	0	1661.51	0.596583	0.596335	0.0262258	15	0.219409	11	0	29.2595	1.56394e-05	22738.5
2	1	0	1	0	0	1664.31	0.610563	0.610348	0.042926	15	0.219503	11	0	32.0556	2.61998e-05	14218.6
2	1	0	1	0	0	1667.11	0.624544	0.624333	0.0760169	15	0.219664	11	0	34.8517	4.74599e-05	8213.08
2	1	0	0	0	0	1669.9	0.638524	0.638276	0.142263	15	0.219959	11	0	37.6478	9.0803e-05	4486.59
2	1	0	1	0	0	1672.7	0.652504	0.65227	0.263466	15	0.220512	11	0	40.4439	0.000171851	2475.73
2	1	0	1	0	0	1675.49	0.666486	0.666275	0.464329	15	0.221509	11	0	43.2401	0.00030937	1434.92
2	1	0	0	0	0	1678.29	0.680466	0.680251	0.75378	15	0.223195	11	0	46.0362	0.00051276	902.452
2	1	0	1	0	0	1681.09	0.694447	0.694194	1.11654	15	0.225796	11	0	48.8323	0.000775096	621.737
2	1	0	0	0	0	1683.66	0.692699	0.692491	0.980067	15	0.228753	11	0	51.401	0.000678687	706.575
2	1	0	1	0	0	1686.45	0.678719	0.678501	0.590641	15	0.230909	11	0	54.1971	0.00040075	1148.75
2	1	0	1	0	0	1689.25	0.664738	0.664534	0.339602	15	0.23218	11	0	56.9932	0.000225677	1956.8
2	1	0	1	0	0	1692.04	0.650758	0.650516	0.185946	15	0.232896	11	0	59.7893	0.000120961	3498.41
2	1	0	1	0	0	1694.84	0.636777	0.636568	0.096672	15	0.233278	11	0	62.5855	6.15383e-05	6584.82
2	1	0	1	0	0	1697.64	0.622796	0.622532	0.0455281	15	0.233469	11	0	65.3816	2.83427e-05	13673.6
2	1	0	1	0	0	1700.43	0.608816	0.608659	0.0187783	15	0.233554	11	0	68.1777	1.14296e-05	32412.9
2	1	0	1	0	0	1703.23	0.594834	0.594585	0.00523813	15	0.233586	11	0	70.9739	3.11452e-06	113511
2	1	0	1	0	0	1706.02	0.580854	0.580598	-0.00189173	15	0.233589	11	0	0.5992	-1.09834e-06	306914
2	0	0	1	0	0	1708.82	0.566874	0.566689	-0.00507355	15	0.233578	11	0	3.3953	-2.87512e-06	111695
2	0	0	0	0	0	1711.62	0.552893	0.552647	-0.00725279	15	0.233561	11	0	6.1914	-4.00823e-06	76197.8
2	1	0	1	0	0	1714.41	0.538913	0.538694	-0.00840759	15	0.233539	11	0	8.9875	-4.52912e-06	64072.4
2	1	0	1	0	0	1717.21	0.524931	0.52471	-0.00933489	15	0.233514	11	0	11.7837	-4.89811e-06	56209.5
2	0	0	0	0	0	1720	0.510951	0.510716	-0.00944009	15	0.233487	11	0	14.5798	-4.8212e-06	54100.7
2	0	0	1	0	0	1722.8	0.496971	0.496722	-0.0100805	15	0.233459	11	0	17.3759	-5.0072e-06	49275.7
2	0	0	1	0	0	1725.6	0.48299	0.482787	-0.0103121	15	0.233431	11	0	20.172	-4.97853e-06	46817.7
2	0	0	1	0	0	1728.39	0.46901	0.46868	-0.011068	15	0.2334	11	0	22.9681	-5.18735e-06	42345.5
2	0	0	1	0	0	1731.19	0.455029	0.454748	-0.0114086	15	0.233369	11	0	25.7643	-5.18802e-06	39860.3
2	0	0	1	0	0	1732.19	0.450011	0.449792	-0.0157912	15	0.233357	11	0	26.765	-7.10276e-06	28483.8