File: ACS_Catal_2026/Figures_Na_K/main_figures/data/EC/20251112_2-148_alpha_reproducibility/20251112_2-148_002_alpha_reproducibility_2_K2_03_CVA_C02.mpt
EC-Lab ASCII FILE
Nb header lines : 66

Cyclic Voltammetry Advanced

Run on channel : 2 (SN 69290)
User :
CE vs. WE compliance from -10 V to 10 V
Electrode connection : standard
Potential control : Ewe
Ewe ctrl range : min = -1.00 V, max = 1.00 V
Safety Limits :
	Do not start on E overload
Acquisition started on : 11/12/2025 14:40:45.077
Loaded Setting File :  C:\Users\User\Documents\EC-Lab\Data\Yatsuzuka\20251112_2-148_alpha_reproducibility\20251112_2-148_002_alpha_reproducibility_2_K1.mps
Saved on :
	File : 20251112_2-148_002_alpha_reproducibility_2_K2_03_CVA_C02.mpr
	Directory : C:\Users\User\Documents\EC-Lab\Data\Yatsuzuka\20251112_2-148_alpha_reproducibility\
	Host : 192.109.209.127
Device : SP-150e (SN .003883)
Address : 192.109.209.128
EC-LAB for windows v11.52 (software)
Internet server v11.52 (firmware)
Command interpretor v11.50 (firmware)
Electrode material :
Initial state :
Electrolyte :
Comments :
Electrode surface area : 0.001 cm2
Characteristic mass : 0.001 g
Equivalent Weight : 0.000 g/eq.
Density : 0.000 g/cm3
Volume (V) : 0.001 cm3
Cycle Definition : Charge/Discharge alternance
Ei (V)              0.450
vs.                 Ref
ti (h:m:s)          0:00:10.0000
dti (s)             0.0000
dE/dt               5.000
dE/dt unit          mV/s
E1 (V)              0.700
vs.                 Ref
t1 (h:m:s)          0:00:0.0000
dt1 (s)             0.1000
Step percent        50
N                   10
E range min (V)     -1.000
E range max (V)     1.000
I Range             10 mA
I Range min         Unset
I Range max         Unset
I Range init        Unset
Bandwidth           5
E2 (V)              0.450
vs.                 Ref
t2 (h:m:s)          0:00:0.0000
dt2 (s)             0.1000
nc cycles           14
nr                  1
Reverse Scan        0
Ef (V)              0.000
vs.                 Eoc
tf (h:m:s)          0:00:0.0000
dtf (s)             0.1000

mode	ox/red	error	control changes	Ns changes	counter inc.	time/s	control/V	Ewe/V	<I>/mA	cycle number	(Q-Qo)/C	I Range	Ns	step time/s	Pwe/W	Rwe/Ohm
2	1	0	0	0	0	232.206	0.450021	0.449496	0.0105261	1	0.0000000E+000	11	0	0.000000000000000E+000	4.73144e-06	42703.1
2	1	0	0	0	0	234.958	0.463779	0.463275	0.0143243	1	3.76792e-05	11	0	2.6968	6.6361e-06	32341.9
2	1	0	1	0	0	237.755	0.477762	0.47725	0.0136645	1	7.66097e-05	11	0	5.4935	6.5214e-06	34926.1
2	1	0	1	0	0	240.552	0.491746	0.491324	0.013066	1	0.000115008	11	0	8.2902	6.41966e-06	37603.2
2	1	0	1	0	0	243.348	0.505729	0.505265	0.0143399	1	0.000153225	11	0	11.0869	7.24545e-06	35235
2	1	0	0	0	0	246.145	0.519713	0.519254	0.0141521	1	0.000191341	11	0	13.8836	7.34855e-06	36690.9
2	1	0	1	0	0	248.942	0.533697	0.533222	0.0143077	1	0.000230356	11	0	16.6803	7.62916e-06	37268.3
2	1	0	1	0	0	251.738	0.547679	0.547254	0.0147065	1	0.000271099	11	0	19.4769	8.04818e-06	37211.8
2	1	0	0	0	0	254.535	0.561663	0.561198	0.0163212	1	0.000315273	11	0	22.2736	9.15943e-06	34384.5
2	1	0	1	0	0	257.332	0.575646	0.575149	0.0199563	1	0.000366769	11	0	25.0703	1.14779e-05	28820.4
2	1	0	1	0	0	260.128	0.58963	0.589192	0.0268022	1	0.000432886	11	0	27.867	1.57916e-05	21983
2	1	0	1	0	0	262.925	0.603614	0.603198	0.0413715	1	0.000528248	11	0	30.6637	2.49552e-05	14580
2	1	0	0	0	0	265.722	0.617597	0.617152	0.0707142	1	0.000682853	11	0	33.4604	4.36414e-05	8727.41
2	1	0	1	0	0	268.518	0.631581	0.63118	0.129926	1	0.000956998	11	0	36.2571	8.20069e-05	4857.99
2	1	0	1	0	0	271.315	0.645563	0.645113	0.242218	1	0.00146365	11	0	39.0537	0.000156258	2663.36
2	1	0	0	0	0	274.112	0.659547	0.659124	0.43666	1	0.00239174	11	0	41.8504	0.000287813	1509.47
2	1	0	1	0	0	276.908	0.67353	0.673099	0.744	1	0.00401686	11	0	44.6471	0.000500786	904.703
2	1	0	1	0	0	279.705	0.687514	0.687051	1.16502	1	0.00666351	11	0	47.4438	0.000800429	589.732
2	1	0	1	0	0	282.252	0.699749	0.699287	1.59696	1	0.0102094	11	0	49.9911	0.00111673	437.887
2	1	0	1	0	0	285.049	0.685766	0.685327	1.00054	1	0.0137606	11	0	52.7878	0.000685696	684.958
2	1	0	1	0	0	287.846	0.671782	0.671368	0.612246	1	0.0159792	11	0	55.5845	0.000411042	1096.57
2	1	0	1	0	0	290.642	0.6578	0.657359	0.350016	1	0.0172971	11	0	58.3811	0.000230086	1878.08
2	1	0	1	0	0	293.439	0.643816	0.643384	0.187578	1	0.0180291	11	0	61.1778	0.000120684	3429.96
2	1	0	1	0	0	296.236	0.629833	0.629361	0.093314	1	0.0184075	11	0	63.9745	5.87281e-05	6744.55
2	1	0	0	0	0	299.033	0.615849	0.615407	0.042448	1	0.0185885	11	0	66.7712	2.61228e-05	14497.9
2	1	0	1	0	0	301.829	0.601865	0.601447	0.0164083	1	0.0186671	11	0	69.5679	9.86874e-06	36654.9
2	0	0	1	0	0	304.626	0.587882	0.587353	0.00493631	1	0.0186942	11	0	72.3646	2.89936e-06	118986
2	0	0	1	0	0	307.423	0.573898	0.573464	-0.00224853	1	0.0186959	11	0	0.9988	-1.28945e-06	255040
2	0	0	1	0	0	310.219	0.559916	0.559475	-0.00622872	1	0.0186841	11	0	3.7954	-3.48481e-06	89821.8
2	0	0	1	0	0	313.016	0.545932	0.545499	-0.00766199	1	0.0186649	11	0	6.5921	-4.17961e-06	71195.5
2	0	0	1	0	0	315.813	0.531948	0.531441	-0.0078264	1	0.018642	11	0	9.3888	-4.15927e-06	67903.7
2	0	0	0	0	0	318.609	0.517965	0.517496	-0.0090124	1	0.0186167	11	0	12.1855	-4.66388e-06	57420.4
2	1	0	1	0	0	321.406	0.503981	0.503523	-0.0105449	1	0.0185896	11	0	14.9822	-5.30962e-06	47750.2
2	1	0	1	0	0	324.203	0.489998	0.489514	-0.0103534	1	0.0185608	11	0	17.7789	-5.06813e-06	47280.6
2	0	0	1	0	0	326.999	0.476014	0.47552	-0.0101242	1	0.018531	11	0	20.5756	-4.81426e-06	46968.6
2	0	0	1	0	0	329.796	0.462032	0.461585	-0.0115287	1	0.0185001	11	0	23.3722	-5.32147e-06	40037.9
2	1	0	1	0	1	332.362	0.450844	0.450371	0.011745	2	0.0184734	11	0	0.0999	5.2896e-06	38345.8
2	1	0	1	0	1	335.159	0.464828	0.464321	0.0124485	2	0.018508	11	0	2.8966	5.78008e-06	37299.5
2	1	0	1	0	1	337.956	0.478812	0.478421	0.0121819	2	0.0185438	11	0	5.6933	5.82806e-06	39273.2
2	1	0	1	0	1	340.752	0.492794	0.492338	0.0127937	2	0.0185796	11	0	8.4899	6.29884e-06	38482.7
2	1	0	1	0	1	343.549	0.506778	0.506309	0.0131021	2	0.0186155	11	0	11.2866	6.63372e-06	38643.3
2	1	0	1	0	1	346.346	0.520761	0.520258	0.0124592	2	0.0186514	11	0	14.0833	6.482e-06	41757
2	1	0	0	0	1	349.142	0.534745	0.53428	0.0127568	2	0.0186878	11	0	16.88	6.81569e-06	41882.1
2	1	0	1	0	1	351.939	0.548729	0.548256	0.0141136	2	0.0187259	11	0	19.6767	7.73788e-06	38845.9
2	1	0	1	0	1	354.736	0.562712	0.562231	0.0160081	2	0.0187675	11	0	22.4734	9.00026e-06	35121.6
2	1	0	1	0	1	357.532	0.576696	0.576248	0.0188383	2	0.0188162	11	0	25.2701	1.08555e-05	30589.2
2	1	0	1	0	1	360.329	0.590678	0.590222	0.0262757	2	0.0188796	11	0	28.0667	1.55085e-05	22462.6
2	1	0	1	0	1	363.126	0.604662	0.604169	0.0416923	2	0.0189728	11	0	30.8634	2.51892e-05	14491.1
2	1	0	1	0	1	365.922	0.618645	0.618248	0.0727	2	0.0191272	11	0	33.6601	4.49466e-05	8504.09
2	1	0	0	0	1	368.719	0.632629	0.632195	0.133166	2	0.0194057	11	0	36.4568	8.41868e-05	4747.43
2	1	0	1	0	1	371.516	0.646612	0.646145	0.24845	2	0.0199248	11	0	39.2535	0.000160535	2600.7
2	1	0	1	0	1	374.313	0.660596	0.660165	0.44958	2	0.0208793	11	0	42.0502	0.000296797	1468.4
2	1	0	1	0	1	377.109	0.67458	0.674119	0.762722	2	0.0225478	11	0	44.8469	0.000514165	883.834
2	1	0	1	0	1	379.906	0.688562	0.688108	1.18777	2	0.0252486	11	0	47.6435	0.000817316	579.327
2	1	0	1	0	1	382.443	0.69875	0.698308	1.53103	2	0.0288291	11	0	50.1809	0.00106913	456.103
2	1	0	1	0	1	385.24	0.684768	0.684297	0.949538	2	0.0322426	11	0	52.9775	0.000649766	720.663
2	1	0	1	0	1	388.037	0.670784	0.670303	0.575797	2	0.0343344	11	0	55.7742	0.000385959	1164.13
2	1	0	1	0	1	390.833	0.6568	0.65637	0.332147	2	0.0355756	11	0	58.5709	0.000218011	1976.14
2	1	0	0	0	1	393.63	0.642817	0.64238	0.175683	2	0.0362661	11	0	61.3676	0.000112855	3656.48
2	1	0	1	0	1	396.427	0.628833	0.628372	0.0858102	2	0.0366195	11	0	64.1643	5.39208e-05	7322.81
2	1	0	1	0	1	399.223	0.61485	0.614433	0.0391393	2	0.0367873	11	0	66.961	2.40485e-05	15698.6
2	1	0	1	0	1	402.02	0.600866	0.600429	0.0157783	2	0.0368591	11	0	69.7577	9.47372e-06	38054.2
2	1	0	1	0	1	404.817	0.586884	0.58638	0.003224	2	0.0368828	11	0	72.5543	1.89049e-06	181880
2	1	0	1	0	1	407.613	0.5729	0.572462	-0.00329996	2	0.0368824	11	0	1.4982	-1.8891e-06	173476
2	1	0	1	0	1	410.41	0.558916	0.558497	-0.00591452	2	0.0368697	11	0	4.2949	-3.30324e-06	94428.1
2	0	0	0	0	1	413.207	0.544933	0.544515	-0.00711019	2	0.0368501	11	0	7.0916	-3.8716e-06	76582.4
2	0	0	1	0	1	416.003	0.530949	0.530471	-0.00802167	2	0.036827	11	0	9.8883	-4.25526e-06	66129.8
2	0	0	1	0	1	418.8	0.516966	0.516519	-0.00932181	2	0.0368016	11	0	12.685	-4.81489e-06	55409.7
2	0	0	1	0	1	421.597	0.502982	0.502537	-0.0102875	2	0.0367744	11	0	15.4817	-5.16982e-06	48849.5
2	1	0	1	0	1	424.393	0.489	0.488498	-0.0111951	2	0.0367455	11	0	18.2783	-5.4688e-06	43634.8
2	0	0	1	0	1	427.19	0.475016	0.474522	-0.0109345	2	0.0367154	11	0	21.075	-5.18864e-06	43396.9
2	0	0	1	0	1	429.987	0.461032	0.460596	-0.0111658	2	0.0366841	11	0	23.8717	-5.14294e-06	41250.5
2	1	0	1	0	0	432.553	0.451844	0.451371	0.0108976	3	0.0366622	11	0	0.3547	4.91887e-06	41419.3
2	1	0	1	0	0	435.35	0.465826	0.465363	0.0119821	3	0.0366966	11	0	3.1513	5.57603e-06	38838.1
2	1	0	1	0	0	438.146	0.47981	0.47935	0.0121171	3	0.0367321	11	0	5.948	5.80834e-06	39559.8
2	1	0	1	0	0	440.943	0.493793	0.493285	0.0127347	3	0.0367677	11	0	8.7447	6.28182e-06	38735.6
2	1	0	0	0	0	443.74	0.507777	0.507309	0.0130892	3	0.0368032	11	0	11.5414	6.64027e-06	38757.8
2	1	0	1	0	0	446.536	0.521761	0.521268	0.0130842	3	0.0368389	11	0	14.3381	6.82039e-06	39839.4
2	1	0	1	0	0	449.333	0.535744	0.535282	0.0125284	3	0.0368753	11	0	17.1348	6.70624e-06	42725.3
2	1	0	1	0	0	452.13	0.549728	0.549235	0.0134326	3	0.0369131	11	0	19.9315	7.37765e-06	40888.2
2	1	0	1	0	0	454.926	0.56371	0.563258	0.0158571	3	0.0369545	11	0	22.7281	8.93166e-06	35520.7
2	1	0	1	0	0	457.723	0.577694	0.577218	0.0200676	3	0.0370034	11	0	25.5248	1.15834e-05	28763.7
2	1	0	1	0	0	460.52	0.591677	0.591219	0.02705	3	0.0370677	11	0	28.3215	1.59925e-05	21856.6
2	1	0	0	0	0	463.317	0.605661	0.605263	0.0419547	3	0.0371627	11	0	31.1182	2.53936e-05	14426.6
2	1	0	1	0	0	466.113	0.619645	0.619178	0.0749813	3	0.0373209	11	0	33.9149	4.64267e-05	8257.76
2	1	0	1	0	0	468.91	0.633628	0.633182	0.138368	3	0.0376081	11	0	36.7116	8.7612e-05	4576.08
2	1	0	0	0	0	471.707	0.647611	0.647205	0.257508	3	0.038144	11	0	39.5082	0.000166661	2513.33
2	1	0	1	0	0	474.503	0.661594	0.661126	0.462315	3	0.039129	11	0	42.3049	0.000305649	1430.03
2	1	0	1	0	0	477.3	0.675578	0.675166	0.777498	3	0.0408377	11	0	45.1016	0.00052494	868.383
2	1	0	1	0	0	480.097	0.689561	0.689082	1.20892	3	0.0435942	11	0	47.8983	0.000833045	569.998
2	1	0	1	0	0	482.634	0.697752	0.697346	1.45707	3	0.0471919	11	0	50.4356	0.00101608	478.593
2	1	0	1	0	0	485.431	0.683768	0.683308	0.909507	3	0.0504261	11	0	53.2323	0.000621473	751.295
2	1	0	0	0	0	488.227	0.669785	0.669349	0.554438	3	0.0524451	11	0	56.029	0.000371113	1207.25
2	1	0	1	0	0	491.024	0.655801	0.655384	0.314829	3	0.0536371	11	0	58.8257	0.000206334	2081.72
2	1	0	1	0	0	493.821	0.641818	0.641376	0.165851	3	0.054289	11	0	61.6224	0.000106373	3867.17
2	1	0	1	0	0	496.617	0.627834	0.627379	0.0805435	3	0.0546202	11	0	64.4191	5.05313e-05	7789.32
2	1	0	1	0	0	499.414	0.613852	0.613425	0.035748	3	0.0547757	11	0	67.2157	2.19287e-05	17159.7
2	1	0	1	0	0	502.211	0.599868	0.599416	0.0131807	3	0.0548413	11	0	70.0124	7.90071e-06	45476.9
2	1	0	1	0	0	505.007	0.585884	0.585432	0.00235541	3	0.0548618	11	0	72.8091	1.37893e-06	248548
2	1	0	0	0	0	507.804	0.571901	0.571419	-0.00254499	3	0.0548601	11	0	1.5981	-1.45426e-06	224526
2	0	0	1	0	0	510.601	0.557917	0.557453	-0.00541122	3	0.0548469	11	0	4.3948	-3.0165e-06	103018
2	0	0	1	0	0	513.398	0.543934	0.543468	-0.00746655	3	0.0548272	11	0	7.1915	-4.05783e-06	72787
2	0	0	1	0	0	516.194	0.52995	0.529457	-0.00917588	3	0.0548038	11	0	9.9882	-4.85824e-06	57701
2	1	0	1	0	0	518.991	0.515968	0.515527	-0.00987205	3	0.0547781	11	0	12.7848	-5.08931e-06	52220.9
2	0	0	1	0	0	521.788	0.501984	0.50152	-0.00967862	3	0.0547507	11	0	15.5815	-4.85402e-06	51817.3
2	0	0	1	0	0	524.584	0.488	0.487521	-0.00979741	3	0.0547221	11	0	18.3782	-4.77645e-06	49760.2
2	0	0	0	0	0	527.381	0.474017	0.473543	-0.0111094	3	0.0546922	11	0	21.1749	-5.26076e-06	42625.5
2	1	0	1	0	0	530.178	0.460033	0.459556	-0.011685	3	0.0546606	11	0	23.9716	-5.3699e-06	39328.8
2	1	0	1	0	1	532.744	0.452842	0.452346	0.010929	4	0.0546434	11	0	0.5544	4.9437e-06	41389.4
2	1	0	1	0	1	535.54	0.466825	0.466378	0.0126377	4	0.0546778	11	0	3.3511	5.89395e-06	36903.7
2	0	0	0	0	1	538.337	0.480809	0.480346	0.0129147	4	0.0547136	11	0	6.1478	6.20351e-06	37193.8
2	1	0	1	0	1	541.134	0.494793	0.494331	0.011895	4	0.0547491	11	0	8.9445	5.88008e-06	41557.9
2	1	0	1	0	1	543.931	0.508776	0.5083	0.0126646	4	0.0547842	11	0	11.7412	6.43739e-06	40135.6
2	1	0	0	0	1	546.727	0.522759	0.522305	0.01307	4	0.0548199	11	0	14.5378	6.82653e-06	39962.1
2	1	0	1	0	1	549.524	0.536742	0.536287	0.012263	4	0.0548562	11	0	17.3345	6.57652e-06	43732
2	1	0	1	0	1	552.321	0.550726	0.550275	0.0142306	4	0.0548939	11	0	20.1312	7.83077e-06	38668.3
2	1	0	1	0	1	555.117	0.564709	0.564247	0.015964	4	0.0549355	11	0	22.9279	9.00765e-06	35344.9
2	1	0	0	0	1	557.914	0.578693	0.578214	0.0191972	4	0.0549847	11	0	25.7246	1.11001e-05	30119.7
2	1	0	1	0	1	560.711	0.592676	0.592208	0.0276512	4	0.0550496	11	0	28.5213	1.63753e-05	21417.1
2	1	0	1	0	1	563.507	0.60666	0.606207	0.0441139	4	0.0551469	11	0	31.318	2.67422e-05	13741.9
2	1	0	0	0	1	566.304	0.620643	0.620199	0.0756355	4	0.0553096	11	0	34.1146	4.69091e-05	8199.84
2	1	0	1	0	1	569.101	0.634626	0.634223	0.142191	4	0.0556056	11	0	36.9113	9.01807e-05	4460.36
2	1	0	1	0	1	571.897	0.64861	0.648171	0.265612	4	0.0561593	11	0	39.708	0.000172162	2440.3
2	1	0	1	0	1	574.694	0.662594	0.662149	0.474785	4	0.0571726	11	0	42.5047	0.000314379	1394.63
2	1	0	0	0	1	577.491	0.676577	0.676157	0.794958	4	0.0589223	11	0	45.3014	0.000537516	850.557
2	1	0	1	0	1	580.287	0.690561	0.690096	1.22498	4	0.0617272	11	0	48.0981	0.000845352	563.354
2	1	0	0	0	1	582.825	0.696753	0.696354	1.3832	4	0.0653066	11	0	50.6354	0.000963195	503.438
2	1	0	1	0	1	585.621	0.682769	0.682285	0.864278	4	0.0683833	11	0	53.4321	0.000589684	789.427
2	1	0	1	0	1	588.418	0.668786	0.668349	0.523179	4	0.0702979	11	0	56.2288	0.000349666	1277.48
2	1	0	1	0	1	591.215	0.654802	0.654336	0.292975	4	0.0714115	11	0	59.0255	0.000191704	2233.42
2	1	0	1	0	1	594.011	0.64082	0.640384	0.153318	4	0.072019	11	0	61.8221	9.81824e-05	4176.84
2	1	0	1	0	1	596.808	0.626836	0.626372	0.0751736	4	0.0723269	11	0	64.6188	4.70866e-05	8332.34
2	1	0	1	0	1	599.605	0.612852	0.612412	0.0337821	4	0.0724715	11	0	67.4155	2.06885e-05	18128.3
2	1	0	0	0	1	602.402	0.598869	0.598422	0.0119933	4	0.0725319	11	0	70.2122	7.17703e-06	49896.5
2	1	0	1	0	1	605.198	0.584885	0.584445	0.00157248	4	0.0725498	11	0	73.0089	9.19025e-07	371672
2	0	0	1	0	1	607.995	0.570902	0.570444	-0.00273638	4	0.0725469	11	0	1.7979	-1.56095e-06	208466
2	0	0	0	0	1	610.792	0.556919	0.556469	-0.00663319	4	0.0725332	11	0	4.5945	-3.69117e-06	83891.5
2	1	0	1	0	1	613.588	0.542935	0.542451	-0.00804601	4	0.072513	11	0	7.3912	-4.36456e-06	67418.6
2	0	0	1	0	1	616.385	0.528952	0.52846	-0.00807575	4	0.0724897	11	0	10.1879	-4.26771e-06	65437.8
2	0	0	1	0	1	619.182	0.514968	0.514514	-0.00927913	4	0.0724643	11	0	12.9846	-4.77425e-06	55448.6
2	1	0	0	0	1	621.978	0.500985	0.500517	-0.0105747	4	0.072437	11	0	15.7813	-5.29283e-06	47331.5
2	0	0	1	0	1	624.775	0.487001	0.48653	-0.0101944	4	0.0724082	11	0	18.578	-4.95987e-06	47725.4
2	0	0	1	0	1	627.572	0.473019	0.472492	-0.0102315	4	0.0723783	11	0	21.3746	-4.83428e-06	46180.3
2	0	0	0	0	1	630.368	0.459035	0.458564	-0.0113361	4	0.0723471	11	0	24.1713	-5.19832e-06	40451.8
2	1	0	0	0	0	632.935	0.453841	0.453379	0.0123692	5	0.0723342	11	0	0.6992	5.60794e-06	36653.9
2	1	0	1	0	0	635.731	0.467825	0.467356	0.013076	5	0.0723691	11	0	3.4959	6.11113e-06	35741.6
2	1	0	1	0	0	638.528	0.481807	0.481347	0.0124979	5	0.0724048	11	0	6.2925	6.01581e-06	38514.3
2	1	0	0	0	0	641.325	0.495791	0.495326	0.0119868	5	0.0724404	11	0	9.0892	5.93739e-06	41322.6
2	1	0	1	0	0	644.121	0.509774	0.509269	0.0124166	5	0.0724757	11	0	11.8859	6.32337e-06	41015.3
2	1	0	1	0	0	646.918	0.523758	0.523289	0.0131569	5	0.0725113	11	0	14.6826	6.88486e-06	39772.9
2	0	0	1	0	0	649.715	0.537742	0.537276	0.0135249	5	0.0725477	11	0	17.4793	7.26663e-06	39724.9
2	1	0	0	0	0	652.511	0.551725	0.551298	0.0133865	5	0.0725858	11	0	20.276	7.37994e-06	41183.1
2	1	0	1	0	0	655.308	0.565709	0.565236	0.0156372	5	0.0726273	11	0	23.0727	8.83869e-06	36146.9
2	1	0	1	0	0	658.105	0.579691	0.579206	0.0204652	5	0.0726772	11	0	25.8693	1.18536e-05	28301.9
2	1	0	0	0	0	660.901	0.593675	0.593201	0.0283333	5	0.0727436	11	0	28.666	1.68073e-05	20936.5
2	1	0	1	0	0	663.698	0.607658	0.607212	0.0441762	5	0.0728432	11	0	31.4627	2.68243e-05	13745.2
2	1	0	1	0	0	666.495	0.621642	0.621169	0.0790102	5	0.073011	11	0	34.2594	4.90787e-05	7861.88
2	1	0	1	0	0	669.291	0.635626	0.63519	0.147466	5	0.0733177	11	0	37.0561	9.3669e-05	4307.37
2	1	0	0	0	0	672.088	0.649609	0.649153	0.273214	5	0.0738899	11	0	39.8528	0.000177357	2375.99
2	1	0	1	0	0	674.885	0.663593	0.663164	0.488904	5	0.0749345	11	0	42.6495	0.000324223	1356.43
2	1	0	1	0	0	677.681	0.677575	0.677099	0.811344	5	0.0767296	11	0	45.4461	0.00054936	834.541
2	1	0	0	0	0	680.478	0.691559	0.691104	1.23728	5	0.0795769	11	0	48.2428	0.000855086	558.568
2	1	0	1	0	0	683.016	0.695754	0.695328	1.31234	5	0.0831153	11	0	50.7802	0.000912504	529.84
2	1	0	0	0	0	685.812	0.681771	0.681284	0.827769	5	0.0860564	11	0	53.5768	0.000563946	823.037
2	1	0	1	0	0	688.609	0.667787	0.6673	0.496102	5	0.0878723	11	0	56.3735	0.000331049	1345.09
2	1	0	1	0	0	691.406	0.653804	0.653346	0.279048	5	0.0889321	11	0	59.1702	0.000182315	2341.34
2	1	0	1	0	0	694.202	0.63982	0.639391	0.145385	5	0.0895088	11	0	61.9669	9.29581e-05	4397.91
2	1	0	0	0	0	696.999	0.625837	0.625436	0.0705043	5	0.0897996	11	0	64.7636	4.40959e-05	8870.89
2	1	0	1	0	0	699.796	0.611853	0.611387	0.0314999	5	0.0899347	11	0	67.5603	1.92586e-05	19409.2
2	1	0	1	0	0	702.592	0.59787	0.597394	0.0106265	5	0.0899902	11	0	70.357	6.34818e-06	56217.6
2	1	0	0	0	0	705.389	0.583887	0.5834	0.000894196	5	0.0900057	11	0	73.1536	5.21674e-07	652429
2	0	0	1	0	0	708.186	0.569903	0.569452	-0.00353	5	0.0900014	11	0	2.0975	-2.01016e-06	161318
2	0	0	1	0	0	710.982	0.55592	0.55548	-0.00547818	5	0.089987	11	0	4.8942	-3.04302e-06	101399
2	0	0	1	0	0	713.779	0.541936	0.5415	-0.00765925	5	0.089967	11	0	7.6909	-4.14748e-06	70698.8
2	0	0	0	0	0	716.576	0.527953	0.527473	-0.00919724	5	0.0899433	11	0	10.4876	-4.85129e-06	57351.2
2	1	0	1	0	0	719.372	0.513969	0.513499	-0.0099386	5	0.0899174	11	0	13.2843	-5.10346e-06	51667.1
2	0	0	1	0	0	722.169	0.499987	0.499558	-0.00952787	5	0.0898901	11	0	16.0809	-4.75972e-06	52431.2
2	0	0	0	0	0	724.966	0.486003	0.485573	-0.00989635	5	0.0898615	11	0	18.8776	-4.8054e-06	49065.8
2	0	0	1	0	0	727.762	0.472019	0.471552	-0.0108302	5	0.0898315	11	0	21.6743	-5.10701e-06	43540.5
2	1	0	1	0	0	730.559	0.458036	0.457558	-0.0120871	5	0.0898	11	0	24.471	-5.53054e-06	37855.1
2	1	0	1	0	1	733.125	0.454839	0.454376	0.0125256	6	0.089792	11	0	0.9539	5.69132e-06	36275.9
2	1	0	0	0	1	735.922	0.468823	0.468357	0.012259	6	0.0898269	11	0	3.7506	5.74161e-06	38205
2	1	0	1	0	1	738.719	0.482806	0.482363	0.0120599	6	0.0898623	11	0	6.5473	5.81724e-06	39997.4
2	1	0	1	0	1	741.515	0.49679	0.496346	0.0127139	6	0.0898977	11	0	9.344	6.31051e-06	39039.5
2	0	0	1	0	1	744.312	0.510773	0.510301	0.0131234	6	0.0899333	11	0	12.1407	6.69688e-06	38884.8
2	1	0	0	0	1	747.109	0.524757	0.524324	0.0119736	6	0.0899687	11	0	14.9374	6.27806e-06	43790
2	1	0	1	0	1	749.905	0.538741	0.538297	0.0125657	6	0.0900047	11	0	17.7341	6.76406e-06	42838.8
2	1	0	1	0	1	752.702	0.552723	0.552263	0.0144392	6	0.0900428	11	0	20.5307	7.97423e-06	38247.5
2	1	0	0	0	1	755.499	0.566707	0.566214	0.0162541	6	0.0900851	11	0	23.3274	9.2033e-06	34835.1
2	1	0	1	0	1	758.295	0.58069	0.580236	0.0196296	6	0.0901352	11	0	26.1241	1.13898e-05	29559.2
2	1	0	1	0	1	761.092	0.594674	0.594199	0.0293707	6	0.0902026	11	0	28.9208	1.7452e-05	20231.1
2	1	0	1	0	1	763.889	0.608658	0.6082	0.0460968	6	0.090305	11	0	31.7175	2.80361e-05	13194
2	1	0	0	0	1	766.686	0.622641	0.622219	0.081245	6	0.0904781	11	0	34.5142	5.05522e-05	7658.55
2	1	0	1	0	1	769.482	0.636625	0.63618	0.152939	6	0.0907952	11	0	37.3109	9.72969e-05	4159.7
2	1	0	1	0	1	772.279	0.650607	0.650177	0.283308	6	0.0913882	11	0	40.1075	0.000184201	2294.94
2	1	0	0	0	1	775.076	0.664591	0.664139	0.505266	6	0.0924697	11	0	42.9042	0.000335567	1314.44
2	1	0	1	0	1	777.872	0.678574	0.678161	0.832844	6	0.0943165	11	0	45.7009	0.000564802	814.271
2	1	0	1	0	1	780.669	0.692558	0.6921	1.26218	6	0.0972288	11	0	48.4976	0.000873551	548.339
2	1	0	1	0	1	783.206	0.694755	0.69427	1.25178	6	0.100742	11	0	51.0349	0.00086907	554.627
2	1	0	1	0	1	786.003	0.680772	0.680292	0.777823	6	0.103527	11	0	53.8316	0.000529147	874.611
2	1	0	1	0	1	788.8	0.666788	0.666344	0.460769	6	0.105227	11	0	56.6283	0.00030703	1446.16
2	1	0	0	0	1	791.596	0.652805	0.652325	0.258962	6	0.106214	11	0	59.425	0.000168927	2519
2	1	0	1	0	1	794.393	0.638821	0.63837	0.133188	6	0.106744	11	0	62.2217	8.50234e-05	4793
2	1	0	1	0	1	797.19	0.624839	0.624337	0.0641293	6	0.10701	11	0	65.0183	4.00383e-05	9735.6
2	1	0	0	0	1	799.986	0.610855	0.610368	0.0285192	6	0.107133	11	0	67.815	1.74072e-05	21402
2	1	0	1	0	1	802.783	0.596871	0.596399	0.00928601	6	0.107183	11	0	70.6117	5.53816e-06	64225.5
2	0	0	1	0	1	805.58	0.582888	0.582456	0.00139378	6	0.107196	11	0	73.4084	8.11817e-07	417896
2	1	0	1	0	1	808.376	0.568904	0.568402	-0.00452291	6	0.107191	11	0	2.4971	-2.57083e-06	125672
2	0	0	0	0	1	811.173	0.554921	0.554465	-0.00630658	6	0.107175	11	0	5.2938	-3.49678e-06	87918.4
2	0	0	1	0	1	813.97	0.540937	0.540477	-0.00778575	6	0.107155	11	0	8.0905	-4.20801e-06	69418.7
2	1	0	1	0	1	816.766	0.526955	0.526467	-0.00928214	6	0.107131	11	0	10.8871	-4.88674e-06	56718.3
2	0	0	0	0	1	819.563	0.512971	0.512536	-0.00899613	6	0.107105	11	0	13.6838	-4.61084e-06	56972.9
2	0	0	1	0	1	822.36	0.498988	0.498518	-0.00958721	6	0.107078	11	0	16.4805	-4.7794e-06	51998.3
2	1	0	1	0	1	825.157	0.485004	0.484525	-0.0112022	6	0.107049	11	0	19.2772	-5.42776e-06	43252.5
2	0	0	1	0	1	827.953	0.47102	0.470541	-0.010034	6	0.107019	11	0	22.0739	-4.72138e-06	46894.9
2	1	0	0	0	1	830.75	0.457037	0.456574	-0.0120838	6	0.106987	11	0	24.8706	-5.51713e-06	37784
2	1	0	1	0	0	833.316	0.455838	0.455361	0.0112389	7	0.106984	11	0	1.0987	5.11777e-06	40516.5
2	1	0	1	0	0	836.113	0.469822	0.46937	0.0128788	7	0.107019	11	0	3.8954	6.04494e-06	36445.1
2	1	0	1	0	0	838.909	0.483806	0.483326	0.0125334	7	0.107054	11	0	6.6921	6.0577e-06	38563.2
2	1	0	0	0	0	841.706	0.497789	0.497287	0.012195	7	0.10709	11	0	9.4888	6.06443e-06	40777.8
2	1	0	1	0	0	844.503	0.511772	0.511305	0.0130993	7	0.107125	11	0	12.2854	6.69775e-06	39032.9
2	1	0	1	0	0	847.299	0.525755	0.525331	0.0119905	7	0.10716	11	0	15.0821	6.29898e-06	43812.2
2	1	0	0	0	0	850.096	0.539739	0.539261	0.0131691	7	0.107196	11	0	17.8788	7.10156e-06	40949.1
2	1	0	1	0	0	852.893	0.553722	0.553291	0.0145788	7	0.107234	11	0	20.6755	8.06632e-06	37951.8
2	1	0	1	0	0	855.69	0.567706	0.567246	0.015366	7	0.107277	11	0	23.4722	8.71632e-06	36915.6
2	1	0	1	0	0	858.486	0.58169	0.581246	0.0212596	7	0.107328	11	0	26.2689	1.23571e-05	27340.4
2	1	0	0	0	0	861.283	0.595673	0.595195	0.0286172	7	0.107396	11	0	29.0656	1.70328e-05	20798.5
2	1	0	1	0	0	864.08	0.609656	0.60919	0.0479547	7	0.107501	11	0	31.8622	2.92135e-05	12703.4
2	1	0	1	0	0	866.876	0.623639	0.623192	0.0837864	7	0.107679	11	0	34.6589	5.2215e-05	7437.86
2	1	0	0	0	0	869.673	0.637623	0.63719	0.157148	7	0.108006	11	0	37.4556	0.000100133	4054.7
2	1	0	1	0	0	872.47	0.651606	0.651152	0.291979	7	0.108617	11	0	40.2523	0.000190123	2230.13
2	1	0	1	0	0	875.266	0.66559	0.665125	0.515308	7	0.109724	11	0	43.049	0.000342744	1290.73
2	1	0	1	0	0	878.063	0.679574	0.679127	0.844905	7	0.111605	11	0	45.8457	0.000573797	803.791
2	1	0	0	0	0	880.86	0.693557	0.693105	1.26565	7	0.114541	11	0	48.6424	0.000877226	547.629
2	1	0	1	0	0	883.397	0.693756	0.693285	1.18133	7	0.117957	11	0	51.1797	0.000818999	586.867
2	1	0	0	0	0	886.194	0.679773	0.679323	0.736121	7	0.120595	11	0	53.9764	0.000500063	922.841
2	1	0	1	0	0	888.99	0.665789	0.665339	0.439498	7	0.122212	11	0	56.7731	0.000292415	1513.86
2	1	0	1	0	0	891.787	0.651807	0.651356	0.243734	7	0.123145	11	0	59.5697	0.000158758	2672.4
2	1	0	0	0	0	894.584	0.637823	0.637404	0.12466	7	0.123644	11	0	62.3664	7.94587e-05	5113.15
2	1	0	1	0	0	897.38	0.623839	0.623387	0.0601333	7	0.123892	11	0	65.1631	3.74864e-05	10366.7
2	1	0	1	0	0	900.177	0.609856	0.609372	0.0250292	7	0.124006	11	0	67.9598	1.52521e-05	24346.5
2	1	0	1	0	0	902.974	0.595872	0.595383	0.00942922	7	0.124051	11	0	70.7565	5.614e-06	63142.3
2	1	0	0	0	0	905.771	0.581889	0.581419	-0.000364863	7	0.124062	11	0	73.5532	-2.12138e-07	1.59353e+06
2	1	0	1	0	0	908.567	0.567906	0.567474	-0.00391935	7	0.124055	11	0	2.5969	-2.22413e-06	144788
2	0	0	1	0	0	911.364	0.553923	0.553407	-0.00693732	7	0.124039	11	0	5.3936	-3.83916e-06	79772.5
2	0	0	0	0	0	914.161	0.539939	0.539486	-0.00796795	7	0.124018	11	0	8.1903	-4.2986e-06	67707
2	0	0	1	0	0	916.957	0.525955	0.525488	-0.0084561	7	0.123994	11	0	10.987	-4.44358e-06	62143.1
2	1	0	1	0	0	919.754	0.511972	0.511449	-0.0101141	7	0.123968	11	0	13.7837	-5.17284e-06	50568
2	0	0	1	0	0	922.551	0.497988	0.497469	-0.00936168	7	0.12394	11	0	16.5804	-4.65715e-06	53138.9
2	0	0	0	0	0	925.347	0.484005	0.483563	-0.0109813	7	0.123911	11	0	19.3771	-5.31017e-06	44035
2	0	0	1	0	0	928.144	0.470022	0.46958	-0.0106823	7	0.123881	11	0	22.1737	-5.01617e-06	43958.9
2	0	0	1	0	0	930.941	0.456039	0.455607	-0.0114808	7	0.123849	11	0	24.9704	-5.23075e-06	39684.2
2	1	0	1	0	1	933.507	0.456838	0.456357	0.0126968	8	0.12385	11	0	1.3535	5.79427e-06	35942.6
2	1	0	0	0	1	936.304	0.470821	0.470356	0.0119948	8	0.123885	11	0	4.1502	5.64183e-06	39213.3
2	1	0	1	0	1	939.1	0.484804	0.484316	0.0128248	8	0.12392	11	0	6.9468	6.21124e-06	37764.1
2	1	0	1	0	1	941.897	0.498787	0.498318	0.0124586	8	0.123956	11	0	9.7435	6.20833e-06	39998
2	1	0	0	0	1	944.694	0.512771	0.51227	0.0123397	8	0.123991	11	0	12.5402	6.32125e-06	41514
2	1	0	1	0	1	947.49	0.526755	0.526308	0.012848	8	0.124026	11	0	15.3369	6.762e-06	40964.3
2	1	0	1	0	1	950.287	0.540738	0.540323	0.0127455	8	0.124062	11	0	18.1336	6.88669e-06	42393.2
2	1	0	1	0	1	953.084	0.554722	0.554241	0.0145501	8	0.1241	11	0	20.9303	8.06429e-06	38091.8
2	1	0	1	0	1	955.88	0.568704	0.56824	0.0156114	8	0.124143	11	0	23.7269	8.87103e-06	36399
2	1	0	1	0	1	958.677	0.582688	0.582214	0.0215123	8	0.124194	11	0	26.5236	1.25248e-05	27064.2
2	1	0	1	0	1	961.474	0.596671	0.596196	0.0292245	8	0.124264	11	0	29.3203	1.74235e-05	20400.6
2	1	0	0	0	1	964.27	0.610655	0.610219	0.0492277	8	0.124371	11	0	32.117	3.00397e-05	12395.8
2	1	0	1	0	1	967.067	0.624638	0.624179	0.0869382	8	0.124555	11	0	34.9137	5.4265e-05	7179.57
2	1	0	1	0	1	969.864	0.638622	0.63814	0.162529	8	0.124894	11	0	37.7104	0.000103716	3926.31
2	1	0	1	0	1	972.66	0.652606	0.652164	0.301345	8	0.125525	11	0	40.5071	0.000196526	2164.18
2	1	0	1	0	1	975.457	0.666588	0.66611	0.530076	8	0.126665	11	0	43.3037	0.000353089	1256.63
2	1	0	1	0	1	978.254	0.680572	0.680142	0.863537	8	0.128593	11	0	46.1004	0.000587328	787.623
2	1	0	1	0	1	981.05	0.694555	0.694072	1.29062	8	0.131584	11	0	48.8971	0.000895783	537.782
2	1	0	1	0	1	983.588	0.692758	0.6923	1.13932	8	0.134963	11	0	51.4344	0.000788748	607.646
2	1	0	1	0	1	986.384	0.678774	0.678353	0.715391	8	0.137512	11	0	54.2311	0.000485287	948.227
2	1	0	0	0	1	989.181	0.664791	0.664348	0.414399	8	0.139062	11	0	57.0278	0.000275305	1603.16
2	1	0	1	0	1	991.978	0.650807	0.650333	0.229388	8	0.139943	11	0	59.8245	0.000149179	2835.08
2	1	0	1	0	1	994.775	0.636824	0.636381	0.116367	8	0.140411	11	0	62.6212	7.40534e-05	5468.76
2	1	0	1	0	1	997.571	0.62284	0.622358	0.0565356	8	0.140643	11	0	65.4179	3.51854e-05	11008.2
2	1	0	0	0	1	1000.37	0.608857	0.608372	0.023453	8	0.140749	11	0	68.2146	1.42681e-05	25940
2	1	0	1	0	1	1003.16	0.594874	0.594411	0.0084128	8	0.14079	11	0	71.0112	5.00067e-06	70655.6
2	1	0	1	0	1	1005.96	0.58089	0.580415	-0.000846319	8	0.140799	11	0	0.000000000000000E+000	-4.91216e-07	685811
2	0	0	0	0	1	1008.76	0.566907	0.566433	-0.00379032	8	0.140791	11	0	2.7967	-2.14696e-06	149442
2	0	0	1	0	1	1011.55	0.552923	0.552432	-0.00708178	8	0.140775	11	0	5.5934	-3.9122e-06	78007.5
2	1	0	1	0	1	1014.35	0.53894	0.538516	-0.00827215	8	0.140754	11	0	8.3901	-4.45468e-06	65099.9
2	0	0	1	0	1	1017.15	0.524956	0.524496	-0.00832699	8	0.14073	11	0	11.1868	-4.36747e-06	62987.4
2	0	0	1	0	1	1019.94	0.510974	0.510517	-0.00952931	8	0.140704	11	0	13.9834	-4.86488e-06	53573.4
2	1	0	1	0	1	1022.74	0.49699	0.496516	-0.0105382	8	0.140676	11	0	16.7801	-5.2324e-06	47115.8
2	0	0	1	0	1	1025.54	0.483006	0.482532	-0.00964914	8	0.140647	11	0	19.5768	-4.65602e-06	50007.8
2	0	0	0	0	1	1028.33	0.469023	0.468561	-0.0113667	8	0.140617	11	0	22.3735	-5.326e-06	41222.3
2	1	0	1	0	1	1031.13	0.455039	0.454533	-0.0116121	8	0.140585	11	0	25.1702	-5.27807e-06	39143.2
2	1	0	1	0	0	1033.7	0.457836	0.457396	0.0115544	9	0.140591	11	0	1.4982	5.28493e-06	39586.3
2	1	0	1	0	0	1036.49	0.471819	0.47139	0.0132271	9	0.140626	11	0	4.2949	6.23513e-06	35638.1
2	1	0	0	0	0	1039.29	0.485803	0.485366	0.0118741	9	0.140662	11	0	7.0916	5.76326e-06	40876.2
2	1	0	1	0	0	1042.09	0.499787	0.499355	0.0128793	9	0.140697	11	0	9.8883	6.43135e-06	38771.8
2	1	0	1	0	0	1044.88	0.51377	0.513283	0.0120579	9	0.140732	11	0	12.685	6.1891e-06	42568.3
2	1	0	1	0	0	1047.68	0.527754	0.527316	0.0131612	9	0.140767	11	0	15.4817	6.94011e-06	40066
2	1	0	1	0	0	1050.48	0.541736	0.541293	0.0125168	9	0.140803	11	0	18.2783	6.77527e-06	43245.2
2	1	0	1	0	0	1053.27	0.55572	0.555245	0.015083	9	0.140841	11	0	21.075	8.37477e-06	36812.5
2	1	0	1	0	0	1056.07	0.569703	0.56922	0.0171573	9	0.140884	11	0	23.8717	9.76629e-06	33176.5
2	1	0	0	0	0	1058.87	0.583687	0.58323	0.0204394	9	0.140937	11	0	26.6684	1.19209e-05	28534.6
2	1	0	1	0	0	1061.66	0.597671	0.597174	0.0312973	9	0.141008	11	0	29.4651	1.86899e-05	19080.7
2	1	0	1	0	0	1064.46	0.611654	0.611189	0.0498836	9	0.141118	11	0	32.2618	3.04883e-05	12252.3
2	1	0	1	0	0	1067.26	0.625638	0.625249	0.0907822	9	0.141309	11	0	35.0585	5.67615e-05	6887.36
2	1	0	1	0	0	1070.05	0.63962	0.6392	0.168025	9	0.14166	11	0	37.8551	0.000107401	3804.2
2	1	0	1	0	0	1072.85	0.653604	0.653117	0.310788	9	0.142312	11	0	40.6518	0.000202981	2101.49
2	1	0	1	0	0	1075.65	0.667587	0.667119	0.542242	9	0.143483	11	0	43.4485	0.00036174	1230.3
2	1	0	0	0	0	1078.44	0.681571	0.681133	0.87522	9	0.145445	11	0	46.2452	0.000596141	778.242
2	1	0	1	0	0	1081.24	0.695555	0.695066	1.29767	9	0.148465	11	0	49.0419	0.00090197	535.625
2	1	0	0	0	0	1083.78	0.691759	0.691317	1.08754	9	0.151747	11	0	51.5792	0.000751836	635.669
2	1	0	1	0	0	1086.58	0.677775	0.677285	0.668073	9	0.154167	11	0	54.3759	0.000452476	1013.79
2	1	0	1	0	0	1089.37	0.663792	0.663267	0.396971	9	0.155632	11	0	57.1726	0.000263298	1670.82
2	1	0	1	0	0	1092.17	0.649808	0.649374	0.217241	9	0.15647	11	0	59.9693	0.00014107	2989.19
2	1	0	1	0	0	1094.97	0.635826	0.635358	0.109255	9	0.156912	11	0	62.7659	6.94161e-05	5815.37
2	1	0	1	0	0	1097.76	0.621842	0.621382	0.052125	9	0.157129	11	0	65.5626	3.23895e-05	11921
2	1	0	1	0	0	1100.56	0.607859	0.607394	0.0222166	9	0.157227	11	0	68.3593	1.34943e-05	27339.6
2	1	0	0	0	0	1103.36	0.593875	0.593401	0.00618532	9	0.157264	11	0	71.156	3.67038e-06	95937.1
2	0	0	1	0	0	1106.15	0.579891	0.579449	-0.000266369	9	0.157271	11	0	0.2997	-1.54347e-07	2.17536e+06
2	1	0	1	0	0	1108.95	0.565908	0.565436	-0.0051408	9	0.157263	11	0	3.0964	-2.90679e-06	109990
2	0	0	1	0	0	1111.75	0.551924	0.551461	-0.00644589	9	0.157246	11	0	5.8931	-3.55466e-06	85552.4
2	1	0	1	0	0	1114.54	0.537942	0.537476	-0.00871669	9	0.157224	11	0	8.6897	-4.68501e-06	61660.6
2	0	0	1	0	0	1117.34	0.523958	0.523522	-0.00830011	9	0.1572	11	0	11.4864	-4.34529e-06	63074.1
2	0	0	1	0	0	1120.14	0.509974	0.509545	-0.00969834	9	0.157175	11	0	14.2831	-4.94174e-06	52539.4
2	0	0	0	0	0	1122.93	0.495991	0.495503	-0.0100314	9	0.157147	11	0	17.0798	-4.97058e-06	49395.3
2	0	0	1	0	0	1125.73	0.482007	0.481553	-0.010497	9	0.157118	11	0	19.8765	-5.05487e-06	45875.1
2	0	0	1	0	0	1128.53	0.468024	0.467507	-0.011147	9	0.157087	11	0	22.6732	-5.21129e-06	41940.2
2	0	0	1	0	0	1131.32	0.45404	0.453583	-0.0111707	9	0.157056	11	0	25.4699	-5.06685e-06	40604.5
2	1	0	0	0	1	1133.89	0.458835	0.458357	0.0124969	10	0.157066	11	0	1.753	5.72803e-06	36677.8
2	1	0	1	0	1	1136.69	0.472818	0.472338	0.0120233	10	0.157102	11	0	4.5497	5.67905e-06	39285.2
2	1	0	1	0	1	1139.48	0.486802	0.486327	0.0130662	10	0.157137	11	0	7.3464	6.35444e-06	37220.3
2	1	0	1	0	1	1142.28	0.500786	0.500293	0.0117136	10	0.157172	11	0	10.1431	5.86021e-06	42710.5
2	1	0	1	0	1	1145.08	0.514768	0.514275	0.0127385	10	0.157207	11	0	12.9397	6.55109e-06	40371.6
2	1	0	1	0	1	1147.87	0.528752	0.528282	0.0127187	10	0.157242	11	0	15.7364	6.71907e-06	41535.7
2	1	0	1	0	1	1150.67	0.542735	0.542287	0.012725	10	0.157278	11	0	18.5331	6.90059e-06	42616
2	1	0	0	0	1	1153.47	0.556719	0.556265	0.0146445	10	0.157316	11	0	21.3298	8.14621e-06	37984.6
2	1	0	1	0	1	1156.26	0.570703	0.570219	0.0160997	10	0.157359	11	0	24.1265	9.18036e-06	35418
2	1	0	1	0	1	1159.06	0.584686	0.584248	0.0218745	10	0.157412	11	0	26.9232	1.27801e-05	26709.1
2	1	0	1	0	1	1161.86	0.59867	0.598202	0.0314682	10	0.157485	11	0	29.7199	1.88244e-05	19009.7
2	1	0	1	0	1	1164.65	0.612652	0.612189	0.0513486	10	0.157598	11	0	32.5165	3.14351e-05	11922.2
2	1	0	1	0	1	1167.45	0.626636	0.626189	0.094023	10	0.157795	11	0	35.3132	5.88762e-05	6659.96
2	1	0	1	0	1	1170.25	0.640619	0.640191	0.173777	10	0.158158	11	0	38.1099	0.00011125	3683.99
2	1	0	0	0	1	1173.04	0.654603	0.654161	0.320433	10	0.158831	11	0	40.9066	0.000209615	2041.49
2	1	0	1	0	1	1175.84	0.668587	0.668122	0.557629	10	0.160037	11	0	43.7033	0.000372564	1198.15
2	1	0	1	0	1	1178.64	0.68257	0.682086	0.894367	10	0.162047	11	0	46.5	0.000610035	762.646
2	1	0	1	0	1	1181.43	0.696554	0.696094	1.32277	10	0.165134	11	0	49.2967	0.000920773	526.239
2	1	0	1	0	1	1183.97	0.69076	0.690281	1.03151	10	0.168333	11	0	51.834	0.000712029	669.197
2	1	0	1	0	1	1186.77	0.676776	0.676313	0.62653	10	0.170609	11	0	54.6307	0.00042373	1079.46
2	1	0	1	0	1	1189.56	0.662794	0.662373	0.371753	10	0.171979	11	0	57.4273	0.000246239	1781.75
2	1	0	1	0	1	1192.36	0.64881	0.648374	0.203585	10	0.172763	11	0	60.224	0.000131999	3184.79
2	1	0	1	0	1	1195.16	0.634826	0.634365	0.102518	10	0.173176	11	0	63.0207	6.50336e-05	6187.86
2	1	0	0	0	1	1197.95	0.620843	0.620394	0.0474571	10	0.173378	11	0	65.8174	2.94421e-05	13072.7
2	1	0	1	0	1	1200.75	0.606859	0.606403	0.0203563	10	0.173467	11	0	68.6141	1.23441e-05	29789.5
2	1	0	1	0	1	1203.55	0.592876	0.592387	0.00529842	10	0.173501	11	0	71.4108	3.13871e-06	111805
2	0	0	1	0	1	1206.34	0.578892	0.578443	-0.00111162	10	0.173506	11	0	0.5993	-6.4301e-07	520359
2	0	0	1	0	1	1209.14	0.56491	0.564445	-0.00443973	10	0.173496	11	0	3.3959	-2.50599e-06	127135
2	1	0	1	0	1	1211.94	0.550926	0.550459	-0.00730195	10	0.173479	11	0	6.1926	-4.01943e-06	75385.3
2	0	0	1	0	1	1214.73	0.536942	0.536471	-0.00785799	10	0.173457	11	0	8.9893	-4.21559e-06	68270.7
2	0	0	0	0	1	1217.53	0.522959	0.522533	-0.00894536	10	0.173433	11	0	11.786	-4.67425e-06	58413.9
2	0	0	1	0	1	1220.33	0.508975	0.50852	-0.00979095	10	0.173407	11	0	14.5827	-4.97889e-06	51937.7
2	0	0	1	0	1	1223.12	0.494992	0.494509	-0.00951931	10	0.17338	11	0	17.3794	-4.70739e-06	51948
2	0	0	0	0	1	1225.92	0.481009	0.480549	-0.0110398	10	0.17335	11	0	20.176	-5.30515e-06	43528.9
2	0	0	1	0	1	1228.72	0.467025	0.466554	-0.0101757	10	0.17332	11	0	22.9727	-4.74753e-06	45849.8
2	0	0	1	0	1	1231.51	0.453042	0.452536	-0.0125475	10	0.173288	11	0	25.7694	-5.67819e-06	36065.8
2	1	0	1	0	0	1234.08	0.459834	0.459362	0.0112305	11	0.173304	11	0	1.8978	5.15886e-06	40903.1
2	1	0	1	0	0	1236.88	0.473818	0.473317	0.01215	11	0.173339	11	0	4.6945	5.75081e-06	38956.1
2	1	0	1	0	0	1239.67	0.4878	0.487356	0.0116763	11	0.173374	11	0	7.4911	5.69051e-06	41739
2	1	0	1	0	0	1242.47	0.501784	0.501317	0.0128251	11	0.173409	11	0	10.2878	6.42946e-06	39088.7
2	1	0	1	0	0	1245.27	0.515768	0.51531	0.0127735	11	0.173444	11	0	13.0845	6.58233e-06	40342.1
2	1	0	0	0	0	1248.06	0.529751	0.529266	0.0120067	11	0.173479	11	0	15.8812	6.35472e-06	44081.1
2	1	0	1	0	0	1250.86	0.543735	0.543292	0.0129972	11	0.173516	11	0	18.6779	7.0613e-06	41800.6
2	1	0	1	0	0	1253.66	0.557717	0.557265	0.0148651	11	0.173554	11	0	21.4745	8.28382e-06	37488.1
2	1	0	1	0	0	1256.45	0.571702	0.571245	0.0164186	11	0.173597	11	0	24.2713	9.37906e-06	34792.5
2	1	0	1	0	0	1259.25	0.585684	0.585236	0.021315	11	0.173651	11	0	27.0679	1.24743e-05	27456.6
2	1	0	1	0	0	1262.05	0.599668	0.599234	0.0325523	11	0.173725	11	0	29.8646	1.95065e-05	18408.3
2	1	0	1	0	0	1264.84	0.613651	0.613222	0.0536451	11	0.173842	11	0	32.6613	3.28964e-05	11431.1
2	1	0	0	0	0	1267.64	0.627635	0.627131	0.0957082	11	0.174045	11	0	35.458	6.00216e-05	6552.53
2	1	0	1	0	0	1270.44	0.641619	0.641191	0.180314	11	0.174419	11	0	38.2547	0.000115616	3555.96
2	1	0	1	0	0	1273.23	0.655601	0.655131	0.329416	11	0.175114	11	0	41.0513	0.000215811	1988.77
2	1	0	0	0	0	1276.03	0.669585	0.669148	0.568876	11	0.176349	11	0	43.848	0.000380662	1176.26
2	1	0	1	0	0	1278.83	0.683568	0.683123	0.904713	11	0.178391	11	0	46.6447	0.00061803	755.071
2	1	0	1	0	0	1281.62	0.697552	0.697138	1.32011	11	0.181488	11	0	49.4414	0.000920299	528.091
2	1	0	1	0	0	1284.16	0.689761	0.689317	0.974602	11	0.184543	11	0	51.9787	0.00067181	707.28
2	1	0	1	0	0	1286.96	0.675778	0.675292	0.592814	11	0.186695	11	0	54.7754	0.000400323	1139.13
2	1	0	1	0	0	1289.75	0.661794	0.66136	0.343535	11	0.187977	11	0	57.5721	0.0002272	1925.16
2	1	0	0	0	0	1292.55	0.647811	0.647393	0.185687	11	0.188698	11	0	60.3688	0.000120212	3486.48
2	1	0	1	0	0	1295.35	0.633827	0.633372	0.0952222	11	0.189078	11	0	63.1655	6.03111e-05	6651.52
2	1	0	1	0	0	1298.14	0.619844	0.619394	0.0442076	11	0.189265	11	0	65.9622	2.73819e-05	14011
2	1	0	0	0	0	1300.94	0.605861	0.605391	0.0183665	11	0.189348	11	0	68.7588	1.11189e-05	32961.7
2	1	0	1	0	0	1303.74	0.591877	0.591427	0.00552273	11	0.189379	11	0	71.5555	3.26629e-06	107090
2	0	0	1	0	0	1306.53	0.577894	0.577377	-0.000952353	11	0.189382	11	0	0.799	-5.49867e-07	606263
2	0	0	1	0	0	1309.33	0.56391	0.563429	-0.00471248	11	0.189372	11	0	3.5957	-2.65514e-06	119561
2	0	0	0	0	0	1312.13	0.549927	0.549491	-0.00746972	11	0.189354	11	0	6.3924	-4.10454e-06	73562.5
2	0	0	1	0	0	1314.92	0.535943	0.535446	-0.00899066	11	0.189332	11	0	9.1891	-4.81401e-06	59555.8
2	0	0	1	0	0	1317.72	0.52196	0.521492	-0.00966648	11	0.189307	11	0	11.9858	-5.04099e-06	53948.5
2	0	0	0	0	0	1320.52	0.507977	0.507524	-0.00882794	11	0.189281	11	0	14.7824	-4.48039e-06	57490.6
2	0	0	1	0	0	1323.31	0.493994	0.493518	-0.0104681	11	0.189254	11	0	17.5791	-5.16619e-06	47145.1
2	0	0	1	0	0	1326.11	0.48001	0.479537	-0.0102639	11	0.189224	11	0	20.3758	-4.92192e-06	46720.7
2	0	0	1	0	0	1328.91	0.466026	0.46558	-0.0108611	11	0.189194	11	0	23.1725	-5.05673e-06	42866.6
2	0	0	0	0	0	1331.7	0.452043	0.45157	-0.0122281	11	0.189162	11	0	25.9692	-5.52183e-06	36929
2	1	0	1	0	1	1334.27	0.460832	0.46041	0.0119093	12	0.189182	11	0	2.0975	5.48315e-06	38659.8
2	1	0	1	0	1	1337.07	0.474816	0.474319	0.0126016	12	0.189217	11	0	4.8942	5.97717e-06	37639.7
2	1	0	1	0	1	1339.86	0.488799	0.488308	0.0124922	12	0.189252	11	0	7.6909	6.10003e-06	39089.1
2	1	0	0	0	1	1342.66	0.502783	0.502314	0.0121265	12	0.189287	11	0	10.4876	6.09132e-06	41422.7
2	1	0	1	0	1	1345.46	0.516767	0.51629	0.0127785	12	0.189322	11	0	13.2843	6.59741e-06	40403
2	1	0	1	0	1	1348.25	0.530749	0.530276	0.0120218	12	0.189357	11	0	16.0809	6.37485e-06	44109.6
2	1	0	0	0	1	1351.05	0.544733	0.544271	0.0136069	12	0.189393	11	0	18.8776	7.40587e-06	39999.5
2	1	0	1	0	1	1353.85	0.558716	0.558284	0.013809	12	0.189432	11	0	21.6743	7.70932e-06	40429.1
2	1	0	1	0	1	1356.64	0.5727	0.572214	0.0173677	12	0.189476	11	0	24.471	9.93807e-06	32947
2	1	0	1	0	1	1359.44	0.586684	0.586232	0.0216687	12	0.18953	11	0	27.2677	1.27029e-05	27054.3
2	1	0	0	0	1	1362.24	0.600667	0.600193	0.0332621	12	0.189606	11	0	30.0644	1.99637e-05	18044.3
2	1	0	1	0	1	1365.03	0.614651	0.614211	0.0547351	12	0.189726	11	0	32.8611	3.36189e-05	11221.5
2	1	0	1	0	1	1367.83	0.628633	0.628204	0.0996568	12	0.189935	11	0	35.6577	6.26048e-05	6303.67
2	1	0	0	0	1	1370.63	0.642617	0.64217	0.186468	12	0.190322	11	0	38.4544	0.000119744	3443.87
2	1	0	1	0	1	1373.42	0.6566	0.656172	0.339118	12	0.191038	11	0	41.2511	0.000222519	1934.94
2	1	0	1	0	1	1376.22	0.670584	0.670112	0.581312	12	0.192305	11	0	44.0478	0.000389544	1152.76
2	1	0	1	0	1	1379.02	0.684568	0.6841	0.916162	12	0.19438	11	0	46.8445	0.000626747	746.703
2	1	0	0	0	1	1381.81	0.698551	0.698067	1.32755	12	0.197506	11	0	49.6412	0.000926715	525.833
2	1	0	1	0	1	1384.35	0.688762	0.688318	0.921967	12	0.200427	11	0	52.1785	0.000634607	746.576
2	1	0	0	0	1	1387.15	0.674779	0.674322	0.574319	12	0.202483	11	0	54.9752	0.000387276	1174.13
2	1	0	1	0	1	1389.94	0.660795	0.660406	0.343493	12	0.203755	11	0	57.7719	0.000226845	1922.62
2	1	0	1	0	1	1392.74	0.646813	0.646312	0.183576	12	0.20447	11	0	60.5685	0.000118647	3520.69
2	1	0	0	0	1	1395.54	0.632829	0.632369	0.0913685	12	0.204841	11	0	63.3652	5.77786e-05	6921.09
2	1	0	1	0	1	1398.33	0.618846	0.618412	0.0417821	12	0.205021	11	0	66.1619	2.58385e-05	14800.9
2	1	0	1	0	1	1401.13	0.604862	0.604373	0.0161843	12	0.205099	11	0	68.9586	9.78134e-06	37343.2
2	1	0	1	0	1	1403.93	0.590878	0.590393	0.00381906	12	0.205127	11	0	71.7553	2.25474e-06	154591
2	1	0	0	0	1	1406.72	0.576895	0.576472	-0.00268981	12	0.205129	11	0	0.9988	-1.5506e-06	214317
2	1	0	1	0	1	1409.52	0.562911	0.56245	-0.00604722	12	0.205118	11	0	3.7955	-3.40126e-06	93009.6
2	0	0	1	0	1	1412.32	0.548929	0.548465	-0.00800828	12	0.2051	11	0	6.5921	-4.39226e-06	68487.2
2	0	0	0	0	1	1415.11	0.534945	0.534511	-0.00865507	12	0.205078	11	0	9.3888	-4.62623e-06	61757
2	0	0	1	0	1	1417.91	0.520961	0.52054	-0.00968893	12	0.205053	11	0	12.1855	-5.04347e-06	53725.2
2	0	0	1	0	1	1420.71	0.506978	0.506478	-0.00975941	12	0.205026	11	0	14.9822	-4.94293e-06	51896.3
2	0	0	1	0	1	1423.5	0.492994	0.492537	-0.0109137	12	0.204999	11	0	17.7789	-5.37538e-06	45130.3
2	0	0	0	0	1	1426.3	0.479011	0.478559	-0.0110554	12	0.20497	11	0	20.5756	-5.29068e-06	43287.2
2	0	0	1	0	1	1429.1	0.465027	0.464555	-0.0119637	12	0.204939	11	0	23.3723	-5.55778e-06	38830.5
2	0	0	1	0	1	1431.89	0.451045	0.4506	-0.0119432	12	0.204907	11	0	26.1689	-5.3816e-06	37728.6
2	1	0	1	0	0	1434.46	0.461832	0.461385	0.0115914	13	0.204932	11	0	2.2973	5.34812e-06	39804
2	1	0	0	0	0	1437.26	0.475815	0.475384	0.0116731	13	0.204967	11	0	5.094	5.54921e-06	40724.8
2	1	0	1	0	0	1440.05	0.489799	0.489344	0.0116875	13	0.205002	11	0	7.8907	5.71919e-06	41869.1
2	1	0	1	0	0	1442.85	0.503781	0.503324	0.0114786	13	0.205037	11	0	10.6873	5.77745e-06	43849
2	1	0	0	0	0	1445.65	0.517765	0.517276	0.0117892	13	0.205072	11	0	13.484	6.09828e-06	43877.1
2	1	0	1	0	0	1448.44	0.531748	0.531299	0.0122333	13	0.205107	11	0	16.2807	6.49955e-06	43430.6
2	1	0	1	0	0	1451.24	0.545732	0.545299	0.0135454	13	0.205143	11	0	19.0774	7.38631e-06	40257
2	1	0	1	0	0	1454.04	0.559716	0.559252	0.0151314	13	0.205182	11	0	21.8741	8.46225e-06	36959.8
2	1	0	0	0	0	1456.83	0.573699	0.573268	0.0175919	13	0.205226	11	0	24.6708	1.00849e-05	32587.1
2	1	0	1	0	0	1459.63	0.587683	0.587182	0.022659	13	0.205281	11	0	27.4675	1.33049e-05	25913.9
2	1	0	1	0	0	1462.43	0.601665	0.60121	0.0335083	13	0.205359	11	0	30.2641	2.01455e-05	17942.1
2	1	0	0	0	0	1465.22	0.615649	0.61526	0.0563997	13	0.205483	11	0	33.0608	3.47005e-05	10908.9
2	1	0	1	0	0	1468.02	0.629632	0.629151	0.103844	13	0.205702	11	0	35.8575	6.53338e-05	6058.6
2	1	0	1	0	0	1470.82	0.643616	0.643169	0.195481	13	0.206108	11	0	38.6542	0.000125727	3290.18
2	1	0	1	0	0	1473.61	0.657599	0.657188	0.35793	13	0.206863	11	0	41.4509	0.000235227	1836.08
2	1	0	0	0	0	1476.41	0.671583	0.671129	0.614875	13	0.208199	11	0	44.2476	0.00041266	1091.49
2	1	0	1	0	0	1479.21	0.685567	0.685141	0.971305	13	0.210396	11	0	47.0443	0.000665481	705.382
2	1	0	1	0	0	1482	0.699549	0.699118	1.40873	13	0.21371	11	0	49.8409	0.00098487	496.274
2	1	0	1	0	0	1484.54	0.687763	0.687298	0.919353	13	0.216644	11	0	52.3783	0.000631869	747.588
2	1	0	1	0	0	1487.34	0.673781	0.673339	0.555849	13	0.218666	11	0	55.1749	0.000374275	1211.37
2	1	0	0	0	0	1490.13	0.659797	0.65938	0.321651	13	0.219868	11	0	57.9716	0.00021209	2049.99
2	1	0	1	0	0	1492.93	0.645813	0.645335	0.172841	13	0.220539	11	0	60.7683	0.00011154	3733.69
2	1	0	1	0	0	1495.73	0.63183	0.631424	0.0864298	13	0.220887	11	0	63.565	5.45738e-05	7305.63
2	1	0	1	0	0	1498.53	0.617846	0.617375	0.0397507	13	0.221054	11	0	66.3617	2.45411e-05	15531.2
2	1	0	0	0	0	1501.32	0.603863	0.603417	0.0162256	13	0.221126	11	0	69.1584	9.79082e-06	37189.1
2	0	0	1	0	0	1504.12	0.589879	0.589379	0.00440185	13	0.22115	11	0	71.9551	2.59436e-06	133894
2	0	0	1	0	0	1506.92	0.575897	0.575446	-0.00188659	13	0.221151	11	0	1.1985	-1.08563e-06	305020
2	1	0	0	0	0	1509.71	0.561913	0.561459	-0.005672	13	0.221139	11	0	3.9952	-3.1846e-06	98987.9
2	1	0	1	0	0	1512.51	0.547929	0.547444	-0.00796251	13	0.221121	11	0	6.7919	-4.35903e-06	68752.7
2	0	0	1	0	0	1515.31	0.533946	0.533492	-0.00778936	13	0.221098	11	0	9.5886	-4.15556e-06	68489.8
2	0	0	1	0	0	1518.1	0.519962	0.519503	-0.00921233	13	0.221073	11	0	12.3853	-4.78583e-06	56392.1
2	0	0	0	0	0	1520.9	0.505979	0.505519	-0.0101604	13	0.221047	11	0	15.182	-5.13629e-06	49753.6
2	0	0	1	0	0	1523.7	0.491995	0.49152	-0.0097082	13	0.221019	11	0	17.9787	-4.77177e-06	50629.4
2	0	0	1	0	0	1526.49	0.478013	0.477536	-0.0105667	13	0.22099	11	0	20.7753	-5.046e-06	45192.4
2	0	0	0	0	0	1529.29	0.464029	0.463535	-0.0119172	13	0.220959	11	0	23.572	-5.52402e-06	38896.3
2	0	0	0	0	0	1532.06	0.45017	0.449708	-0.0105598	13	0.220927	11	0	26.3438	-4.74885e-06	42586.7
2	1	0	1	0	1	1534.65	0.462831	0.462358	0.0132773	14	0.220957	11	0	2.4971	6.13885e-06	34823.2
2	1	0	1	0	1	1537.45	0.476813	0.476371	0.0132225	14	0.220992	11	0	5.2937	6.29879e-06	36027.4
2	0	0	0	0	1	1540.24	0.490797	0.490339	0.0129576	14	0.221028	11	0	8.0904	6.3536e-06	37841.9
2	1	0	1	0	1	1543.04	0.504781	0.504322	0.012517	14	0.221063	11	0	10.8871	6.31258e-06	40291.1
2	1	0	1	0	1	1545.84	0.518764	0.5183	0.0124962	14	0.221098	11	0	13.6838	6.47679e-06	41476.6
2	1	0	1	0	1	1548.63	0.532748	0.532273	0.0120216	14	0.221133	11	0	16.4805	6.39879e-06	44276.3
2	1	0	0	0	1	1551.43	0.546731	0.546295	0.0126936	14	0.221169	11	0	19.2772	6.93447e-06	43037
2	1	0	1	0	1	1554.23	0.560715	0.560212	0.0139327	14	0.221208	11	0	22.0739	7.80525e-06	40208.6
2	1	0	1	0	1	1557.02	0.574697	0.574263	0.0170335	14	0.221253	11	0	24.8705	9.7817e-06	33713.8
2	1	0	0	0	1	1559.82	0.588681	0.588231	0.0229172	14	0.221309	11	0	27.6672	1.34806e-05	25667.6
2	1	0	1	0	1	1562.62	0.602664	0.602186	0.0341218	14	0.221389	11	0	30.4639	2.05477e-05	17648.1
2	1	0	1	0	1	1565.41	0.616648	0.616174	0.0587773	14	0.221516	11	0	33.2606	3.6217e-05	10483.2
2	1	0	1	0	1	1568.21	0.630632	0.630211	0.108763	14	0.221743	11	0	36.0573	6.85438e-05	5794.33
2	1	0	0	0	1	1571.01	0.644615	0.644163	0.201927	14	0.222163	11	0	38.854	0.000130074	3190.08
2	1	0	1	0	1	1573.8	0.658598	0.658174	0.367743	14	0.222941	11	0	41.6506	0.000242039	1789.77
2	1	0	1	0	1	1576.6	0.672581	0.672157	0.62889	14	0.224313	11	0	44.4473	0.000422713	1068.8
2	1	0	0	0	1	1579.4	0.686565	0.686128	0.989457	14	0.226558	11	0	47.244	0.000678894	693.438
2	1	0	0	0	1	1582.08	0.699974	0.699594	1.39449	14	0.22975	11	0	49.9258	0.000975578	501.684
2	1	0	0	0	1	1584.73	0.686765	0.686309	0.878528	14	0.2327	11	0	52.578	0.000602941	781.204
2	1	0	1	0	1	1587.53	0.672781	0.672287	0.531859	14	0.234638	11	0	55.3747	0.000357562	1264.03
2	1	0	1	0	1	1590.33	0.658798	0.658359	0.303581	14	0.235784	11	0	58.1714	0.000199865	2168.65
2	1	0	1	0	1	1593.12	0.644814	0.644372	0.159936	14	0.236412	11	0	60.9681	0.000103059	4028.93
2	1	0	0	0	1	1595.92	0.630831	0.630405	0.0788414	14	0.236734	11	0	63.7648	4.97021e-05	7995.86
2	1	0	1	0	1	1598.72	0.616848	0.616389	0.0352281	14	0.236887	11	0	66.5614	2.17142e-05	17497.1
2	1	0	1	0	1	1601.51	0.602865	0.602409	0.0132481	14	0.236953	11	0	69.3581	7.98075e-06	45471.5
2	1	0	0	0	1	1604.31	0.588881	0.588423	0.00225817	14	0.236974	11	0	72.1548	1.32876e-06	260576
2	1	0	1	0	1	1607.11	0.574897	0.574478	-0.00285945	14	0.236973	11	0	1.4982	-1.64269e-06	200905
2	1	0	1	0	1	1609.9	0.560914	0.560411	-0.00620452	14	0.236961	11	0	4.2949	-3.47708e-06	90323
2	0	0	1	0	1	1612.7	0.54693	0.546472	-0.00771353	14	0.236942	11	0	7.0916	-4.21523e-06	70845.9
2	0	0	0	0	1	1615.5	0.532947	0.532484	-0.0078522	14	0.236919	11	0	9.8883	-4.18117e-06	67813.3
2	0	0	1	0	1	1618.29	0.518964	0.518513	-0.00851065	14	0.236895	11	0	12.6849	-4.41288e-06	60925.2
2	1	0	1	0	1	1621.09	0.504981	0.504529	-0.0101626	14	0.236868	11	0	15.4816	-5.12731e-06	49645.8
2	0	0	0	0	1	1623.89	0.490997	0.490564	-0.0102175	14	0.23684	11	0	18.2783	-5.01236e-06	48012
2	0	0	1	0	1	1626.68	0.477013	0.47659	-0.0111023	14	0.236811	11	0	21.075	-5.29122e-06	42927.3
2	0	0	1	0	1	1629.48	0.46303	0.462531	-0.0104382	14	0.23678	11	0	23.8717	-4.828e-06	44311.3
2	0	0	0	0	0	1632.09	0.450071	0.449535	-0.0126779	15	0.23675	11	0	26.4827	-5.69913e-06	35458.2
2	1	0	0	0	0	1634.84	0.463829	0.463362	0.0115275	15	0.236783	11	0	2.6968	5.3414e-06	40196.3
2	1	0	1	0	0	1637.64	0.477812	0.477361	0.0130938	15	0.236817	11	0	5.4935	6.25046e-06	36457.1
2	1	0	1	0	0	1640.44	0.491796	0.491313	0.0116911	15	0.236852	11	0	8.2902	5.74396e-06	42024.7
2	0	0	1	0	0	1643.23	0.50578	0.505376	0.0130337	15	0.236887	11	0	11.0869	6.58692e-06	38774.5
2	1	0	0	0	0	1646.03	0.519763	0.519213	0.0116875	15	0.236922	11	0	13.8836	6.06831e-06	44424.5
2	1	0	1	0	0	1648.83	0.533746	0.533352	0.0133312	15	0.236957	11	0	16.6802	7.11021e-06	40007.9
2	1	0	1	0	0	1651.62	0.547729	0.547241	0.0127141	15	0.236993	11	0	19.4769	6.9577e-06	43041.9
2	1	0	0	0	0	1654.42	0.561713	0.561244	0.0148808	15	0.237033	11	0	22.2736	8.35178e-06	37715.9
2	1	0	1	0	0	1657.22	0.575696	0.57525	0.0175143	15	0.237077	11	0	25.0703	1.00751e-05	32844.6
2	1	0	1	0	0	1660.01	0.58968	0.589231	0.0228851	15	0.237135	11	0	27.867	1.34846e-05	25747.4
2	1	0	1	0	0	1662.81	0.603664	0.603225	0.0359541	15	0.237216	11	0	30.6637	2.16884e-05	16777.6
2	1	0	0	0	0	1665.61	0.617647	0.617191	0.0614255	15	0.237348	11	0	33.4604	3.79113e-05	10047.8
2	1	0	1	0	0	1668.4	0.63163	0.631172	0.111286	15	0.237582	11	0	36.257	7.02404e-05	5671.63
2	1	0	1	0	0	1671.2	0.645613	0.645146	0.209384	15	0.238017	11	0	39.0537	0.000135084	3081.16
2	1	0	0	0	0	1674	0.659597	0.659117	0.379712	15	0.238822	11	0	41.8504	0.000250274	1735.83
2	1	0	1	0	0	1676.79	0.673581	0.673133	0.644829	15	0.240233	11	0	44.6471	0.000434056	1043.89
2	1	0	1	0	0	1679.59	0.687564	0.687123	1.00637	15	0.242523	11	0	47.4438	0.0006915	682.774
2	1	0	1	0	0	1682.13	0.699749	0.699296	1.37568	15	0.245573	11	0	49.9811	0.000962011	508.326
2	1	0	1	0	0	1684.92	0.685766	0.685272	0.84807	15	0.248624	11	0	52.7778	0.000581159	808.037
2	1	0	1	0	0	1687.72	0.671782	0.671318	0.502783	15	0.250472	11	0	55.5745	0.000337528	1335.2
2	1	0	1	0	0	1690.52	0.6578	0.657392	0.285978	15	0.251553	11	0	58.3711	0.000188	2298.75
2	1	0	1	0	0	1693.31	0.643816	0.643348	0.15236	15	0.25215	11	0	61.1678	9.80205e-05	4222.55
2	1	0	1	0	0	1696.11	0.629833	0.629334	0.0746294	15	0.252455	11	0	63.9645	4.69668e-05	8432.79
2	1	0	0	0	0	1698.91	0.615849	0.615413	0.0342589	15	0.252601	11	0	66.7612	2.10834e-05	17963.6
2	1	0	1	0	0	1701.7	0.601865	0.601403	0.0128913	15	0.252663	11	0	69.5579	7.75286e-06	46651.9
2	1	0	1	0	0	1704.5	0.587882	0.587405	0.00249533	15	0.252683	11	0	72.3546	1.46577e-06	235402
2	1	0	1	0	0	1707.3	0.573898	0.573444	-0.00325818	15	0.252681	11	0	1.698	-1.86838e-06	176001
2	0	0	1	0	0	1710.09	0.559916	0.559479	-0.00624956	15	0.252668	11	0	4.4946	-3.4965e-06	89522.9
2	0	0	1	0	0	1712.89	0.545932	0.545486	-0.00714816	15	0.252649	11	0	7.2913	-3.89922e-06	76311.4
2	0	0	1	0	0	1715.69	0.531948	0.531542	-0.00817928	15	0.252626	11	0	10.088	-4.34763e-06	64986.5
2	0	0	0	0	0	1718.48	0.517965	0.51749	-0.00920511	15	0.252602	11	0	12.8847	-4.76356e-06	56217.7
2	0	0	1	0	0	1721.28	0.503981	0.503531	-0.00996169	15	0.252575	11	0	15.6814	-5.01602e-06	50546.8
2	0	0	1	0	0	1724.08	0.489998	0.489557	-0.0108696	15	0.252547	11	0	18.4781	-5.32127e-06	45039.2
2	0	0	1	0	0	1726.87	0.476014	0.475588	-0.0102728	15	0.252518	11	0	21.2748	-4.88564e-06	46295.6
2	0	0	1	0	0	1729.67	0.462032	0.461596	-0.0100693	15	0.252488	11	0	24.0714	-4.64793e-06	45842
2	1	0	1	0	0	1732.07	0.450021	0.449573	-0.00242571	15	0.25246	11	0	26.4727	-1.09053e-06	185337