File: ACS_Catal_2026/Figures_Na_K/main_figures/data/EC/20251112_2-148_alpha_reproducibility/20251112_2-148_001_alpha_reproducibility_1_Na2_02_PEIS_C01.mpt
EC-Lab ASCII FILE
Nb header lines : 63

Potentio Electrochemical Impedance Spectroscopy

Run on channel : 1 (SN 69187)
User :
CE vs. WE compliance from -10 V to 10 V
Electrode connection : standard
Potential control : Ewe
Ewe ctrl range : min = -1.00 V, max = 1.00 V
Safety Limits :
	Do not start on E overload
Acquisition started on : 11/12/2025 15:13:50.824
Loaded Setting File :  C:\Users\User\Documents\EC-Lab\Data\Yatsuzuka\20251030_2-147_gamma_reproducibility\20251030_2-147_001_gamma1_K_1.mps
Saved on :
	File : 20251112_2-148_001_alpha_reproducibility_1_Na2_02_PEIS_C01.mpr
	Directory : C:\Users\User\Documents\EC-Lab\Data\Yatsuzuka\20251112_2-148_alpha_reproducibility\
	Host : 192.109.209.127
Device : SP-150e (SN .003883)
Address : 192.109.209.128
EC-LAB for windows v11.52 (software)
Internet server v11.52 (firmware)
Command interpretor v11.50 (firmware)
Electrode material :
Initial state :
Electrolyte :
Comments :
Electrode surface area : 0.001 cm2
Characteristic mass : 0.001 g
Equivalent Weight : 0.000 g/eq.
Density : 0.000 g/cm3
Volume (V) : 0.001 cm3
Cycle Definition : Charge/Discharge alternance
Mode                Single sine
E (V)               0.4500
vs.                 Ref
tE (h:m:s)          0:00:0.0000
record              0
dI                  0.000
unit dI             mA
dt (s)              0.000
fi                  500.000
unit fi             kHz
ff                  1.000
unit ff             Hz
Nd                  6
Points              per decade
spacing             Logarithmic
Va (mV)             10.0
pw                  0.10
Na                  2
corr                0
E range min (V)     -1.000
E range max (V)     1.000
I Range             Auto
Bandwidth           5
nc cycles           0
goto Ns'            0
nr cycles           0
inc. cycle          0

freq/Hz	Re(Z)/Ohm	-Im(Z)/Ohm	|Z|/Ohm	Phase(Z)/deg	time/s	<Ewe>/V	<I>/mA	Cs/uF	Cp/uF	cycle number	I Range	|Ewe|/V	|I|/A	Ns	(Q-Qo)/mA.h	Re(Y)/Ohm-1	Im(Y)/Ohm-1	|Y|/Ohm-1	Phase(Y)/deg	Re(C)/nF	Im(C)/nF	|C|/nF	Phase(C)/deg	Re(M)	Im(M)	|M|	Phase(M)/deg	Re(Permittivity)	Im(Permittivity)	|Permittivity|	Phase(Permittivity)/deg	Re(Resistivity)/Ohm.cm	Im(Resistivity)/Ohm.cm	|Resistivity|/Ohm.cm	Phase(Resistivity)/deg	Re(Conductivity)/mS/cm	Im(Conductivity)/mS/cm	|Conductivity|/mS/cm	Phase(Conductivity)/deg	Tan(Delta)	Loss Angle(Delta)/deg	dq/mA.h	Pwe/W	Rwe/Ohm
500019	17.4776	-1.96374	17.5876	6.41072	201.599	0.450133	0.0106155	-0.162088	-0.00202072	1	10	0.0058099	0.000330341	0	2.15588e-05	0.0565028	-0.00634851	0.0568584	-6.41072	-2.02072	17.9847	18.0979	-96.4107	0.0000000E+000	0.0000000E+000	0.0000000E+000	96.4107	0.0000000E+000	0.0000000E+000	0.0000000E+000	-96.4107	0.0000000E+000	0.0000000E+000	0.0000000E+000	6.41072	0.0000000E+000	0.0000000E+000	0.0000000E+000	-6.41072	8.90016	83.5893	2.15588e-05	4.77839e-06	42403.3
339899	12.521	-1.26189	12.5844	5.75495	201.885	0.450004	0.0123765	-0.371062	-0.00373099	1	10	0.00958389	0.000761567	0	2.27645e-05	0.0790627	-0.0079681	0.0794632	-5.75495	-3.73099	37.0204	37.2079	-95.755	0.0000000E+000	0.0000000E+000	0.0000000E+000	95.755	0.0000000E+000	0.0000000E+000	0.0000000E+000	-95.755	0.0000000E+000	0.0000000E+000	0.0000000E+000	5.75495	0.0000000E+000	0.0000000E+000	0.0000000E+000	-5.75495	9.9224	84.245	1.20564e-06	5.56946e-06	36359.6
231063	10.7273	-0.697683	10.75	3.72117	202.308	0.449796	0.0127082	-0.987262	-0.00415848	1	10	0.0106674	0.000992319	0	2.58201e-05	0.0928275	-0.00603732	0.0930236	-3.72117	-4.15848	63.9392	64.0742	-93.7212	0.0000000E+000	0.0000000E+000	0.0000000E+000	93.7212	0.0000000E+000	0.0000000E+000	0.0000000E+000	-93.7212	0.0000000E+000	0.0000000E+000	0.0000000E+000	3.72117	0.0000000E+000	0.0000000E+000	0.0000000E+000	-3.72117	15.3756	86.2788	3.05566e-06	5.71609e-06	35394.2
157076	10.0614	-0.301337	10.066	1.71548	202.866	0.449775	0.0119218	-3.36247	-0.00301338	1	10	0.0101194	0.00100531	0	2.73591e-05	0.0993003	-0.00297401	0.0993448	-1.71548	-3.01338	100.615	100.66	-91.7155	0.0000000E+000	0.0000000E+000	0.0000000E+000	91.7155	0.0000000E+000	0.0000000E+000	0.0000000E+000	-91.7155	0.0000000E+000	0.0000000E+000	0.0000000E+000	1.71548	0.0000000E+000	0.0000000E+000	0.0000000E+000	-1.71548	33.3893	88.2845	1.53896e-06	5.36213e-06	37727.1
106786	9.86544	-0.092042	9.86587	0.534539	203.288	0.449754	0.0143145	-16.1927	-0.00140935	1	10	0.0108339	0.00109812	0	2.67858e-05	0.101355	-0.000945617	0.10136	-0.534539	-1.40935	151.06	151.067	-90.5345	0.0000000E+000	0.0000000E+000	0.0000000E+000	90.5345	0.0000000E+000	0.0000000E+000	0.0000000E+000	-90.5345	0.0000000E+000	0.0000000E+000	0.0000000E+000	0.534539	0.0000000E+000	0.0000000E+000	0.0000000E+000	-0.534539	107.184	89.4655	-5.73272e-07	6.43799e-06	31419.5
72595	9.82099	0.00209638	9.82099	-0.0122303	203.71	0.449756	0.0091546	1045.79	4.76511e-05	1	10	0.0107363	0.0010932	0	2.88447e-05	0.101823	2.1735e-05	0.101823	0.0122303	0.0476496	223.233	223.233	-89.9878	0.0000000E+000	0.0000000E+000	0.0000000E+000	89.9878	0.0000000E+000	0.0000000E+000	0.0000000E+000	-89.9878	0.0000000E+000	0.0000000E+000	0.0000000E+000	-0.0122303	0.0000000E+000	0.0000000E+000	0.0000000E+000	0.0122303	4684.74	89.9878	2.05882e-06	4.11734e-06	49129
49352.4	9.80437	0.0308627	9.80441	-0.180358	204.132	0.449762	0.0127082	104.491	0.00103539	1	10	0.0105959	0.00108072	0	3.02382e-05	0.101994	0.000321063	0.101995	0.180358	1.03539	328.919	328.92	-89.8196	0.0000000E+000	0.0000000E+000	0.0000000E+000	89.8196	0.0000000E+000	0.0000000E+000	0.0000000E+000	-89.8196	0.0000000E+000	0.0000000E+000	0.0000000E+000	-0.180358	0.0000000E+000	0.0000000E+000	0.0000000E+000	0.180358	317.677	89.8196	1.39355e-06	5.71565e-06	35391.5
33551.1	9.80646	0.0449139	9.80656	-0.262415	204.554	0.449763	0.0133604	105.617	0.00221545	1	10	0.0105085	0.00107158	0	3.24501e-05	0.101971	0.000467033	0.101973	0.262415	2.21543	483.718	483.723	-89.7376	0.0000000E+000	0.0000000E+000	0.0000000E+000	89.7376	0.0000000E+000	0.0000000E+000	0.0000000E+000	-89.7376	0.0000000E+000	0.0000000E+000	0.0000000E+000	-0.262415	0.0000000E+000	0.0000000E+000	0.0000000E+000	0.262415	218.339	89.7376	2.21192e-06	6.00901e-06	33663.9
22806.6	9.82576	0.0531305	9.8259	-0.309811	204.976	0.449754	0.00939125	131.346	0.00384025	1	10	0.0104372	0.00106221	0	3.24983e-05	0.10177	0.000550299	0.101772	0.309811	3.8402	710.201	710.212	-89.6902	0.0000000E+000	0.0000000E+000	0.0000000E+000	89.6902	0.0000000E+000	0.0000000E+000	0.0000000E+000	-89.6902	0.0000000E+000	0.0000000E+000	0.0000000E+000	-0.309811	0.0000000E+000	0.0000000E+000	0.0000000E+000	0.309811	184.936	89.6902	4.82169e-08	4.22375e-06	47890.7
15504.4	9.83651	0.061761	9.8367	-0.359741	205.399	0.449755	0.0128163	166.208	0.0065521	1	10	0.0102873	0.0010458	0	3.54016e-05	0.101658	0.000638285	0.10166	0.359741	6.5521	1043.54	1043.56	-89.6403	0.0000000E+000	0.0000000E+000	0.0000000E+000	89.6403	0.0000000E+000	0.0000000E+000	0.0000000E+000	-89.6403	0.0000000E+000	0.0000000E+000	0.0000000E+000	-0.359741	0.0000000E+000	0.0000000E+000	0.0000000E+000	0.359741	159.267	89.6403	2.90324e-06	5.76419e-06	35092.5
10540.4	9.82718	0.0492524	9.8273	-0.287156	205.821	0.449761	0.0122256	306.575	0.00770057	1	10	0.010224	0.00104037	0	3.76668e-05	0.101756	0.000509987	0.101757	0.287156	7.70055	1536.47	1536.49	-89.7128	0.0000000E+000	0.0000000E+000	0.0000000E+000	89.7128	0.0000000E+000	0.0000000E+000	0.0000000E+000	-89.7128	0.0000000E+000	0.0000000E+000	0.0000000E+000	-0.287156	0.0000000E+000	0.0000000E+000	0.0000000E+000	0.287156	199.527	89.7128	2.2652e-06	5.49857e-06	36788.6
7163.78	9.85821	0.0573258	9.85837	-0.333173	206.344	0.449745	0.00950679	387.55	0.0131044	1	10	0.0102161	0.00103628	0	3.88274e-05	0.101435	0.000589848	0.101437	0.333173	13.1045	2253.54	2253.58	-89.6668	0.0000000E+000	0.0000000E+000	0.0000000E+000	89.6668	0.0000000E+000	0.0000000E+000	0.0000000E+000	-89.6668	0.0000000E+000	0.0000000E+000	0.0000000E+000	-0.333173	0.0000000E+000	0.0000000E+000	0.0000000E+000	0.333173	171.968	89.6668	1.16061e-06	4.27563e-06	47307.8
4871.56	9.86789	0.0556569	9.86804	-0.323157	206.812	0.449766	0.0136511	586.993	0.0186728	1	10	0.0107806	0.00109247	0	4.09521e-05	0.101336	0.000571554	0.101337	0.323157	18.6729	3310.66	3310.71	-89.6768	0.0000000E+000	0.0000000E+000	0.0000000E+000	89.6768	0.0000000E+000	0.0000000E+000	0.0000000E+000	-89.6768	0.0000000E+000	0.0000000E+000	0.0000000E+000	-0.323157	0.0000000E+000	0.0000000E+000	0.0000000E+000	0.323157	177.298	89.6768	2.12475e-06	6.13979e-06	32947.2
3311.06	9.87685	0.0772939	9.87716	-0.448374	207.499	0.449774	0.0134126	621.882	0.0380833	1	10	0.0101196	0.00102455	0	4.37771e-05	0.101241	0.000792285	0.101244	0.448374	38.0831	4866.4	4866.55	-89.5516	0.0000000E+000	0.0000000E+000	0.0000000E+000	89.5516	0.0000000E+000	0.0000000E+000	0.0000000E+000	-89.5516	0.0000000E+000	0.0000000E+000	0.0000000E+000	-0.448374	0.0000000E+000	0.0000000E+000	0.0000000E+000	0.448374	127.783	89.5516	2.82496e-06	6.03263e-06	33533.8
2250.72	9.87474	0.0685395	9.87498	-0.397678	207.964	0.44976	0.0116982	1031.71	0.0497013	1	10	0.0102474	0.00103771	0	4.50332e-05	0.101264	0.00070286	0.101266	0.397678	49.7009	7160.64	7160.81	-89.6023	0.0000000E+000	0.0000000E+000	0.0000000E+000	89.6023	0.0000000E+000	0.0000000E+000	0.0000000E+000	-89.6023	0.0000000E+000	0.0000000E+000	0.0000000E+000	-0.397678	0.0000000E+000	0.0000000E+000	0.0000000E+000	0.397678	144.074	89.6023	1.25612e-06	5.26138e-06	38447
1530.49	9.88553	0.0876564	9.88592	-0.508036	208.429	0.449764	0.011292	1186.33	0.0932693	1	10	0.0103155	0.00104345	0	4.59692e-05	0.10115	0.000896911	0.101154	0.508036	93.2689	10518.5	10519	-89.492	0.0000000E+000	0.0000000E+000	0.0000000E+000	89.492	0.0000000E+000	0.0000000E+000	0.0000000E+000	-89.492	0.0000000E+000	0.0000000E+000	0.0000000E+000	-0.508036	0.0000000E+000	0.0000000E+000	0.0000000E+000	0.508036	112.776	89.492	9.35939e-07	5.07872e-06	39830.4
1040.33	9.89981	0.114618	9.90047	-0.663329	208.894	0.449764	0.012643	1334.74	0.178891	1	10	0.0103561	0.00104602	0	4.75651e-05	0.100999	0.00116934	0.101005	0.663329	178.891	15451.2	15452.3	-89.3367	0.0000000E+000	0.0000000E+000	0.0000000E+000	89.3367	0.0000000E+000	0.0000000E+000	0.0000000E+000	-89.3367	0.0000000E+000	0.0000000E+000	0.0000000E+000	-0.663329	0.0000000E+000	0.0000000E+000	0.0000000E+000	0.663329	86.3722	89.3367	1.59597e-06	5.68635e-06	35574.2
707.036	9.89613	0.150406	9.89727	-0.870743	209.359	0.449763	0.0135635	1496.62	0.345632	1	10	0.0103711	0.00104788	0	4.88123e-05	0.101026	0.00153545	0.101038	0.870743	345.632	22741.2	22743.8	-89.1293	0.0000000E+000	0.0000000E+000	0.0000000E+000	89.1293	0.0000000E+000	0.0000000E+000	0.0000000E+000	-89.1293	0.0000000E+000	0.0000000E+000	0.0000000E+000	-0.870743	0.0000000E+000	0.0000000E+000	0.0000000E+000	0.870743	65.7959	89.1293	1.24717e-06	6.10037e-06	33159.8
480.769	9.90459	0.201616	9.90664	-1.16614	209.824	0.449754	0.0120802	1641.94	0.680074	1	10	0.010377	0.00104747	0	5.01558e-05	0.100921	0.00205434	0.100942	1.16614	680.075	33409.3	33416.2	-88.8339	0.0000000E+000	0.0000000E+000	0.0000000E+000	88.8339	0.0000000E+000	0.0000000E+000	0.0000000E+000	-88.8339	0.0000000E+000	0.0000000E+000	0.0000000E+000	-1.16614	0.0000000E+000	0.0000000E+000	0.0000000E+000	1.16614	49.1259	88.8339	1.34352e-06	5.43311e-06	37230.6
326.778	9.91937	0.285244	9.92347	-1.64716	210.287	0.44976	0.00985898	1707.47	1.41077	1	10	0.0103888	0.00104689	0	5.10339e-05	0.10073	0.0028966	0.100771	1.64716	1410.77	49059.7	49079.9	-88.3528	0.0000000E+000	0.0000000E+000	0.0000000E+000	88.3528	0.0000000E+000	0.0000000E+000	0.0000000E+000	-88.3528	0.0000000E+000	0.0000000E+000	0.0000000E+000	-1.64716	0.0000000E+000	0.0000000E+000	0.0000000E+000	1.64716	34.7751	88.3528	8.78057e-07	4.43418e-06	45619.4
222.061	9.91812	0.414578	9.92678	-2.39357	210.748	0.449762	0.0106901	1728.79	3.01535	1	10	0.0103824	0.0010459	0	5.3558e-05	0.10065	0.00420716	0.100738	2.39357	3015.35	72137.5	72200.5	-87.6064	0.0000000E+000	0.0000000E+000	0.0000000E+000	87.6064	0.0000000E+000	0.0000000E+000	0.0000000E+000	-87.6064	0.0000000E+000	0.0000000E+000	0.0000000E+000	-2.39357	0.0000000E+000	0.0000000E+000	0.0000000E+000	2.39357	23.9234	87.6064	2.52409e-06	4.80799e-06	42072.9
151.015	9.93901	0.60621	9.95748	-3.49032	211.21	0.449755	0.0112696	1738.51	6.44354	1	10	0.0103904	0.00104348	0	5.45188e-05	0.100241	0.00611398	0.100427	3.49032	6443.54	105644	105840	-86.5097	0.0000000E+000	0.0000000E+000	0.0000000E+000	86.5097	0.0000000E+000	0.0000000E+000	0.0000000E+000	-86.5097	0.0000000E+000	0.0000000E+000	0.0000000E+000	-3.49032	0.0000000E+000	0.0000000E+000	0.0000000E+000	3.49032	16.3953	86.5097	9.6084e-07	5.06856e-06	39908.7
102.667	9.96171	0.852098	9.99809	-4.88903	211.685	0.449764	0.0122311	1819.28	13.2143	1	10	0.01039	0.0010392	0	5.55031e-05	0.0996552	0.00852424	0.100019	4.88903	13214.3	154486	155050	-85.111	0.0000000E+000	0.0000000E+000	0.0000000E+000	85.111	0.0000000E+000	0.0000000E+000	0.0000000E+000	-85.111	0.0000000E+000	0.0000000E+000	0.0000000E+000	-4.88903	0.0000000E+000	0.0000000E+000	0.0000000E+000	4.88903	11.6908	85.111	9.84254e-07	5.50113e-06	36772
69.7545	9.99777	1.24483	10.075	-7.09743	212.153	0.44976	0.0107739	1832.89	27.9816	1	10	0.0103922	0.00103149	0	5.70233e-05	0.0984953	0.0122638	0.0992559	7.09743	27981.6	224731	226467	-82.9026	0.0000000E+000	0.0000000E+000	0.0000000E+000	82.9026	0.0000000E+000	0.0000000E+000	0.0000000E+000	-82.9026	0.0000000E+000	0.0000000E+000	0.0000000E+000	-7.09743	0.0000000E+000	0.0000000E+000	0.0000000E+000	7.09743	8.03141	82.9026	1.52019e-06	4.84568e-06	41745.2
47.4443	10.0374	1.77995	10.194	-10.0558	212.597	0.449756	0.00958878	1884.64	57.4582	1	10	0.0103982	0.00102003	0	5.77333e-05	0.0965898	0.0171284	0.0980967	10.0558	57458.2	324016	329072	-79.9442	0.0000000E+000	0.0000000E+000	0.0000000E+000	79.9442	0.0000000E+000	0.0000000E+000	0.0000000E+000	-79.9442	0.0000000E+000	0.0000000E+000	0.0000000E+000	-10.0558	0.0000000E+000	0.0000000E+000	0.0000000E+000	10.0558	5.63917	79.9442	7.09997e-07	4.31261e-06	46904.4
32.2387	10.0935	2.57615	10.4171	-14.3178	213.034	0.449751	0.00997637	1916.34	117.199	1	10	0.0103958	0.00099796	0	5.8428e-05	0.0930144	0.0237399	0.0959962	14.3178	117199	459191	473911	-75.6822	0.0000000E+000	0.0000000E+000	0.0000000E+000	75.6822	0.0000000E+000	0.0000000E+000	0.0000000E+000	-75.6822	0.0000000E+000	0.0000000E+000	0.0000000E+000	-14.3178	0.0000000E+000	0.0000000E+000	0.0000000E+000	14.3178	3.91806	75.6822	6.94776e-07	4.48689e-06	45081.7
21.9144	10.1564	3.70275	10.8103	-20.0305	213.465	0.449742	0.0108373	1961.4	230.112	1	10	0.0104029	0.000962316	0	5.82639e-05	0.0869089	0.0316847	0.0925044	20.0305	230112	631181	671819	-69.9695	0.0000000E+000	0.0000000E+000	0.0000000E+000	69.9695	0.0000000E+000	0.0000000E+000	0.0000000E+000	-69.9695	0.0000000E+000	0.0000000E+000	0.0000000E+000	-20.0305	0.0000000E+000	0.0000000E+000	0.0000000E+000	20.0305	2.74293	69.9695	-1.64178e-07	4.87398e-06	41499.5
14.9093	10.333	5.35969	11.6403	-27.4156	213.932	0.449757	0.0115193	1991.69	422.251	1	10	0.0104075	0.000894086	0	6.01727e-05	0.0762599	0.0395558	0.0859083	27.4156	422251	814062	917057	-62.5844	0.0000000E+000	0.0000000E+000	0.0000000E+000	62.5844	0.0000000E+000	0.0000000E+000	0.0000000E+000	-62.5844	0.0000000E+000	0.0000000E+000	0.0000000E+000	-27.4156	0.0000000E+000	0.0000000E+000	0.0000000E+000	27.4156	1.92791	62.5844	1.9088e-06	5.18089e-06	39043.8
10.1329	10.3939	7.70963	12.9411	-36.566	214.642	0.449759	4.63752e-05	2037.28	723.062	1	11	0.0104221	0.000805352	0	6.15786e-05	0.0620636	0.0460353	0.0772732	36.566	723062	974814	1.21371e+06	-53.434	0.0000000E+000	0.0000000E+000	0.0000000E+000	53.434	0.0000000E+000	0.0000000E+000	0.0000000E+000	-53.434	0.0000000E+000	0.0000000E+000	0.0000000E+000	-36.566	0.0000000E+000	0.0000000E+000	0.0000000E+000	36.566	1.34817	53.434	1.40591e-06	2.08577e-08	9.69827e+06
6.88933	10.5797	11.1414	15.3643	-46.4815	214.995	0.44974	0.00030505	2073.49	1090.34	1	11	0.0104196	0.000678173	0	6.68267e-05	0.0448175	0.0471973	0.0650861	46.4815	1.09034e+06	1.03536e+06	1.5036e+06	-43.5185	0.0000000E+000	0.0000000E+000	0.0000000E+000	43.5185	0.0000000E+000	0.0000000E+000	0.0000000E+000	-43.5185	0.0000000E+000	0.0000000E+000	0.0000000E+000	-46.4815	0.0000000E+000	0.0000000E+000	0.0000000E+000	46.4815	0.949577	43.5185	5.24816e-06	1.37193e-07	1.47432e+06
4.68375	10.8372	16.14	19.4408	-56.1206	215.492	0.449763	0.00107586	2105.34	1451.11	1	11	0.0104161	0.000535783	0	5.94504e-05	0.028674	0.0427046	0.0514381	56.1206	1.45111e+06	974348	1.74788e+06	-33.8794	0.0000000E+000	0.0000000E+000	0.0000000E+000	33.8794	0.0000000E+000	0.0000000E+000	0.0000000E+000	-33.8794	0.0000000E+000	0.0000000E+000	0.0000000E+000	-56.1206	0.0000000E+000	0.0000000E+000	0.0000000E+000	56.1206	0.671449	33.8794	-7.3763e-06	4.83883e-07	418048
3.18099	11.2137	23.6353	26.1605	-64.6181	216.197	0.44976	0.000368406	2116.89	1727.93	1	11	0.0104255	0.000398519	0	6.41222e-05	0.0163854	0.0345357	0.0382256	64.6181	1.72793e+06	819812	1.91255e+06	-25.3819	0.0000000E+000	0.0000000E+000	0.0000000E+000	25.3819	0.0000000E+000	0.0000000E+000	0.0000000E+000	-25.3819	0.0000000E+000	0.0000000E+000	0.0000000E+000	-64.6181	0.0000000E+000	0.0000000E+000	0.0000000E+000	64.6181	0.474447	25.3819	4.67181e-06	1.65694e-07	1.22083e+06
2.16533	11.7274	34.1229	36.0819	-71.0332	217.208	0.449773	0.00112068	2154.03	1926.48	1	11	0.0104244	0.000288911	0	6.95994e-05	0.00900788	0.02621	0.0277148	71.0332	1.92648e+06	662093	2.03708e+06	-18.9669	0.0000000E+000	0.0000000E+000	0.0000000E+000	18.9669	0.0000000E+000	0.0000000E+000	0.0000000E+000	-18.9669	0.0000000E+000	0.0000000E+000	0.0000000E+000	-71.0332	0.0000000E+000	0.0000000E+000	0.0000000E+000	71.0332	0.343681	18.9669	5.47721e-06	5.04049e-07	401341
1.46962	12.336	49.8036	51.3087	-76.0882	219.408	0.449773	0.000383778	2174.47	2048.78	1	12	0.0104271	0.000203222	0	6.71438e-05	0.00468591	0.0189182	0.0194899	76.0882	2.04878e+06	507468	2.11069e+06	-13.9118	0.0000000E+000	0.0000000E+000	0.0000000E+000	13.9118	0.0000000E+000	0.0000000E+000	0.0000000E+000	-13.9118	0.0000000E+000	0.0000000E+000	0.0000000E+000	-76.0882	0.0000000E+000	0.0000000E+000	0.0000000E+000	76.0882	0.247693	13.9118	-2.45568e-06	1.72613e-07	1.17196e+06
1.00006	13.3891	72.3589	73.5873	-79.5167	221.548	0.449773	0.000262184	2199.38	2126.57	1	12	0.0104306	0.000141745	0	6.21403e-05	0.00247255	0.0133625	0.0135893	79.5167	2.12657e+06	393493	2.16267e+06	-10.4833	0.0000000E+000	0.0000000E+000	0.0000000E+000	10.4833	0.0000000E+000	0.0000000E+000	0.0000000E+000	-10.4833	0.0000000E+000	0.0000000E+000	0.0000000E+000	-79.5167	0.0000000E+000	0.0000000E+000	0.0000000E+000	79.5167	0.185037	10.4832	-5.00343e-06	1.17923e-07	1.71548e+06