File: ACS_Catal_2026/Figures_Na_K/main_figures/data/EC/20251112_2-148_alpha_reproducibility/20251112_2-148_004_Na_first_2_K1_02_PEIS_C02.mpt
EC-Lab ASCII FILE
Nb header lines : 63

Potentio Electrochemical Impedance Spectroscopy

Run on channel : 2 (SN 69290)
User :
CE vs. WE compliance from -10 V to 10 V
Electrode connection : standard
Potential control : Ewe
Ewe ctrl range : min = -1.00 V, max = 1.00 V
Safety Limits :
	Do not start on E overload
Acquisition started on : 11/12/2025 16:20:32.186
Loaded Setting File :  C:\Users\User\Documents\EC-Lab\Data\Yatsuzuka\20251112_2-148_alpha_reproducibility\20251112_2-148_002_alpha_reproducibility_2_K1.mps
Saved on :
	File : 20251112_2-148_004_Na_first_2_K1_02_PEIS_C02.mpr
	Directory : C:\Users\User\Documents\EC-Lab\Data\Yatsuzuka\20251112_2-148_alpha_reproducibility\
	Host : 192.109.209.127
Device : SP-150e (SN .003883)
Address : 192.109.209.128
EC-Lab for windows v11.52 (software)
Internet server v11.52 (firmware)
Command interpretor v11.50 (firmware)
Electrode material :
Initial state :
Electrolyte :
Comments :
Electrode surface area : 0.001 cm2
Characteristic mass : 0.001 g
Equivalent Weight : 0.000 g/eq.
Density : 0.000 g/cm3
Volume (V) : 0.001 cm3
Cycle Definition : Charge/Discharge alternance
Mode                Single sine
E (V)               0.4500
vs.                 Ref
tE (h:m:s)          0:00:0.0000
record              0
dI                  0.000
unit dI             mA
dt (s)              0.000
fi                  500.000
unit fi             kHz
ff                  1.000
unit ff             Hz
Nd                  6
Points              per decade
spacing             Logarithmic
Va (mV)             10.0
pw                  0.10
Na                  2
corr                0
E range min (V)     -1.000
E range max (V)     1.000
I Range             Auto
Bandwidth           5
nc cycles           0
goto Ns'            0
nr cycles           0
inc. cycle          0

freq/Hz	Re(Z)/Ohm	-Im(Z)/Ohm	|Z|/Ohm	Phase(Z)/deg	time/s	<Ewe>/V	<I>/mA	Cs/uF	Cp/uF	cycle number	I Range	|Ewe|/V	|I|/A	Ns	(Q-Qo)/mA.h	Re(Y)/Ohm-1	Im(Y)/Ohm-1	|Y|/Ohm-1	Phase(Y)/deg	Re(C)/nF	Im(C)/nF	|C|/nF	Phase(C)/deg	Re(M)	Im(M)	|M|	Phase(M)/deg	Re(Permittivity)	Im(Permittivity)	|Permittivity|	Phase(Permittivity)/deg	Re(Resistivity)/Ohm.cm	Im(Resistivity)/Ohm.cm	|Resistivity|/Ohm.cm	Phase(Resistivity)/deg	Re(Conductivity)/mS/cm	Im(Conductivity)/mS/cm	|Conductivity|/mS/cm	Phase(Conductivity)/deg	Tan(Delta)	Loss Angle(Delta)/deg	dq/mA.h
500019	11.6392	-3.20334	12.072	15.3879	201.942	0.44979	0.0218004	-0.0993646	-0.00699645	1	10	0.00423285	0.000350633	0	3.29145e-05	0.0798667	-0.0219808	0.0828363	-15.3879	-6.99645	25.4214	26.3666	-105.388	0.0000000E+000	0.0000000E+000	0.0000000E+000	105.388	0.0000000E+000	0.0000000E+000	0.0000000E+000	-105.388	0.0000000E+000	0.0000000E+000	0.0000000E+000	15.3879	0.0000000E+000	0.0000000E+000	0.0000000E+000	-15.3879	3.63348	74.6121	3.29145e-05
339899	7.29631	-1.91706	7.54395	14.7214	202.364	0.44968	0.0221975	-0.24425	-0.0157727	1	10	0.0061153	0.000810624	0	3.49299e-05	0.128205	-0.0336851	0.132557	-14.7214	-15.7727	60.0309	62.0685	-104.721	0.0000000E+000	0.0000000E+000	0.0000000E+000	104.721	0.0000000E+000	0.0000000E+000	0.0000000E+000	-104.721	0.0000000E+000	0.0000000E+000	0.0000000E+000	14.7214	0.0000000E+000	0.0000000E+000	0.0000000E+000	-14.7214	3.80599	75.2786	2.01541e-06
231063	5.79343	-1.04346	5.88665	10.2101	202.65	0.449545	0.0225574	-0.660109	-0.0207409	1	10	0.0101413	0.00172276	0	3.59115e-05	0.167186	-0.0301119	0.169876	-10.2101	-20.7409	115.157	117.01	-100.21	0.0000000E+000	0.0000000E+000	0.0000000E+000	100.21	0.0000000E+000	0.0000000E+000	0.0000000E+000	-100.21	0.0000000E+000	0.0000000E+000	0.0000000E+000	10.2101	0.0000000E+000	0.0000000E+000	0.0000000E+000	-10.2101	5.55215	79.7899	9.81563e-07
157076	5.27992	-0.525974	5.30606	5.68891	203.072	0.449522	0.022755	-1.9264	-0.0189292	1	10	0.0108452	0.00204393	0	3.72743e-05	0.187536	-0.0186819	0.188464	-5.68891	-18.9291	190.018	190.958	-95.6889	0.0000000E+000	0.0000000E+000	0.0000000E+000	95.6889	0.0000000E+000	0.0000000E+000	0.0000000E+000	-95.6889	0.0000000E+000	0.0000000E+000	0.0000000E+000	5.68891	0.0000000E+000	0.0000000E+000	0.0000000E+000	-5.68891	10.0384	84.3111	1.36281e-06
106786	5.14843	-0.268361	5.15542	2.98384	203.494	0.449528	0.0220652	-5.55373	-0.0150486	1	10	0.0109752	0.00212886	0	3.70679e-05	0.193708	-0.010097	0.193971	-2.98384	-15.0486	288.703	289.095	-92.9838	0.0000000E+000	0.0000000E+000	0.0000000E+000	92.9838	0.0000000E+000	0.0000000E+000	0.0000000E+000	-92.9838	0.0000000E+000	0.0000000E+000	0.0000000E+000	2.98384	0.0000000E+000	0.0000000E+000	0.0000000E+000	-2.98384	19.1847	87.0162	-2.06417e-07
72595	5.10525	-0.150664	5.10747	1.6904	203.916	0.449539	0.0212727	-14.5514	-0.0126622	1	10	0.0107567	0.00210607	0	4.02149e-05	0.195706	-0.00577559	0.195792	-1.6904	-12.6622	429.06	429.247	-91.6904	0.0000000E+000	0.0000000E+000	0.0000000E+000	91.6904	0.0000000E+000	0.0000000E+000	0.0000000E+000	-91.6904	0.0000000E+000	0.0000000E+000	0.0000000E+000	1.6904	0.0000000E+000	0.0000000E+000	0.0000000E+000	-1.6904	33.8851	88.3096	3.14703e-06
49352.4	5.09077	-0.0887051	5.09154	0.998261	204.338	0.449546	0.0206891	-36.3549	-0.0110348	1	10	0.010637	0.00208915	0	4.58265e-05	0.196374	-0.00342177	0.196404	-0.998261	-11.0347	633.282	633.378	-90.9983	0.0000000E+000	0.0000000E+000	0.0000000E+000	90.9983	0.0000000E+000	0.0000000E+000	0.0000000E+000	-90.9983	0.0000000E+000	0.0000000E+000	0.0000000E+000	0.998261	0.0000000E+000	0.0000000E+000	0.0000000E+000	-0.998261	57.3898	89.0017	5.61159e-06
33551.1	5.08377	-0.0526553	5.08404	0.593422	204.761	0.449552	0.0193952	-90.089	-0.00966359	1	10	0.0105551	0.00207613	0	4.8013e-05	0.196683	-0.00203716	0.196694	-0.593422	-9.66358	933	933.05	-90.5934	0.0000000E+000	0.0000000E+000	0.0000000E+000	90.5934	0.0000000E+000	0.0000000E+000	0.0000000E+000	-90.5934	0.0000000E+000	0.0000000E+000	0.0000000E+000	0.593422	0.0000000E+000	0.0000000E+000	0.0000000E+000	-0.593422	96.548	89.4066	2.1865e-06
22806.6	5.07921	-0.030065	5.0793	0.339143	205.183	0.449555	0.0181012	-232.113	-0.00813231	1	10	0.0105224	0.00207163	0	4.85637e-05	0.196874	-0.00116534	0.196878	-0.339143	-8.13229	1373.88	1373.9	-90.3391	0.0000000E+000	0.0000000E+000	0.0000000E+000	90.3391	0.0000000E+000	0.0000000E+000	0.0000000E+000	-90.3391	0.0000000E+000	0.0000000E+000	0.0000000E+000	0.339143	0.0000000E+000	0.0000000E+000	0.0000000E+000	-0.339143	168.941	89.6609	5.50739e-07
15504.4	5.07813	-0.0124308	5.07814	0.140255	205.605	0.44955	0.0183417	-825.785	-0.00494828	1	10	0.0104586	0.00205952	0	4.63358e-05	0.196922	-0.000482046	0.196922	-0.140255	-4.94817	2021.43	2021.44	-90.1403	0.0000000E+000	0.0000000E+000	0.0000000E+000	90.1403	0.0000000E+000	0.0000000E+000	0.0000000E+000	-90.1403	0.0000000E+000	0.0000000E+000	0.0000000E+000	0.140255	0.0000000E+000	0.0000000E+000	0.0000000E+000	-0.140255	408.512	89.8597	-2.22789e-06
10540.4	5.08218	0.00208531	5.08218	-0.0235095	206.027	0.449551	0.0215207	7240.9	0.00121909	1	10	0.0103452	0.00203558	0	4.77172e-05	0.196766	8.07367e-05	0.196766	0.0235095	1.21891	2971.08	2971.08	-89.9765	0.0000000E+000	0.0000000E+000	0.0000000E+000	89.9765	0.0000000E+000	0.0000000E+000	0.0000000E+000	-89.9765	0.0000000E+000	0.0000000E+000	0.0000000E+000	-0.0235095	0.0000000E+000	0.0000000E+000	0.0000000E+000	0.0235095	2437.13	89.9765	1.38133e-06
7163.78	5.08253	0.0123248	5.08255	-0.138938	206.551	0.44953	0.0151739	1802.6	0.0105997	1	10	0.010309	0.00202831	0	4.80069e-05	0.196751	0.000477108	0.196752	0.138938	10.5998	4371.14	4371.16	-89.8611	0.0000000E+000	0.0000000E+000	0.0000000E+000	89.8611	0.0000000E+000	0.0000000E+000	0.0000000E+000	-89.8611	0.0000000E+000	0.0000000E+000	0.0000000E+000	-0.138938	0.0000000E+000	0.0000000E+000	0.0000000E+000	0.138938	412.383	89.8611	2.89703e-07
4871.56	5.0862	0.0267565	5.08627	-0.301408	207.24	0.44954	0.0183678	1221.02	0.0337895	1	10	0.0101451	0.00199461	0	4.77836e-05	0.196605	0.00103426	0.196608	0.301408	33.7894	6423.13	6423.22	-89.6986	0.0000000E+000	0.0000000E+000	0.0000000E+000	89.6986	0.0000000E+000	0.0000000E+000	0.0000000E+000	-89.6986	0.0000000E+000	0.0000000E+000	0.0000000E+000	-0.301408	0.0000000E+000	0.0000000E+000	0.0000000E+000	0.301408	190.092	89.6986	-2.23267e-07
3311.06	5.08527	0.0384648	5.08542	-0.433375	207.705	0.449545	0.0163467	1249.65	0.0714929	1	10	0.0109085	0.00214506	0	5.12842e-05	0.196635	0.00148734	0.196641	0.433375	71.4926	9451.79	9452.06	-89.5666	0.0000000E+000	0.0000000E+000	0.0000000E+000	89.5666	0.0000000E+000	0.0000000E+000	0.0000000E+000	-89.5666	0.0000000E+000	0.0000000E+000	0.0000000E+000	-0.433375	0.0000000E+000	0.0000000E+000	0.0000000E+000	0.433375	132.206	89.5666	3.50057e-06
2250.72	5.09331	0.0536044	5.09359	-0.602986	208.392	0.449546	0.0176145	1319.16	0.1461	1	10	0.0101604	0.00199474	0	5.21343e-05	0.196314	0.00206611	0.196325	0.602986	146.101	13882	13882.7	-89.397	0.0000000E+000	0.0000000E+000	0.0000000E+000	89.397	0.0000000E+000	0.0000000E+000	0.0000000E+000	-89.397	0.0000000E+000	0.0000000E+000	0.0000000E+000	-0.602986	0.0000000E+000	0.0000000E+000	0.0000000E+000	0.602986	95.0165	89.397	8.50129e-07
1530.49	5.09738	0.0745482	5.09792	-0.83788	208.857	0.449548	0.0176257	1394.93	0.298291	1	10	0.0103513	0.0020305	0	5.33464e-05	0.196137	0.00286847	0.196158	0.83788	298.292	20396.2	20398.4	-89.1621	0.0000000E+000	0.0000000E+000	0.0000000E+000	89.1621	0.0000000E+000	0.0000000E+000	0.0000000E+000	-89.1621	0.0000000E+000	0.0000000E+000	0.0000000E+000	-0.83788	0.0000000E+000	0.0000000E+000	0.0000000E+000	0.83788	68.377	89.1621	1.2121e-06
1040.33	5.10363	0.104305	5.10469	-1.17082	209.322	0.449551	0.0169042	1466.7	0.612371	1	10	0.0104486	0.00204686	0	5.73782e-05	0.195857	0.00400283	0.195898	1.17082	612.369	29963.2	29969.4	-88.8292	0.0000000E+000	0.0000000E+000	0.0000000E+000	88.8292	0.0000000E+000	0.0000000E+000	0.0000000E+000	-88.8292	0.0000000E+000	0.0000000E+000	0.0000000E+000	-1.17082	0.0000000E+000	0.0000000E+000	0.0000000E+000	1.17082	48.9297	88.8292	4.0318e-06
707.036	5.10973	0.148922	5.1119	-1.6694	209.787	0.449545	0.0178252	1511.54	1.28284	1	10	0.0104936	0.00205278	0	5.83469e-05	0.195539	0.00569894	0.195622	1.6694	1282.84	44016.1	44034.8	-88.3306	0.0000000E+000	0.0000000E+000	0.0000000E+000	88.3306	0.0000000E+000	0.0000000E+000	0.0000000E+000	-88.3306	0.0000000E+000	0.0000000E+000	0.0000000E+000	-1.6694	0.0000000E+000	0.0000000E+000	0.0000000E+000	1.6694	34.3115	88.3306	9.68694e-07
480.769	5.11912	0.206974	5.1233	-2.31529	210.252	0.44954	0.0155151	1599.44	2.61035	1	10	0.010518	0.00205297	0	5.93861e-05	0.195027	0.00788525	0.195187	2.31529	2610.35	64562.3	64615	-87.6847	0.0000000E+000	0.0000000E+000	0.0000000E+000	87.6847	0.0000000E+000	0.0000000E+000	0.0000000E+000	-87.6847	0.0000000E+000	0.0000000E+000	0.0000000E+000	-2.31529	0.0000000E+000	0.0000000E+000	0.0000000E+000	2.31529	24.7332	87.6847	1.03923e-06
326.778	5.13141	0.294127	5.13984	-3.28054	210.715	0.449541	0.0176556	1655.89	5.42256	1	10	0.0105312	0.00204893	0	6.08683e-05	0.19424	0.0111336	0.194559	3.28054	5422.55	94603.2	94758.5	-86.7195	0.0000000E+000	0.0000000E+000	0.0000000E+000	86.7195	0.0000000E+000	0.0000000E+000	0.0000000E+000	-86.7195	0.0000000E+000	0.0000000E+000	0.0000000E+000	-3.28054	0.0000000E+000	0.0000000E+000	0.0000000E+000	3.28054	17.4462	86.7195	1.48223e-06
222.061	5.14459	0.42063	5.16176	-4.6742	211.177	0.449539	0.0152764	1703.92	11.315	1	10	0.0105331	0.0020406	0	6.34673e-05	0.193088	0.0157872	0.193733	4.6742	11315	138390	138852	-85.3258	0.0000000E+000	0.0000000E+000	0.0000000E+000	85.3258	0.0000000E+000	0.0000000E+000	0.0000000E+000	-85.3258	0.0000000E+000	0.0000000E+000	0.0000000E+000	-4.6742	0.0000000E+000	0.0000000E+000	0.0000000E+000	4.6742	12.2307	85.3258	2.59892e-06
151.015	5.16718	0.59246	5.20104	-6.54087	211.638	0.449541	0.0170142	1778.86	23.0823	1	10	0.0105406	0.00202664	0	6.55849e-05	0.191018	0.0219018	0.192269	6.54087	23082.3	201314	202633	-83.4591	0.0000000E+000	0.0000000E+000	0.0000000E+000	83.4591	0.0000000E+000	0.0000000E+000	0.0000000E+000	-83.4591	0.0000000E+000	0.0000000E+000	0.0000000E+000	-6.54087	0.0000000E+000	0.0000000E+000	0.0000000E+000	6.54087	8.72158	83.4591	2.11764e-06
102.667	5.19488	0.841651	5.26262	-9.20284	212.113	0.449548	0.0179707	1841.86	47.1103	1	10	0.0105441	0.00200358	0	6.93904e-05	0.187573	0.0303898	0.190019	9.20284	47110.3	290776	294568	-80.7972	0.0000000E+000	0.0000000E+000	0.0000000E+000	80.7972	0.0000000E+000	0.0000000E+000	0.0000000E+000	-80.7972	0.0000000E+000	0.0000000E+000	0.0000000E+000	-9.20284	0.0000000E+000	0.0000000E+000	0.0000000E+000	9.20284	6.17225	80.7972	3.80554e-06
69.7545	5.22608	1.19825	5.36169	-12.9137	212.58	0.449543	0.0154554	1904.15	95.1026	1	10	0.0105438	0.00196651	0	7.2949e-05	0.181791	0.0416816	0.186508	12.9137	95102.6	414783	425546	-77.0863	0.0000000E+000	0.0000000E+000	0.0000000E+000	77.0863	0.0000000E+000	0.0000000E+000	0.0000000E+000	-77.0863	0.0000000E+000	0.0000000E+000	0.0000000E+000	-12.9137	0.0000000E+000	0.0000000E+000	0.0000000E+000	12.9137	4.36143	77.0863	3.55853e-06
47.4443	5.27626	1.71538	5.5481	-18.01	213.024	0.449536	0.016921	1955.58	186.942	1	10	0.010556	0.00190264	0	7.63992e-05	0.17141	0.0557277	0.180242	18.01	186942	575007	604632	-71.99	0.0000000E+000	0.0000000E+000	0.0000000E+000	71.99	0.0000000E+000	0.0000000E+000	0.0000000E+000	-71.99	0.0000000E+000	0.0000000E+000	0.0000000E+000	-18.01	0.0000000E+000	0.0000000E+000	0.0000000E+000	18.01	3.07586	71.99	3.45019e-06
32.2387	5.3286	2.46778	5.8723	-24.8498	213.461	0.449537	0.0156382	2000.49	353.291	1	10	0.0105616	0.00179854	0	7.67032e-05	0.154524	0.0715631	0.170291	24.8498	353291	762852	840688	-65.1502	0.0000000E+000	0.0000000E+000	0.0000000E+000	65.1502	0.0000000E+000	0.0000000E+000	0.0000000E+000	-65.1502	0.0000000E+000	0.0000000E+000	0.0000000E+000	-24.8498	0.0000000E+000	0.0000000E+000	0.0000000E+000	24.8498	2.15927	65.1502	3.03988e-07
21.9144	5.39244	3.54729	6.45459	-33.338	213.892	0.44953	0.0129961	2047.35	618.372	1	10	0.0105662	0.00163701	0	8.20504e-05	0.129434	0.0851451	0.154929	33.338	618372	940022	1.12518e+06	-56.662	0.0000000E+000	0.0000000E+000	0.0000000E+000	56.662	0.0000000E+000	0.0000000E+000	0.0000000E+000	-56.662	0.0000000E+000	0.0000000E+000	0.0000000E+000	-33.338	0.0000000E+000	0.0000000E+000	0.0000000E+000	33.338	1.52016	56.662	5.34725e-06
14.9093	5.48827	5.22402	7.57703	-43.5869	214.36	0.449546	0.017402	2043.42	971.332	1	10	0.010572	0.00139527	0	8.59376e-05	0.0955954	0.0909926	0.131978	43.5869	971332	1.02047e+06	1.40884e+06	-46.4131	0.0000000E+000	0.0000000E+000	0.0000000E+000	46.4131	0.0000000E+000	0.0000000E+000	0.0000000E+000	-46.4131	0.0000000E+000	0.0000000E+000	0.0000000E+000	-43.5869	0.0000000E+000	0.0000000E+000	0.0000000E+000	43.5869	1.05058	46.4131	3.88724e-06
10.1329	5.61615	7.43463	9.31745	-52.9324	214.819	0.449533	0.0152951	2112.64	1345.08	1	10	0.0105768	0.00113516	0	8.95508e-05	0.0646911	0.0856377	0.107325	52.9324	1.34508e+06	1.01608e+06	1.68573e+06	-37.0676	0.0000000E+000	0.0000000E+000	0.0000000E+000	37.0676	0.0000000E+000	0.0000000E+000	0.0000000E+000	-37.0676	0.0000000E+000	0.0000000E+000	0.0000000E+000	-52.9324	0.0000000E+000	0.0000000E+000	0.0000000E+000	52.9324	0.755404	37.0676	3.61312e-06
6.88933	5.73988	10.8152	12.2439	-62.044	215.372	0.449544	1.55245e-06	2136.04	1666.61	1	11	0.0105849	0.000864499	0	9.14474e-05	0.0382879	0.0721425	0.0816731	62.044	1.66661e+06	884513	1.88678e+06	-27.956	0.0000000E+000	0.0000000E+000	0.0000000E+000	27.956	0.0000000E+000	0.0000000E+000	0.0000000E+000	-27.956	0.0000000E+000	0.0000000E+000	0.0000000E+000	-62.044	0.0000000E+000	0.0000000E+000	0.0000000E+000	62.044	0.530726	27.956	1.89662e-06
4.68375	5.98943	15.7247	16.8267	-69.1484	215.869	0.449554	0.00168737	2160.95	1887.16	1	11	0.0105822	0.000628895	0	9.61352e-05	0.0211538	0.0555371	0.0594293	69.1484	1.88716e+06	718809	2.01942e+06	-20.8516	0.0000000E+000	0.0000000E+000	0.0000000E+000	20.8516	0.0000000E+000	0.0000000E+000	0.0000000E+000	-20.8516	0.0000000E+000	0.0000000E+000	0.0000000E+000	-69.1484	0.0000000E+000	0.0000000E+000	0.0000000E+000	69.1484	0.380894	20.8516	4.6878e-06
3.18099	6.24267	23.0162	23.8478	-74.8248	216.572	0.449553	0.00142679	2173.82	2024.86	1	11	0.010583	0.000443772	0	8.85252e-05	0.0109768	0.0404704	0.0419326	74.8248	2.02486e+06	549202	2.09802e+06	-15.1752	0.0000000E+000	0.0000000E+000	0.0000000E+000	15.1752	0.0000000E+000	0.0000000E+000	0.0000000E+000	-15.1752	0.0000000E+000	0.0000000E+000	0.0000000E+000	-74.8248	0.0000000E+000	0.0000000E+000	0.0000000E+000	74.8248	0.271229	15.1752	-7.61004e-06
2.16533	6.69203	33.3618	34.0263	-78.6576	217.583	0.449562	0.00268468	2203.17	2117.95	1	11	0.0105764	0.00031083	0	8.73297e-05	0.00577999	0.028815	0.029389	78.6576	2.11795e+06	424838	2.16014e+06	-11.3424	0.0000000E+000	0.0000000E+000	0.0000000E+000	11.3424	0.0000000E+000	0.0000000E+000	0.0000000E+000	-11.3424	0.0000000E+000	0.0000000E+000	0.0000000E+000	-78.6576	0.0000000E+000	0.0000000E+000	0.0000000E+000	78.6576	0.20059	11.3424	-1.19548e-06
1.46962	7.3187	48.8285	49.3739	-81.4756	219.783	0.449559	0.000279471	2217.9	2169.17	1	12	0.0105786	0.000214255	0	9.39602e-05	0.0030022	0.0200299	0.0202536	81.4756	2.16917e+06	325128	2.1934e+06	-8.52438	0.0000000E+000	0.0000000E+000	0.0000000E+000	8.52438	0.0000000E+000	0.0000000E+000	0.0000000E+000	-8.52438	0.0000000E+000	0.0000000E+000	0.0000000E+000	-81.4756	0.0000000E+000	0.0000000E+000	0.0000000E+000	81.4756	0.149886	8.52438	6.63056e-06
1.00006	8.25247	70.7972	71.2766	-83.3513	221.923	0.449562	0.000604103	2247.9	2217.76	1	12	0.0105799	0.000148434	0	9.77714e-05	0.00162439	0.0139355	0.0140299	83.3513	2.21776e+06	258513	2.23278e+06	-6.64867	0.0000000E+000	0.0000000E+000	0.0000000E+000	6.64867	0.0000000E+000	0.0000000E+000	0.0000000E+000	-6.64867	0.0000000E+000	0.0000000E+000	0.0000000E+000	-83.3513	0.0000000E+000	0.0000000E+000	0.0000000E+000	83.3513	0.116565	6.64868	3.81121e-06