File: ACS_Catal_2026/Figures_Na_K/main_figures/data/EC/20251112_2-148_alpha_reproducibility/20251112_2-148_004_Na_first_2_Na1_01_CVA_C02.mpt
EC-Lab ASCII FILE
Nb header lines : 66

Cyclic Voltammetry Advanced

Run on channel : 2 (SN 69290)
User :
CE vs. WE compliance from -10 V to 10 V
Electrode connection : standard
Potential control : Ewe
Ewe ctrl range : min = -1.00 V, max = 1.00 V
Safety Limits :
	Do not start on E overload
Acquisition started on : 11/12/2025 15:49:31.265
Loaded Setting File :  C:\Users\User\Documents\EC-Lab\Data\Yatsuzuka\20251112_2-148_alpha_reproducibility\20251112_2-148_002_alpha_reproducibility_2_K1.mps
Saved on :
	File : 20251112_2-148_004_Na_first_2_Na1_01_CVA_C02.mpr
	Directory : C:\Users\User\Documents\EC-Lab\Data\Yatsuzuka\20251112_2-148_alpha_reproducibility\
	Host : 192.109.209.127
Device : SP-150e (SN .003883)
Address : 192.109.209.128
EC-Lab for windows v11.52 (software)
Internet server v11.52 (firmware)
Command interpretor v11.50 (firmware)
Electrode material :
Initial state :
Electrolyte :
Comments :
Electrode surface area : 0.001 cm2
Characteristic mass : 0.001 g
Equivalent Weight : 0.000 g/eq.
Density : 0.000 g/cm3
Volume (V) : 0.001 cm3
Cycle Definition : Charge/Discharge alternance
Ei (V)              0.350
vs.                 Ref
ti (h:m:s)          0:00:10.0000
dti (s)             0.0000
dE/dt               10.000
dE/dt unit          mV/s
E1 (V)              0.450
vs.                 Ref
t1 (h:m:s)          0:00:0.0000
dt1 (s)             0.1000
Step percent        50
N                   10
E range min (V)     -1.000
E range max (V)     1.000
I Range             Auto
I Range min         Unset
I Range max         Unset
I Range init        Unset
Bandwidth           5
E2 (V)              0.350
vs.                 Ref
t2 (h:m:s)          0:00:0.0000
dt2 (s)             0.1000
nc cycles           9
nr                  1
Reverse Scan        0
Ef (V)              0.000
vs.                 Eoc
tf (h:m:s)          0:00:0.0000
dtf (s)             0.1000

mode	ox/red	error	control changes	Ns changes	counter inc.	time/s	control/V	Ewe/V	<I>/mA	cycle number	(Q-Qo)/C	I Range	Ns	step time/s	P/W
2	1	1	1	0	0	0.000000000000000E+000	0.349989	0.349459	0.0189172	1	0.0000000E+000	13	0	0.000000000000000E+000	6.61079e-06
2	1	0	1	0	0	0.3571	0.35356	0.353093	0.0656528	1	2.44347e-05	12	0	0.3146	2.31815e-05
2	1	0	1	0	0	0.7067	0.357056	0.356558	0.0672725	1	4.99974e-05	12	0	0.6642	2.39866e-05
2	1	0	1	0	0	1.0563	0.360551	0.360103	0.0791888	1	7.60626e-05	12	0	1.0138	2.85162e-05
2	1	0	1	0	0	1.4059	0.364047	0.363549	0.0847829	1	0.000102687	12	0	1.3634	3.08227e-05
2	1	0	1	0	0	1.7555	0.367543	0.367048	0.0755237	1	0.000129618	12	0	1.713	2.77208e-05
2	1	0	1	0	0	2.1051	0.371039	0.370567	0.0703611	1	0.000156779	12	0	2.0626	2.60735e-05
2	1	0	1	0	0	2.4547	0.374535	0.374049	0.0776527	1	0.000184207	12	0	2.4122	2.90459e-05
2	1	0	1	0	0	2.8043	0.378031	0.377532	0.0883009	1	0.000212077	12	0	2.7618	3.33364e-05
2	1	0	1	0	0	3.1539	0.381527	0.381074	0.0849193	1	0.000240287	12	0	3.1114	3.23606e-05
2	1	0	1	0	0	3.5035	0.385022	0.384508	0.0739667	1	0.000268625	12	0	3.461	2.84408e-05
2	1	0	1	0	0	3.853	0.388517	0.388044	0.0804527	1	0.000297164	12	0	3.8105	3.12192e-05
2	1	0	1	0	0	4.2026	0.392014	0.391494	0.090483	1	0.000326035	12	0	4.1601	3.54236e-05
2	1	0	1	0	0	4.5522	0.39551	0.395023	0.0877131	1	0.000355245	12	0	4.5097	3.46487e-05
2	1	0	1	0	0	4.9018	0.399007	0.398481	0.0776014	1	0.000384479	12	0	4.8593	3.09227e-05
2	1	0	1	0	0	5.2513	0.402502	0.402042	0.078694	1	0.000413868	12	0	5.2088	3.16383e-05
2	1	0	1	0	0	5.6009	0.405998	0.405506	0.0900704	1	0.000443436	12	0	5.5584	3.65241e-05
2	1	0	1	0	0	5.9505	0.409493	0.408997	0.0931276	1	0.000473209	12	0	5.908	3.80889e-05
2	1	0	1	0	0	6.3001	0.412989	0.412468	0.0827736	1	0.000503138	12	0	6.2576	3.41415e-05
2	1	0	1	0	0	6.6497	0.416485	0.415975	0.0783911	1	0.000533143	12	0	6.6072	3.26088e-05
2	1	0	1	0	0	6.9993	0.419981	0.419478	0.0860345	1	0.000563194	12	0	6.9568	3.60896e-05
2	1	0	1	0	0	7.3489	0.423477	0.422991	0.095	1	0.000593543	12	0	7.3064	4.01842e-05
2	1	0	1	0	0	7.6985	0.426973	0.426475	0.0892497	1	0.000623975	12	0	7.656	3.80628e-05
2	1	0	1	0	0	8.0481	0.430469	0.430005	0.0799633	1	0.000654474	12	0	8.0056	3.43846e-05
2	1	0	1	0	0	8.3977	0.433964	0.433508	0.0827964	1	0.000684986	12	0	8.3552	3.58929e-05
2	1	0	1	0	0	8.7472	0.437459	0.436982	0.0943102	1	0.000715703	12	0	8.7047	4.12119e-05
2	1	0	1	0	0	9.0968	0.440956	0.440483	0.0943094	1	0.000746594	12	0	9.0543	4.15417e-05
2	1	0	1	0	0	9.4464	0.444452	0.443979	0.084951	1	0.000777526	12	0	9.4039	3.77165e-05
2	1	0	1	0	0	9.796	0.447949	0.447416	0.0806394	1	0.000808421	12	0	9.7535	3.60793e-05
2	1	0	1	0	0	10.0763	0.449246	0.448751	0.0257773	1	0.000829671	12	0	10.0338	1.15676e-05
2	1	0	1	0	0	10.4559	0.445451	0.444933	0.00539962	1	0.000836111	13	0	10.4134	2.40247e-06
2	1	0	1	0	0	10.8055	0.441955	0.441493	0.0107449	1	0.000839444	13	0	10.763	4.74379e-06
2	0	0	1	0	0	11.1551	0.438459	0.437895	0.00988786	1	0.000840945	13	0	11.1126	4.32984e-06
2	0	0	1	0	0	11.5047	0.434963	0.434417	-0.00294727	1	0.000840844	13	0	0.0999	-1.28034e-06
2	0	0	1	0	0	11.8543	0.431467	0.430934	-0.0152017	1	0.000839319	13	0	0.4495	-6.55094e-06
2	1	0	1	0	0	12.2039	0.427972	0.427481	-0.0118512	1	0.000836597	13	0	0.7991	-5.06617e-06
2	0	0	1	0	0	12.5535	0.424476	0.423937	-0.00410463	1	0.000832986	13	0	1.1487	-1.7401e-06
2	0	0	1	0	0	12.903	0.42098	0.420436	-0.00798035	1	0.000828596	13	0	1.4982	-3.35523e-06
2	0	0	1	0	0	13.2526	0.417484	0.416927	-0.021432	1	0.000823336	13	0	1.8478	-8.93557e-06
2	0	0	1	0	0	13.6022	0.413987	0.413433	-0.0266667	1	0.000817224	13	0	2.1974	-1.10249e-05
2	0	0	1	0	0	13.9517	0.410492	0.410001	-0.0183157	1	0.000810479	13	0	2.5469	-7.50946e-06
2	0	0	1	0	0	14.3013	0.406996	0.406465	-0.012195	1	0.000803297	13	0	2.8965	-4.95685e-06
2	0	0	1	0	0	14.6509	0.403501	0.402985	-0.0216804	1	0.000795521	13	0	3.2461	-8.7369e-06
2	0	0	1	0	0	15.0005	0.400005	0.399471	-0.0332995	1	0.000787019	13	0	3.5957	-1.33022e-05
2	0	0	1	0	0	15.3501	0.396509	0.39603	-0.0312194	1	0.000777984	13	0	3.9453	-1.23638e-05
2	0	0	1	0	0	15.6997	0.393013	0.392495	-0.021405	1	0.000768497	13	0	4.2949	-8.40136e-06
2	0	0	1	0	0	16.0493	0.389517	0.388977	-0.0217158	1	0.00075871	13	0	4.6445	-8.44696e-06
2	0	0	1	0	0	16.3989	0.386021	0.385511	-0.0351328	1	0.000748352	13	0	4.9941	-1.35441e-05
2	0	0	1	0	0	16.7485	0.382525	0.382004	-0.0399851	1	0.000737504	13	0	5.3437	-1.52744e-05
2	0	0	1	0	0	17.0981	0.37903	0.378521	-0.0308693	1	0.000726234	13	0	5.6933	-1.16847e-05
2	0	0	1	0	0	17.4477	0.375534	0.374991	-0.0246684	1	0.000714717	13	0	6.0429	-9.25043e-06
2	0	0	1	0	0	17.7972	0.372039	0.371537	-0.0336601	1	0.000702807	13	0	6.3924	-1.2506e-05
2	0	0	1	0	0	18.1468	0.368542	0.368027	-0.0446219	1	0.000690385	13	0	6.742	-1.6422e-05
2	0	0	1	0	0	18.4964	0.365046	0.364579	-0.0418231	1	0.000677523	13	0	7.0916	-1.52478e-05
2	0	0	1	0	0	18.8459	0.36155	0.361055	-0.0304241	1	0.000664394	13	0	7.4411	-1.09848e-05
2	0	0	1	0	0	19.1955	0.358054	0.357527	-0.0330653	1	0.000650965	13	0	7.7907	-1.18217e-05
2	0	0	1	0	0	19.5451	0.354559	0.354053	-0.0455516	1	0.000637175	13	0	8.1403	-1.61277e-05
2	0	0	1	0	0	19.8947	0.351063	0.350579	-0.0497403	1	0.000622821	13	0	8.4899	-1.74379e-05
2	1	0	1	0	1	20.161	0.351612	0.351138	0.0498616	2	0.000622959	12	0	0.1149	1.75083e-05
2	1	0	1	0	1	20.5405	0.355408	0.354961	0.0458607	2	0.000640496	13	0	0.4944	1.62788e-05
2	1	0	1	0	1	20.8901	0.358903	0.358455	0.0568486	2	0.000657345	13	0	0.844	2.03777e-05
2	1	0	1	0	1	21.2397	0.362399	0.361881	0.0553081	2	0.000674541	13	0	1.1936	2.00149e-05
2	1	0	1	0	1	21.5893	0.365895	0.36539	0.0435985	2	0.000691781	13	0	1.5432	1.59305e-05
2	1	0	1	0	1	21.9389	0.369391	0.368914	0.041642	2	0.000708947	13	0	1.8928	1.53623e-05
2	1	0	1	0	1	22.2885	0.372887	0.372422	0.0519346	2	0.000726167	13	0	2.2424	1.93416e-05
2	1	0	1	0	1	22.6381	0.376383	0.375935	0.0584594	2	0.000743546	13	0	2.592	2.19769e-05
2	1	0	1	0	1	22.9877	0.379879	0.379341	0.0473442	2	0.00076088	13	0	2.9416	1.79596e-05
2	1	0	1	0	1	23.3373	0.383374	0.382901	0.0403876	2	0.000778069	13	0	3.2912	1.54645e-05
2	1	0	1	0	1	23.6868	0.386869	0.386367	0.050835	2	0.000795261	13	0	3.6407	1.9641e-05
2	1	0	1	0	1	24.0364	0.390366	0.389898	0.0588643	2	0.000812642	13	0	3.9903	2.29511e-05
2	1	0	1	0	1	24.386	0.393862	0.393368	0.0478572	2	0.000830026	13	0	4.3399	1.88255e-05
2	1	0	1	0	1	24.7356	0.397359	0.39687	0.0411819	2	0.000847322	13	0	4.6895	1.63439e-05
2	1	0	1	0	1	25.0851	0.400854	0.400427	0.0501049	2	0.000864612	13	0	5.039	2.00633e-05
2	1	0	1	0	1	25.4347	0.40435	0.403883	0.0591648	2	0.000882146	13	0	5.3886	2.38956e-05
2	1	0	1	0	1	25.7843	0.407845	0.407323	0.0495295	2	0.000899711	13	0	5.7382	2.01745e-05
2	1	0	1	0	1	26.1339	0.411341	0.41082	0.041583	2	0.000917232	13	0	6.0878	1.70831e-05
2	1	0	1	0	1	26.4835	0.414837	0.414341	0.0486716	2	0.000934876	13	0	6.4374	2.01666e-05
2	1	0	1	0	1	26.8331	0.418333	0.417802	0.0598608	2	0.000952754	13	0	6.787	2.501e-05
2	1	0	1	0	1	27.1827	0.421829	0.421321	0.0565423	2	0.000970883	13	0	7.1366	2.38225e-05
2	1	0	1	0	1	27.5323	0.425325	0.424827	0.047003	2	0.000989068	13	0	7.4862	1.99681e-05
2	1	0	1	0	1	27.8819	0.428821	0.428333	0.0442482	2	0.00100736	13	0	7.8358	1.8953e-05
2	1	0	1	0	1	28.2315	0.432316	0.431843	0.0550347	2	0.00102588	13	0	8.1854	2.37664e-05
2	1	0	1	0	1	28.581	0.435811	0.435268	0.0630399	2	0.00104473	13	0	8.5349	2.74393e-05
2	1	0	1	0	1	28.9306	0.439308	0.438764	0.0583879	2	0.0010639	13	0	8.8845	2.56185e-05
2	1	0	1	0	1	29.2802	0.442804	0.442267	0.0484234	2	0.00108326	13	0	9.2341	2.14161e-05
2	1	0	1	0	1	29.6298	0.446301	0.445823	0.0501104	2	0.00110284	13	0	9.5837	2.23403e-05
2	1	0	1	0	1	29.9768	0.449771	0.449343	0.0637786	2	0.0011227	13	0	9.9307	2.86584e-05
2	0	0	1	0	1	30.3047	0.446949	0.446421	-0.0107069	2	0.00112377	12	0	0.1648	-4.77981e-06
2	0	0	1	0	1	30.6843	0.443154	0.442567	-0.0069172	2	0.00112063	13	0	0.5444	-3.06133e-06
2	0	0	1	0	1	31.0339	0.439658	0.439121	-0.0201647	2	0.00111607	13	0	0.894	-8.85474e-06
2	0	0	1	0	1	31.3834	0.436162	0.435602	-0.0247137	2	0.00111055	13	0	1.2435	-1.07653e-05
2	1	0	1	0	1	31.733	0.432666	0.432162	-0.0171158	2	0.00110439	13	0	1.5931	-7.39681e-06
2	0	0	1	0	1	32.0826	0.429169	0.428656	-0.0116334	2	0.00109768	13	0	1.9427	-4.98671e-06
2	0	0	1	0	1	32.4321	0.425674	0.425107	-0.0173386	2	0.00109047	13	0	2.2922	-7.37076e-06
2	0	0	1	0	1	32.7817	0.422178	0.421604	-0.0287319	2	0.00108267	13	0	2.6418	-1.21135e-05
2	0	0	1	0	1	33.1313	0.418683	0.418142	-0.0324733	2	0.00107431	13	0	2.9914	-1.35784e-05
2	0	0	1	0	1	33.4809	0.415187	0.414688	-0.0235816	2	0.00106556	13	0	3.341	-9.77899e-06
2	0	0	1	0	1	33.8305	0.411691	0.411111	-0.0176992	2	0.00105652	13	0	3.6906	-7.27634e-06
2	0	0	1	0	1	34.1801	0.408195	0.407634	-0.0237126	2	0.00104713	13	0	4.0402	-9.66607e-06
2	0	0	1	0	1	34.5297	0.404699	0.404134	-0.0345638	2	0.0010374	13	0	4.3898	-1.39684e-05
2	0	0	1	0	1	34.8793	0.401203	0.400738	-0.0379222	2	0.00102713	13	0	4.7394	-1.51969e-05
2	0	0	1	0	1	35.2289	0.397707	0.397222	-0.0297213	2	0.00101656	13	0	5.089	-1.18059e-05
2	0	0	1	0	1	35.5785	0.394212	0.393682	-0.0226041	2	0.00100573	13	0	5.4386	-8.89884e-06
2	0	0	1	0	1	35.9281	0.390716	0.390204	-0.0273234	2	0.000994657	13	0	5.7882	-1.06617e-05
2	0	0	1	0	1	36.2776	0.38722	0.386695	-0.0385473	2	0.000983151	13	0	6.1377	-1.4906e-05
2	0	0	1	0	1	36.6272	0.383724	0.383218	-0.0430401	2	0.000971274	13	0	6.4873	-1.64938e-05
2	0	0	1	0	1	36.9768	0.380228	0.379743	-0.0351172	2	0.000959086	13	0	6.8369	-1.33355e-05
2	0	0	1	0	1	37.3263	0.376732	0.37624	-0.0273315	2	0.00094671	13	0	7.1864	-1.02832e-05
2	0	0	1	0	1	37.6759	0.373237	0.372754	-0.0321075	2	0.000934027	13	0	7.536	-1.19682e-05
2	0	0	1	0	1	38.0255	0.369741	0.369226	-0.0436926	2	0.000920997	13	0	7.8856	-1.61325e-05
2	0	0	1	0	1	38.3751	0.366245	0.365729	-0.0470613	2	0.000907513	13	0	8.2352	-1.72117e-05
2	0	0	1	0	1	38.7247	0.362749	0.362283	-0.0393775	2	0.000893763	13	0	8.5848	-1.42658e-05
2	0	0	1	0	1	39.0743	0.359253	0.358765	-0.0315361	2	0.000879789	13	0	8.9344	-1.13141e-05
2	0	0	1	0	1	39.4239	0.355757	0.355269	-0.0363142	2	0.00086559	13	0	9.284	-1.29013e-05
2	0	0	1	0	1	39.7735	0.352261	0.351737	-0.0481415	2	0.000850946	13	0	9.6336	-1.69331e-05
2	0	0	1	0	0	40.0447	0.350463	0.349993	0.017012	3	0.000841575	13	0	0.000000000000000E+000	5.95408e-06
2	1	0	1	0	0	40.4093	0.354109	0.353615	0.0360888	3	0.000855863	12	0	0.3646	1.27615e-05
2	1	0	1	0	0	40.7889	0.357905	0.357421	0.0365269	3	0.000872809	13	0	0.7442	1.30555e-05
2	1	0	1	0	0	41.1385	0.3614	0.36096	0.0387678	3	0.000888389	13	0	1.0938	1.39936e-05
2	1	0	1	0	0	41.488	0.364895	0.364436	0.0489679	3	0.00090412	13	0	1.4433	1.78457e-05
2	1	0	1	0	0	41.8376	0.368392	0.367916	0.0545224	3	0.000919984	13	0	1.7929	2.00597e-05
2	1	0	1	0	0	42.1872	0.371888	0.371413	0.0485157	3	0.00093584	13	0	2.1425	1.80194e-05
2	1	0	1	0	0	42.5368	0.375385	0.374892	0.0379842	3	0.000951581	13	0	2.4921	1.424e-05
2	1	0	1	0	0	42.8863	0.37888	0.378418	0.0371135	3	0.000967192	13	0	2.8416	1.40444e-05
2	1	0	1	0	0	43.2359	0.382376	0.381923	0.046833	3	0.000982795	13	0	3.1912	1.78866e-05
2	1	0	1	0	0	43.5855	0.385871	0.385415	0.0533944	3	0.000998432	13	0	3.5408	2.0579e-05
2	1	0	1	0	0	43.9351	0.389367	0.388824	0.0481039	3	0.00101413	13	0	3.8904	1.87039e-05
2	1	0	1	0	0	44.2847	0.392863	0.392365	0.0375718	3	0.00102964	13	0	4.24	1.47418e-05
2	1	0	1	0	0	44.6343	0.396359	0.395881	0.0364066	3	0.0010451	13	0	4.5896	1.44127e-05
2	1	0	1	0	0	44.9839	0.399855	0.399382	0.0457733	3	0.00106052	13	0	4.9392	1.8281e-05
2	1	0	1	0	0	45.3335	0.403351	0.402861	0.0526977	3	0.0010761	13	0	5.2888	2.12299e-05
2	1	0	1	0	0	45.6831	0.406847	0.406373	0.0494971	3	0.00109168	13	0	5.6384	2.01143e-05
2	1	0	1	0	0	46.0327	0.410342	0.409806	0.0394418	3	0.00110715	13	0	5.988	1.61635e-05
2	1	0	1	0	0	46.3823	0.413838	0.41334	0.0358011	3	0.00112263	13	0	6.3376	1.4798e-05
2	1	0	1	0	0	46.7318	0.417334	0.416872	0.0436279	3	0.00113819	13	0	6.6871	1.81872e-05
2	1	0	1	0	0	47.0814	0.42083	0.42035	0.0529314	3	0.00115389	13	0	7.0367	2.22497e-05
2	1	0	1	0	0	47.431	0.424327	0.423853	0.0523844	3	0.00116977	13	0	7.3863	2.22033e-05
2	1	0	1	0	0	47.7805	0.427822	0.42731	0.0437645	3	0.0011857	13	0	7.7358	1.8701e-05
2	1	0	1	0	0	48.1301	0.431318	0.430792	0.0373863	3	0.00120167	13	0	8.0854	1.61057e-05
2	1	0	1	0	0	48.4797	0.434813	0.434287	0.0404044	3	0.00121773	13	0	8.435	1.75471e-05
2	1	0	1	0	0	48.8293	0.438309	0.437834	0.0492193	3	0.00123401	13	0	8.7846	2.15499e-05
2	1	0	1	0	0	49.1789	0.441805	0.441339	0.0559664	3	0.00125057	13	0	9.1342	2.47002e-05
2	1	0	1	0	0	49.5285	0.445301	0.444798	0.0539727	3	0.00126737	13	0	9.4838	2.4007e-05
2	1	0	1	0	0	49.8781	0.448797	0.448282	0.0450113	3	0.00128436	13	0	9.8334	2.01778e-05
2	1	0	1	0	0	50.2034	0.447948	0.447456	-0.009899	3	0.00128861	12	0	0.1299	-4.42936e-06
2	1	0	1	0	0	50.5829	0.444152	0.443636	-0.0233606	3	0.00128224	13	0	0.5094	-1.03636e-05
2	0	0	1	0	0	50.9325	0.440657	0.440135	-0.0165057	3	0.001276	13	0	0.859	-7.26473e-06
2	0	0	1	0	0	51.2821	0.437161	0.436575	-0.0118325	3	0.00126919	13	0	1.2086	-5.16579e-06
2	0	0	1	0	0	51.6317	0.433665	0.433118	-0.016802	3	0.00126184	13	0	1.5582	-7.27723e-06
2	0	0	1	0	0	51.9813	0.430169	0.42966	-0.0266737	3	0.00125399	13	0	1.9078	-1.14606e-05
2	0	0	1	0	0	52.3309	0.426673	0.426127	-0.0335215	3	0.00124559	13	0	2.2574	-1.42844e-05
2	0	0	1	0	0	52.6805	0.423177	0.422671	-0.0298446	3	0.0012368	13	0	2.607	-1.26145e-05
2	0	0	1	0	0	53.0301	0.419681	0.419171	-0.0220365	3	0.00122767	13	0	2.9566	-9.23706e-06
2	0	0	1	0	0	53.3797	0.416186	0.415629	-0.0187957	3	0.00121832	13	0	3.3062	-7.81203e-06
2	0	0	1	0	0	53.7293	0.41269	0.412095	-0.0242296	3	0.00120861	13	0	3.6558	-9.98492e-06
2	0	0	1	0	0	54.0788	0.409195	0.408643	-0.0345752	3	0.00119857	13	0	4.0053	-1.41289e-05
2	0	0	1	0	0	54.4284	0.405698	0.405155	-0.0392464	3	0.0011882	13	0	4.3549	-1.59009e-05
2	0	0	1	0	0	54.778	0.402202	0.40171	-0.034085	3	0.0011775	13	0	4.7045	-1.36923e-05
2	0	0	1	0	0	55.1276	0.398705	0.39818	-0.0262651	3	0.00116653	13	0	5.0541	-1.04582e-05
2	0	0	1	0	0	55.4771	0.39521	0.394678	-0.0241303	3	0.00115541	13	0	5.4036	-9.52368e-06
2	0	0	1	0	0	55.8267	0.391715	0.391171	-0.0406501	3	0.00114392	13	0	5.7532	-1.59011e-05
2	0	0	1	0	0	56.1763	0.388219	0.387717	-0.0348933	3	0.00113205	13	0	6.1028	-1.35287e-05
2	0	0	1	0	0	56.5259	0.384723	0.384172	-0.0270195	3	0.00112008	13	0	6.4524	-1.03801e-05
2	0	0	1	0	0	56.8755	0.381227	0.380711	-0.0431647	3	0.00110781	13	0	6.802	-1.64333e-05
2	0	0	1	0	0	57.2251	0.377731	0.377244	-0.0413422	3	0.00109509	13	0	7.1516	-1.55961e-05
2	0	0	1	0	0	57.5747	0.374235	0.37376	-0.0307028	3	0.00108219	13	0	7.5012	-1.14755e-05
2	0	0	1	0	0	57.9243	0.370739	0.370188	-0.0300388	3	0.00106909	13	0	7.8508	-1.112e-05
2	0	0	1	0	0	58.2739	0.367244	0.366725	-0.039326	3	0.00105568	13	0	8.2004	-1.44218e-05
2	0	0	1	0	0	58.6235	0.363748	0.363209	-0.0481673	3	0.00104188	13	0	8.55	-1.74948e-05
2	0	0	1	0	0	58.973	0.360253	0.359742	-0.0471167	3	0.00102772	13	0	8.8995	-1.69499e-05
2	0	0	1	0	0	59.3226	0.356756	0.356297	-0.0373844	3	0.00101331	13	0	9.2491	-1.33199e-05
2	0	0	1	0	0	59.6722	0.35326	0.352773	-0.0332693	3	0.000998741	13	0	9.5987	-1.17365e-05
2	0	0	1	0	0	59.9958	0.349989	0.349554	-0.0650912	3	0.000984909	13	0	9.9223	-2.27529e-05
2	1	0	1	0	1	60.308	0.353109	0.352655	0.0420585	4	0.000993588	12	0	0.1997	1.48322e-05
2	1	0	1	0	1	60.6876	0.356907	0.356456	0.0509649	4	0.00100956	13	0	0.5793	1.81667e-05
2	1	0	1	0	1	61.0371	0.360402	0.359901	0.0430483	4	0.00102459	13	0	0.9288	1.54931e-05
2	1	0	1	0	1	61.3867	0.363897	0.363422	0.035059	4	0.00103967	13	0	1.2784	1.27412e-05
2	1	0	1	0	1	61.7363	0.367393	0.366909	0.0375836	4	0.00105466	13	0	1.628	1.37898e-05
2	1	0	1	0	1	62.0859	0.370889	0.370482	0.048756	4	0.00106976	13	0	1.9776	1.80632e-05
2	1	0	1	0	1	62.4355	0.374385	0.373885	0.0515038	4	0.00108485	13	0	2.3272	1.92565e-05
2	1	0	1	0	1	62.7851	0.377881	0.377369	0.0423449	4	0.00109993	13	0	2.6768	1.59797e-05
2	1	0	1	0	1	63.1347	0.381377	0.380879	0.0341327	4	0.00111478	13	0	3.0264	1.30004e-05
2	1	0	1	0	1	63.4843	0.384873	0.384384	0.0372199	4	0.00112953	13	0	3.376	1.43067e-05
2	1	0	1	0	1	63.8339	0.388369	0.387916	0.0476402	4	0.00114428	13	0	3.7256	1.84804e-05
2	1	0	1	0	1	64.1835	0.391864	0.391418	0.0503668	4	0.00115912	13	0	4.0752	1.97145e-05
2	1	0	1	0	1	64.533	0.39536	0.394851	0.041915	4	0.00117386	13	0	4.4247	1.65502e-05
2	1	0	1	0	1	64.8826	0.398856	0.398355	0.0333782	4	0.00118847	13	0	4.7743	1.32964e-05
2	1	0	1	0	1	65.2322	0.402353	0.401872	0.0363595	4	0.001203	13	0	5.1239	1.46119e-05
2	1	0	1	0	1	65.5817	0.405848	0.405395	0.0464133	4	0.00121757	13	0	5.4734	1.88157e-05
2	1	0	1	0	1	65.9313	0.409344	0.408832	0.0508331	4	0.00123212	13	0	5.823	2.07822e-05
2	1	0	1	0	1	66.2809	0.41284	0.412305	0.0427433	4	0.00124678	13	0	6.1726	1.76233e-05
2	1	0	1	0	1	66.6305	0.416335	0.41586	0.0341359	4	0.00126134	13	0	6.5222	1.41958e-05
2	1	0	1	0	1	66.9801	0.419831	0.419354	0.0357666	4	0.00127585	13	0	6.8718	1.49989e-05
2	1	0	1	0	1	67.3297	0.423327	0.422851	0.0461922	4	0.00129048	13	0	7.2214	1.95324e-05
2	1	0	1	0	1	67.6793	0.426823	0.426335	0.0500026	4	0.00130528	13	0	7.571	2.13179e-05
2	1	0	1	0	1	68.0289	0.430319	0.429817	0.0400174	4	0.0013201	13	0	7.9206	1.72001e-05
2	1	0	1	0	1	68.3785	0.433815	0.433321	0.0334537	4	0.00133491	13	0	8.2702	1.44962e-05
2	1	0	1	0	1	68.7281	0.43731	0.436826	0.0404222	4	0.00134979	13	0	8.6198	1.76575e-05
2	1	0	1	0	1	69.0777	0.440806	0.440352	0.0500275	4	0.00136493	13	0	8.9694	2.20297e-05
2	1	0	1	0	1	69.4272	0.444302	0.443794	0.0516951	4	0.00138028	13	0	9.3189	2.2942e-05
2	1	0	1	0	1	69.7768	0.447798	0.447303	0.0422858	4	0.00139579	13	0	9.6685	1.89146e-05
2	0	0	1	0	1	70.0721	0.449246	0.448706	-0.0109355	4	0.0014057	13	0	0.000000000000000E+000	-4.90682e-06
2	0	0	1	0	1	70.4817	0.445151	0.444617	-0.0253425	4	0.00139999	13	0	0.4096	-1.12677e-05
2	0	0	1	0	1	70.8313	0.441655	0.441121	-0.016409	4	0.00139315	13	0	0.7592	-7.23834e-06
2	0	0	1	0	1	71.1809	0.438159	0.437621	-0.013466	4	0.00138573	13	0	1.1088	-5.89301e-06
2	0	0	1	0	1	71.5305	0.434664	0.434125	-0.0236487	4	0.00137787	13	0	1.4584	-1.02665e-05
2	0	0	1	0	1	71.88	0.431169	0.430644	-0.0332461	4	0.00136943	13	0	1.8079	-1.43172e-05
2	0	0	1	0	1	72.2296	0.427672	0.4272	-0.0295413	4	0.00136059	13	0	2.1575	-1.262e-05
2	0	0	1	0	1	72.5792	0.424176	0.423682	-0.0207242	4	0.00135145	13	0	2.5071	-8.78047e-06
2	0	0	1	0	1	72.9288	0.420679	0.420154	-0.0191545	4	0.00134212	13	0	2.8567	-8.04785e-06
2	0	0	1	0	1	73.2783	0.417184	0.416606	-0.0291299	4	0.00133243	13	0	3.2062	-1.21357e-05
2	0	0	1	0	1	73.6279	0.413688	0.413108	-0.0377479	4	0.00132237	13	0	3.5558	-1.5594e-05
2	0	0	1	0	1	73.9775	0.410193	0.409654	-0.0349745	4	0.00131198	13	0	3.9054	-1.43274e-05
2	0	0	1	0	1	74.3271	0.406697	0.406204	-0.0259051	4	0.00130148	13	0	4.255	-1.05227e-05
2	0	0	1	0	1	74.6767	0.403201	0.402662	-0.0226327	4	0.00129072	13	0	4.6046	-9.11333e-06
2	0	0	1	0	1	75.0263	0.399705	0.399155	-0.0307135	4	0.00127971	13	0	4.9542	-1.22595e-05
2	0	0	1	0	1	75.3759	0.396209	0.395645	-0.0411561	4	0.00126834	13	0	5.3038	-1.62832e-05
2	0	0	1	0	1	75.7255	0.392713	0.392184	-0.0401877	4	0.00125665	13	0	5.6534	-1.5761e-05
2	0	0	1	0	1	76.0751	0.389217	0.388691	-0.031422	4	0.00124475	13	0	6.003	-1.22135e-05
2	0	0	1	0	1	76.4247	0.385722	0.385212	-0.0262409	4	0.0012327	13	0	6.3526	-1.01083e-05
2	0	0	1	0	1	76.7742	0.382227	0.381682	-0.031794	4	0.00122042	13	0	6.7021	-1.21352e-05
2	0	0	1	0	1	77.1238	0.37873	0.37822	-0.0426888	4	0.00120784	13	0	7.0517	-1.61458e-05
2	0	0	1	0	1	77.4734	0.375234	0.374746	-0.0457487	4	0.00119487	13	0	7.4013	-1.71441e-05
2	0	0	1	0	1	77.823	0.371738	0.371266	-0.0382497	4	0.00118166	13	0	7.7509	-1.42008e-05
2	0	0	1	0	1	78.1725	0.368242	0.367743	-0.0311257	4	0.00116824	13	0	8.1004	-1.14462e-05
2	0	0	1	0	1	78.5221	0.364747	0.36426	-0.0329463	4	0.00115463	13	0	8.45	-1.2001e-05
2	0	0	1	0	1	78.8717	0.361251	0.360706	-0.0438741	4	0.00114064	13	0	8.7996	-1.58257e-05
2	0	0	1	0	1	79.2213	0.357755	0.357242	-0.0505368	4	0.00112631	13	0	9.1492	-1.80539e-05
2	0	0	1	0	1	79.5709	0.354259	0.353794	-0.0464899	4	0.00111164	13	0	9.4988	-1.64478e-05
2	0	0	1	0	1	79.9205	0.350763	0.350275	-0.0374082	4	0.00109673	13	0	9.8484	-1.31032e-05
2	1	0	1	0	0	80.1768	0.351813	0.351349	0.0343619	5	0.00109814	13	0	0.0999	1.2073e-05
2	1	0	1	0	0	80.5263	0.355308	0.35484	0.0319742	5	0.00111207	13	0	0.4494	1.13457e-05
2	1	0	1	0	0	80.8759	0.358804	0.358383	0.0390249	5	0.00112648	13	0	0.799	1.39859e-05
2	1	0	1	0	0	81.2255	0.362299	0.361842	0.0483361	5	0.00114112	13	0	1.1486	1.749e-05
2	1	0	1	0	0	81.5751	0.365795	0.365339	0.0506104	5	0.00115593	13	0	1.4982	1.84899e-05
2	1	0	1	0	0	81.9247	0.369291	0.368806	0.0425672	5	0.00117066	13	0	1.8478	1.5699e-05
2	1	0	1	0	0	82.2743	0.372787	0.372306	0.0338436	5	0.00118526	13	0	2.1974	1.26002e-05
2	1	0	1	0	0	82.6239	0.376283	0.375851	0.0338451	5	0.00119974	13	0	2.547	1.27207e-05
2	1	0	1	0	0	82.9735	0.379779	0.379368	0.0435664	5	0.00121418	13	0	2.8966	1.65277e-05
2	1	0	1	0	0	83.3231	0.383275	0.382807	0.0494086	5	0.00122862	13	0	3.2462	1.8914e-05
2	1	0	1	0	0	83.6727	0.38677	0.3863	0.0466534	5	0.00124306	13	0	3.5958	1.80222e-05
2	1	0	1	0	0	84.0222	0.390266	0.389828	0.0361812	5	0.00125735	13	0	3.9453	1.41045e-05
2	1	0	1	0	0	84.3718	0.393762	0.393268	0.0316731	5	0.00127149	13	0	4.2949	1.2456e-05
2	1	0	1	0	0	84.7214	0.397258	0.396816	0.0384537	5	0.00128557	13	0	4.6445	1.52591e-05
2	1	0	1	0	0	85.071	0.400755	0.400288	0.0482153	5	0.00129969	13	0	4.9941	1.93e-05
2	1	0	1	0	0	85.4205	0.40425	0.403788	0.0466951	5	0.00131382	13	0	5.3436	1.8855e-05
2	1	0	1	0	0	85.7701	0.407746	0.407225	0.0360237	5	0.00132785	13	0	5.6932	1.46698e-05
2	1	0	1	0	0	86.1197	0.411241	0.410726	0.0306875	5	0.0013417	13	0	6.0428	1.26042e-05
2	1	0	1	0	0	86.4693	0.414737	0.414225	0.0363056	5	0.00135561	13	0	6.3924	1.50387e-05
2	1	0	1	0	0	86.8189	0.418233	0.417766	0.0459451	5	0.00136957	13	0	6.742	1.91943e-05
2	1	0	1	0	0	87.1685	0.421729	0.421254	0.0483944	5	0.00138366	13	0	7.0916	2.03864e-05
2	1	0	1	0	0	87.5181	0.425225	0.424732	0.0396888	5	0.00139773	13	0	7.4412	1.68571e-05
2	1	0	1	0	0	87.8677	0.428721	0.428235	0.0316676	5	0.00141174	13	0	7.7908	1.35612e-05
2	1	0	1	0	0	88.2173	0.432217	0.431766	0.0367728	5	0.00142574	13	0	8.1404	1.58773e-05
2	1	0	1	0	0	88.5669	0.435712	0.435204	0.048069	5	0.00143991	13	0	8.49	2.09198e-05
2	1	0	1	0	0	88.9164	0.439208	0.438692	0.0474759	5	0.00145426	13	0	8.8395	2.08273e-05
2	1	0	1	0	0	89.266	0.442704	0.442157	0.0372961	5	0.00146867	13	0	9.1891	1.64907e-05
2	1	0	1	0	0	89.6156	0.4462	0.445714	0.0332736	5	0.00148309	13	0	9.5387	1.48305e-05
2	1	0	1	0	0	89.9652	0.449697	0.449195	0.0422176	5	0.00149767	13	0	9.8883	1.89639e-05
2	0	0	1	0	0	90.2805	0.447149	0.446595	-0.0266185	5	0.00149661	13	0	0.1798	-1.18877e-05
2	0	0	1	0	0	90.6301	0.443653	0.443148	-0.0265307	5	0.00148958	13	0	0.5294	-1.1757e-05
2	0	0	1	0	0	90.9797	0.440157	0.439667	-0.0183053	5	0.00148194	13	0	0.879	-8.04822e-06
2	0	0	1	0	0	91.3293	0.436661	0.436099	-0.0152748	5	0.00147391	13	0	1.2286	-6.66132e-06
2	0	0	1	0	0	91.6789	0.433165	0.432598	-0.0262191	5	0.00146545	13	0	1.5782	-1.13423e-05
2	0	0	1	0	0	92.0285	0.42967	0.429171	-0.034199	5	0.00145654	13	0	1.9278	-1.46772e-05
2	0	0	1	0	0	92.3781	0.426174	0.42565	-0.02932	5	0.00144722	13	0	2.2774	-1.24801e-05
2	0	0	1	0	0	92.7276	0.422678	0.4222	-0.0197613	5	0.00143775	13	0	2.6269	-8.34324e-06
2	0	0	1	0	0	93.0772	0.419182	0.418628	-0.0225168	5	0.00142803	13	0	2.9765	-9.42617e-06
2	0	0	1	0	0	93.4268	0.415685	0.415181	-0.0337101	5	0.00141802	13	0	3.3261	-1.39958e-05
2	0	0	1	0	0	93.7763	0.41219	0.411663	-0.039076	5	0.00140761	13	0	3.6756	-1.60862e-05
2	0	0	1	0	0	94.1259	0.408694	0.408173	-0.0298796	5	0.00139699	13	0	4.0252	-1.21961e-05
2	0	0	1	0	0	94.4755	0.405199	0.404683	-0.0229461	5	0.00138631	13	0	4.3748	-9.28591e-06
2	0	0	1	0	0	94.8251	0.401703	0.401125	-0.0277223	5	0.00137539	13	0	4.7244	-1.11201e-05
2	0	0	1	0	0	95.1747	0.398207	0.397657	-0.0391482	5	0.00136408	13	0	5.074	-1.55676e-05
2	0	0	1	0	0	95.5243	0.394711	0.394155	-0.0409764	5	0.00135248	13	0	5.4236	-1.6151e-05
2	0	0	1	0	0	95.8739	0.391215	0.39073	-0.0315974	5	0.00134067	13	0	5.7732	-1.2346e-05
2	0	0	1	0	0	96.2235	0.387719	0.387191	-0.0255684	5	0.00132873	13	0	6.1228	-9.89987e-06
2	0	0	1	0	0	96.5731	0.384223	0.383686	-0.0329345	5	0.00131658	13	0	6.4724	-1.26365e-05
2	0	0	1	0	0	96.9227	0.380728	0.380187	-0.0432537	5	0.00130409	13	0	6.822	-1.64445e-05
2	0	0	1	0	0	97.2723	0.377232	0.376733	-0.0439736	5	0.00129125	13	0	7.1716	-1.65663e-05
2	0	0	1	0	0	97.6218	0.373737	0.373253	-0.0310588	5	0.00127822	13	0	7.5211	-1.15928e-05
2	0	0	1	0	0	97.9714	0.37024	0.369734	-0.0306064	5	0.00126505	13	0	7.8707	-1.13162e-05
2	0	0	1	0	0	98.321	0.366744	0.366203	-0.0431761	5	0.00125155	13	0	8.2203	-1.58112e-05
2	0	0	1	0	0	98.6705	0.363248	0.362742	-0.049136	5	0.00123768	13	0	8.5698	-1.78237e-05
2	0	0	1	0	0	99.0201	0.359752	0.359264	-0.0408528	5	0.00122348	13	0	8.9194	-1.46769e-05
2	0	0	1	0	0	99.3697	0.356257	0.355735	-0.0320361	5	0.00120918	13	0	9.269	-1.13963e-05
2	0	0	1	0	0	99.7193	0.352761	0.352251	-0.0404433	5	0.00119462	13	0	9.6186	-1.42462e-05
2	0	0	1	0	1	99.998	0.350039	0.349478	-0.057932	6	0.00118246	13	0	9.8973	-2.02459e-05
2	1	0	1	0	1	100.385	0.353909	0.353467	0.0470842	6	0.0011956	13	0	0.3596	1.66427e-05
2	1	0	1	0	1	100.735	0.357405	0.356884	0.0364486	6	0.00120973	13	0	0.7092	1.30079e-05
2	1	0	1	0	1	101.084	0.360901	0.36046	0.032757	6	0.001224	13	0	1.0588	1.18076e-05
2	1	0	1	0	1	101.434	0.364397	0.36393	0.0502966	6	0.00123842	13	0	1.4084	1.83045e-05
2	1	0	1	0	1	101.783	0.367893	0.367428	0.0382087	6	0.0012529	13	0	1.758	1.4039e-05
2	1	0	1	0	1	102.133	0.371389	0.37094	0.0338515	6	0.00126716	13	0	2.1076	1.25569e-05
2	1	0	1	0	1	102.483	0.374884	0.37445	0.049595	6	0.00128145	13	0	2.4572	1.85709e-05
2	1	0	1	0	1	102.832	0.37838	0.377903	0.0411025	6	0.00129577	13	0	2.8068	1.55328e-05
2	1	0	1	0	1	103.182	0.381876	0.381403	0.0313112	6	0.00130981	13	0	3.1563	1.19422e-05
2	1	0	1	0	1	103.531	0.385372	0.38493	0.0452077	6	0.00132376	13	0	3.5059	1.74018e-05
2	1	0	1	0	1	103.881	0.388869	0.388361	0.0455975	6	0.00133784	13	0	3.8555	1.77083e-05
2	1	0	1	0	1	104.23	0.392364	0.3919	0.0306841	6	0.00135169	13	0	4.205	1.20251e-05
2	1	0	1	0	1	104.58	0.39586	0.395407	0.0397408	6	0.0013654	13	0	4.5546	1.57138e-05
2	1	0	1	0	1	104.93	0.399355	0.398871	0.0478469	6	0.00137921	13	0	4.9042	1.90847e-05
2	1	0	1	0	1	105.279	0.402851	0.402388	0.0355022	6	0.00139298	13	0	5.2538	1.42857e-05
2	1	0	1	0	1	105.629	0.406347	0.405882	0.0311062	6	0.00140651	13	0	5.6034	1.26254e-05
2	1	0	1	0	1	105.978	0.409843	0.409358	0.0440891	6	0.00141998	13	0	5.953	1.80482e-05
2	1	0	1	0	1	106.328	0.413339	0.412829	0.0443475	6	0.00143366	13	0	6.3026	1.83079e-05
2	1	0	1	0	1	106.678	0.416835	0.416339	0.030154	6	0.0014472	13	0	6.6522	1.25543e-05
2	1	0	1	0	1	107.027	0.420331	0.419909	0.0387836	6	0.00146063	13	0	7.0018	1.62856e-05
2	1	0	1	0	1	107.377	0.423826	0.423328	0.0476102	6	0.00147424	13	0	7.3514	2.01548e-05
2	1	0	1	0	1	107.726	0.427322	0.426802	0.0358354	6	0.00148789	13	0	7.701	1.52947e-05
2	1	0	1	0	1	108.076	0.430818	0.430312	0.0305212	6	0.00150137	13	0	8.0505	1.31336e-05
2	1	0	1	0	1	108.426	0.434314	0.43384	0.0428512	6	0.00151494	13	0	8.4001	1.85906e-05
2	1	0	1	0	1	108.775	0.437811	0.437298	0.0475989	6	0.00152869	13	0	8.7497	2.08149e-05
2	1	0	1	0	1	109.125	0.441306	0.440781	0.0368189	6	0.00154254	13	0	9.0992	1.62291e-05
2	1	0	1	0	1	109.474	0.444802	0.444329	0.0311215	6	0.00155631	13	0	9.4488	1.38282e-05
2	1	0	1	0	1	109.824	0.448297	0.447822	0.0433838	6	0.00157026	13	0	9.7984	1.94282e-05
2	0	0	1	0	1	110.164	0.448297	0.447781	-0.021108	6	0.00157639	12	0	0.065	-9.45175e-06
2	0	0	1	0	1	110.529	0.444653	0.444116	-0.0208126	6	0.001569	13	0	0.4295	-9.24319e-06
2	0	0	1	0	1	110.878	0.441156	0.440609	-0.0322745	6	0.00156118	13	0	0.7791	-1.42204e-05
2	0	0	1	0	1	111.228	0.43766	0.437152	-0.0249972	6	0.00155281	13	0	1.1287	-1.09276e-05
2	0	0	1	0	1	111.578	0.434163	0.433617	-0.0160502	6	0.00154419	13	0	1.4783	-6.95963e-06
2	0	0	1	0	1	111.927	0.430668	0.430114	-0.0257914	6	0.00153532	13	0	1.8278	-1.10932e-05
2	0	0	1	0	1	112.277	0.427173	0.426631	-0.036232	6	0.00152593	13	0	2.1774	-1.54577e-05
2	0	0	1	0	1	112.626	0.423677	0.423173	-0.029028	6	0.00151624	13	0	2.527	-1.22839e-05
2	0	0	1	0	1	112.976	0.420181	0.419645	-0.0200805	6	0.0015064	13	0	2.8766	-8.42668e-06
2	0	0	1	0	1	113.325	0.416685	0.416115	-0.0267722	6	0.00149641	13	0	3.2262	-1.11403e-05
2	0	0	1	0	1	113.675	0.413189	0.41266	-0.0390962	6	0.00148599	13	0	3.5758	-1.61335e-05
2	0	0	1	0	1	114.025	0.409693	0.409152	-0.0331335	6	0.00147531	13	0	3.9254	-1.35566e-05
2	0	0	1	0	1	114.374	0.406197	0.405677	-0.0226051	6	0.0014646	13	0	4.275	-9.17036e-06
2	0	0	1	0	1	114.724	0.402701	0.402203	-0.0288633	6	0.00145368	13	0	4.6246	-1.16089e-05
2	0	0	1	0	1	115.073	0.399206	0.398662	-0.0411375	6	0.00144238	13	0	4.9742	-1.64e-05
2	0	0	1	0	1	115.423	0.395711	0.395208	-0.0365415	6	0.00143079	13	0	5.3237	-1.44415e-05
2	0	0	1	0	1	115.773	0.392214	0.391699	-0.0255972	6	0.00141908	13	0	5.6733	-1.00264e-05
2	0	0	1	0	1	116.122	0.388718	0.38822	-0.0311471	6	0.00140722	13	0	6.0229	-1.2092e-05
2	0	0	1	0	1	116.472	0.385221	0.384687	-0.0436431	6	0.001395	13	0	6.3725	-1.67889e-05
2	0	0	1	0	1	116.821	0.381726	0.381217	-0.0400456	6	0.00138248	13	0	6.722	-1.52661e-05
2	0	0	1	0	1	117.171	0.378231	0.377734	-0.0285144	6	0.00136984	13	0	7.0716	-1.07709e-05
2	0	0	1	0	1	117.52	0.374735	0.374151	-0.0318042	6	0.001357	13	0	7.4212	-1.18996e-05
2	0	0	1	0	1	117.87	0.371239	0.370721	-0.0445653	6	0.00134386	13	0	7.7708	-1.65213e-05
2	0	0	1	0	1	118.22	0.367743	0.367253	-0.0458497	6	0.00133029	13	0	8.1204	-1.68384e-05
2	0	0	1	0	1	118.569	0.364247	0.363761	-0.0332516	6	0.00131657	13	0	8.47	-1.20956e-05
2	0	0	1	0	1	118.919	0.360751	0.360244	-0.0340623	6	0.00130267	13	0	8.8196	-1.22707e-05
2	0	0	1	0	1	119.268	0.357255	0.356713	-0.0481325	6	0.00128841	13	0	9.1692	-1.71695e-05
2	0	0	1	0	1	119.618	0.35376	0.353304	-0.0481491	6	0.00127376	13	0	9.5188	-1.70113e-05
2	0	0	1	0	1	119.968	0.350264	0.349782	-0.0347887	6	0.00125888	13	0	9.8684	-1.21685e-05
2	1	0	1	0	0	120.254	0.352611	0.352138	0.0471865	7	0.00126537	12	0	0.2298	1.66162e-05
2	1	0	1	0	0	120.633	0.356406	0.355952	0.0468813	7	0.00128012	13	0	0.6094	1.66875e-05
2	1	0	1	0	0	120.983	0.359902	0.359442	0.0456977	7	0.00129428	13	0	0.9589	1.64257e-05
2	1	0	1	0	0	121.333	0.363398	0.362922	0.0325696	7	0.00130849	13	0	1.3085	1.18202e-05
2	1	0	1	0	0	121.682	0.366894	0.366459	0.0380809	7	0.00132255	13	0	1.6581	1.39551e-05
2	1	0	1	0	0	122.032	0.370391	0.369909	0.0502269	7	0.00133676	13	0	2.0077	1.85794e-05
2	1	0	1	0	0	122.381	0.373886	0.373416	0.0391693	7	0.00135092	13	0	2.3572	1.46264e-05
2	1	0	1	0	0	122.731	0.377382	0.376944	0.0312993	7	0.00136486	13	0	2.7068	1.17981e-05
2	1	0	1	0	0	123.08	0.380877	0.380437	0.041838	7	0.00137869	13	0	3.0564	1.59167e-05
2	1	0	1	0	0	123.43	0.384373	0.383905	0.0483408	7	0.00139257	13	0	3.406	1.85583e-05
2	1	0	1	0	0	123.78	0.387869	0.3874	0.0348999	7	0.00140636	13	0	3.7556	1.35202e-05
2	1	0	1	0	0	124.129	0.391365	0.390915	0.0318425	7	0.0014199	13	0	4.1052	1.24477e-05
2	1	0	1	0	0	124.479	0.394861	0.394388	0.0468375	7	0.00143347	13	0	4.4548	1.84721e-05
2	1	0	1	0	0	124.828	0.398357	0.397863	0.0398365	7	0.00144706	13	0	4.8044	1.58495e-05
2	1	0	1	0	0	125.178	0.401853	0.401415	0.0304726	7	0.00146042	13	0	5.154	1.22322e-05
2	1	0	1	0	0	125.528	0.405348	0.404879	0.0455715	7	0.00147374	13	0	5.5036	1.8451e-05
2	1	0	1	0	0	125.877	0.408844	0.408324	0.0412064	7	0.0014871	13	0	5.8531	1.68256e-05
2	1	0	1	0	0	126.227	0.41234	0.411849	0.0286192	7	0.00150031	13	0	6.2027	1.17868e-05
2	1	0	1	0	0	126.576	0.415836	0.415349	0.0452074	7	0.0015135	13	0	6.5523	1.87769e-05
2	1	0	1	0	0	126.926	0.419333	0.418826	0.0437357	7	0.00152682	13	0	6.9019	1.83177e-05
2	1	0	1	0	0	127.275	0.422828	0.422348	0.0322455	7	0.00154005	13	0	7.2514	1.36188e-05
2	1	0	1	0	0	127.625	0.426323	0.42582	0.0301251	7	0.00155316	13	0	7.601	1.28279e-05
2	1	0	1	0	0	127.975	0.429819	0.42935	0.0410302	7	0.00156634	13	0	7.9506	1.76163e-05
2	1	0	1	0	0	128.324	0.433315	0.432797	0.0466078	7	0.00157966	13	0	8.3002	2.01717e-05
2	1	0	1	0	0	128.674	0.436811	0.436287	0.0375553	7	0.001593	13	0	8.6498	1.63849e-05
2	1	0	1	0	0	129.023	0.440307	0.439792	0.0296992	7	0.00160633	13	0	8.9994	1.30615e-05
2	1	0	1	0	0	129.373	0.443803	0.443327	0.0352814	7	0.00161964	13	0	9.349	1.56412e-05
2	1	0	1	0	0	129.723	0.447299	0.446851	0.0462179	7	0.00163319	13	0	9.6986	2.06525e-05
2	1	0	1	0	0	130.033	0.449596	0.449084	-0.000251497	7	0.00164347	13	0	10.0089	-1.12943e-07
2	0	0	1	0	0	130.427	0.445651	0.445093	-0.0216758	7	0.00163689	13	0	0.3296	-9.64773e-06
2	0	0	1	0	0	130.777	0.442155	0.441594	-0.0318586	7	0.00162903	13	0	0.6792	-1.40686e-05
2	0	0	1	0	0	131.127	0.438659	0.438151	-0.0280456	7	0.00162061	13	0	1.0288	-1.22882e-05
2	0	0	1	0	0	131.476	0.435163	0.434634	-0.0183622	7	0.0016119	13	0	1.3784	-7.98084e-06
2	0	0	1	0	0	131.826	0.431667	0.431123	-0.019614	7	0.00160297	13	0	1.728	-8.45605e-06
2	0	0	1	0	0	132.175	0.428171	0.42762	-0.0328887	7	0.00159364	13	0	2.0776	-1.40639e-05
2	0	0	1	0	0	132.525	0.424675	0.424142	-0.0356033	7	0.00158392	13	0	2.4272	-1.51009e-05
2	0	0	1	0	0	132.875	0.42118	0.420683	-0.02615	7	0.00157399	13	0	2.7768	-1.10009e-05
2	0	0	1	0	0	133.224	0.417685	0.417156	-0.0201798	7	0.00156394	13	0	3.1263	-8.4181e-06
2	0	0	1	0	0	133.574	0.414188	0.413679	-0.0294904	7	0.00155367	13	0	3.4759	-1.21996e-05
2	0	0	1	0	0	133.923	0.410692	0.410168	-0.0393165	7	0.00154304	13	0	3.8255	-1.61264e-05
2	0	0	1	0	0	134.273	0.407196	0.406728	-0.0341148	7	0.00153223	13	0	4.1751	-1.38754e-05
2	0	0	1	0	0	134.622	0.4037	0.403207	-0.0243184	7	0.00152125	13	0	4.5246	-9.80535e-06
2	0	0	1	0	0	134.972	0.400204	0.399673	-0.0264271	7	0.00151013	13	0	4.8742	-1.05622e-05
2	0	0	1	0	0	135.322	0.396709	0.396154	-0.0386338	7	0.0014987	13	0	5.2238	-1.5305e-05
2	0	0	1	0	0	135.671	0.393213	0.392681	-0.0416102	7	0.00148694	13	0	5.5734	-1.63396e-05
2	0	0	1	0	0	136.021	0.389717	0.389231	-0.0309351	7	0.001475	13	0	5.923	-1.20409e-05
2	0	0	1	0	0	136.37	0.386221	0.385685	-0.0257689	7	0.00146295	13	0	6.2726	-9.93868e-06
2	0	0	1	0	0	136.72	0.382725	0.38219	-0.036592	7	0.00145068	13	0	6.6222	-1.39851e-05
2	0	0	1	0	0	137.07	0.379229	0.37873	-0.0451813	7	0.00143806	13	0	6.9718	-1.71115e-05
2	0	0	1	0	0	137.419	0.375733	0.375223	-0.0405986	7	0.00142515	13	0	7.3214	-1.52335e-05
2	0	0	1	0	0	137.769	0.372238	0.37172	-0.0298719	7	0.00141209	13	0	7.671	-1.1104e-05
2	0	0	1	0	0	138.118	0.368743	0.368208	-0.0319451	7	0.00139887	13	0	8.0205	-1.17624e-05
2	0	0	1	0	0	138.468	0.365246	0.364717	-0.0447182	7	0.0013853	13	0	8.3701	-1.63095e-05
2	0	0	1	0	0	138.818	0.36175	0.361202	-0.0488018	7	0.00137135	13	0	8.7197	-1.76273e-05
2	0	0	1	0	0	139.167	0.358254	0.35773	-0.0381955	7	0.00135712	13	0	9.0693	-1.36637e-05
2	0	0	1	0	0	139.517	0.354758	0.354255	-0.0326792	7	0.0013428	13	0	9.4188	-1.15768e-05
2	0	0	1	0	0	139.866	0.351263	0.350752	-0.0420666	7	0.00132814	13	0	9.7684	-1.47549e-05
2	1	0	1	0	1	140.153	0.351612	0.351126	0.035355	8	0.00132634	12	0	0.1299	1.2414e-05
2	1	0	1	0	1	140.502	0.355108	0.354644	0.0308579	8	0.00133968	12	0	0.4795	1.09436e-05
2	1	0	1	0	1	140.882	0.358903	0.358429	0.033457	8	0.00135414	13	0	0.859	1.19919e-05
2	1	0	1	0	1	141.231	0.362399	0.361935	0.0332892	8	0.00136803	13	0	1.2086	1.20485e-05
2	1	0	1	0	1	141.581	0.365895	0.365457	0.0447113	8	0.00138205	13	0	1.5582	1.634e-05
2	1	0	1	0	1	141.93	0.369391	0.368931	0.0486334	8	0.00139609	13	0	1.9078	1.79424e-05
2	1	0	1	0	1	142.28	0.372887	0.372375	0.0388132	8	0.00141009	13	0	2.2574	1.44531e-05
2	1	0	1	0	1	142.63	0.376383	0.375975	0.0301886	8	0.00142388	13	0	2.607	1.13502e-05
2	1	0	1	0	1	142.979	0.379879	0.379454	0.0350997	8	0.00143751	13	0	2.9566	1.33187e-05
2	1	0	1	0	1	143.329	0.383374	0.382932	0.0447893	8	0.00145114	13	0	3.3062	1.71512e-05
2	1	0	1	0	1	143.678	0.386869	0.38639	0.0471418	8	0.00146477	13	0	3.6557	1.82151e-05
2	1	0	1	0	1	144.028	0.390366	0.389885	0.0366488	8	0.00147832	13	0	4.0053	1.42889e-05
2	1	0	1	0	1	144.378	0.393862	0.393363	0.0289622	8	0.00149163	13	0	4.3549	1.13927e-05
2	1	0	1	0	1	144.727	0.397359	0.39692	0.0342877	8	0.00150487	13	0	4.7045	1.36095e-05
2	1	0	1	0	1	145.077	0.400854	0.400419	0.044122	8	0.00151807	13	0	5.054	1.76673e-05
2	1	0	1	0	1	145.426	0.40435	0.403864	0.0459456	8	0.00153135	13	0	5.4036	1.85557e-05
2	1	0	1	0	1	145.776	0.407845	0.407372	0.0346003	8	0.00154445	13	0	5.7532	1.40952e-05
2	1	0	1	0	1	146.125	0.411341	0.410851	0.0283069	8	0.00155741	13	0	6.1028	1.16299e-05
2	1	0	1	0	1	146.475	0.414837	0.41434	0.0330828	8	0.00157033	13	0	6.4524	1.37075e-05
2	1	0	1	0	1	146.825	0.418333	0.417862	0.0438501	8	0.0015833	13	0	6.802	1.83233e-05
2	1	0	1	0	1	147.174	0.421829	0.421335	0.0447445	8	0.00159637	13	0	7.1516	1.88524e-05
2	1	0	1	0	1	147.524	0.425325	0.424777	0.0354972	8	0.00160936	13	0	7.5012	1.50784e-05
2	1	0	1	0	1	147.873	0.428821	0.428338	0.0280455	8	0.00162227	13	0	7.8508	1.2013e-05
2	1	0	1	0	1	148.223	0.432316	0.431836	0.0352316	8	0.00163512	13	0	8.2004	1.52143e-05
2	1	0	1	0	1	148.573	0.435811	0.435313	0.0464787	8	0.00164815	13	0	8.5499	2.02328e-05
2	1	0	1	0	1	148.922	0.439308	0.438771	0.0401698	8	0.00166125	13	0	8.8995	1.76253e-05
2	1	0	1	0	1	149.272	0.442804	0.442314	0.0295689	8	0.00167433	13	0	9.2491	1.30787e-05
2	1	0	1	0	1	149.621	0.446301	0.445816	0.0341548	8	0.00168737	13	0	9.5987	1.52268e-05
2	1	0	1	0	1	149.968	0.449771	0.449267	0.0482599	8	0.00170057	13	0	9.9457	2.16816e-05
2	0	0	1	0	1	150.326	0.446649	0.446099	-0.018141	8	0.00169551	13	0	0.2947	-8.0927e-06
2	0	0	1	0	1	150.676	0.443154	0.442611	-0.0317832	8	0.00168768	13	0	0.6443	-1.40676e-05
2	0	0	1	0	1	151.025	0.439658	0.439164	-0.0213484	8	0.00167925	13	0	0.9939	-9.37545e-06
2	0	0	1	0	1	151.375	0.436162	0.43562	-0.018134	8	0.00167062	13	0	1.3434	-7.89956e-06
2	0	0	1	0	1	151.725	0.432666	0.432097	-0.032403	8	0.00166159	13	0	1.693	-1.40012e-05
2	0	0	1	0	1	152.074	0.429169	0.428648	-0.0326753	8	0.00165213	13	0	2.0426	-1.40062e-05
2	0	0	1	0	1	152.424	0.425674	0.42516	-0.0194045	8	0.00164253	13	0	2.3921	-8.25001e-06
2	0	0	1	0	1	152.773	0.422178	0.421628	-0.0284679	8	0.00163276	13	0	2.7417	-1.20029e-05
2	0	0	1	0	1	153.123	0.418683	0.418129	-0.0383798	8	0.00162258	13	0	3.0913	-1.60477e-05
2	0	0	1	0	1	153.472	0.415187	0.414609	-0.0242144	8	0.0016122	13	0	3.4409	-1.00395e-05
2	0	0	1	0	1	153.822	0.411691	0.411112	-0.0279399	8	0.00160178	13	0	3.7905	-1.14864e-05
2	0	0	1	0	1	154.172	0.408195	0.407674	-0.0394466	8	0.00159093	13	0	4.1401	-1.60813e-05
2	0	0	1	0	1	154.521	0.404699	0.404187	-0.0224316	8	0.00158005	13	0	4.4897	-9.06655e-06
2	0	0	1	0	1	154.871	0.401203	0.400659	-0.0353917	8	0.00156899	13	0	4.8393	-1.418e-05
2	0	0	1	0	1	155.22	0.397707	0.397229	-0.0403	8	0.00155751	13	0	5.1889	-1.60083e-05
2	0	0	1	0	1	155.57	0.394212	0.393712	-0.0281149	8	0.00154587	13	0	5.5385	-1.10692e-05
2	0	0	1	0	1	155.92	0.390716	0.390207	-0.0270475	8	0.00153416	13	0	5.8881	-1.05541e-05
2	0	0	1	0	1	156.269	0.38722	0.386666	-0.0400612	8	0.00152217	13	0	6.2376	-1.54903e-05
2	0	0	1	0	1	156.619	0.383724	0.383218	-0.0430393	8	0.0015098	13	0	6.5872	-1.64934e-05
2	0	0	1	0	1	156.968	0.380228	0.37975	-0.0313269	8	0.0014973	13	0	6.9368	-1.18964e-05
2	0	0	1	0	1	157.318	0.376732	0.376202	-0.0289203	8	0.00148467	13	0	7.2863	-1.08799e-05
2	0	0	1	0	1	157.667	0.373237	0.372684	-0.0421454	8	0.00147174	13	0	7.6359	-1.57069e-05
2	0	0	1	0	1	158.017	0.369741	0.369235	-0.0467567	8	0.00145844	13	0	7.9855	-1.72642e-05
2	0	0	1	0	1	158.367	0.366245	0.365726	-0.032366	8	0.0014449	13	0	8.3351	-1.18371e-05
2	0	0	1	0	1	158.716	0.362749	0.362224	-0.0357517	8	0.00143128	13	0	8.6847	-1.29501e-05
2	0	0	1	0	1	159.066	0.359253	0.358693	-0.0485375	8	0.00141724	13	0	9.0343	-1.74101e-05
2	0	0	1	0	1	159.415	0.355757	0.355258	-0.0465	8	0.00140288	13	0	9.3839	-1.65195e-05
2	0	0	1	0	1	159.765	0.352261	0.351736	-0.0356348	8	0.00138827	13	0	9.7335	-1.25341e-05
2	0	0	1	0	0	160.021	0.350314	0.349826	-0.00252447	9	0.0013787	13	0	9.9897	-8.83124e-07
2	1	0	1	0	0	160.431	0.354409	0.354007	0.0416223	9	0.00139397	13	0	0.3446	1.47346e-05
2	1	0	1	0	0	160.78	0.357905	0.35744	0.0484887	9	0.00140772	13	0	0.6942	1.73318e-05
2	1	0	1	0	0	161.13	0.3614	0.360892	0.0398146	9	0.00142166	13	0	1.0438	1.43688e-05
2	1	0	1	0	0	161.48	0.364895	0.364422	0.030489	9	0.00143551	13	0	1.3933	1.11108e-05
2	1	0	1	0	0	161.829	0.368392	0.367949	0.0374356	9	0.00144925	13	0	1.7429	1.37744e-05
2	1	0	1	0	0	162.179	0.371888	0.371457	0.0489144	9	0.0014631	13	0	2.0925	1.81696e-05
2	1	0	1	0	0	162.528	0.375385	0.374909	0.0424972	9	0.00147689	13	0	2.4421	1.59326e-05
2	1	0	1	0	0	162.878	0.37888	0.378432	0.0310843	9	0.0014905	13	0	2.7916	1.17633e-05
2	1	0	1	0	0	163.227	0.382376	0.38191	0.0317675	9	0.0015039	13	0	3.1412	1.21323e-05
2	1	0	1	0	0	163.577	0.385871	0.385382	0.0438144	9	0.00151728	13	0	3.4908	1.68853e-05
2	1	0	1	0	0	163.927	0.389367	0.3889	0.0466383	9	0.00153071	13	0	3.8404	1.81376e-05
2	1	0	1	0	0	164.276	0.392863	0.392375	0.0360059	9	0.00154401	13	0	4.19	1.41278e-05
2	1	0	1	0	0	164.626	0.396359	0.395877	0.0286003	9	0.00155712	13	0	4.5396	1.13222e-05
2	1	0	1	0	0	164.975	0.399855	0.399373	0.0343267	9	0.00157008	13	0	4.8892	1.37092e-05
2	1	0	1	0	0	165.325	0.403351	0.402898	0.0446491	9	0.00158313	13	0	5.2388	1.7989e-05
2	1	0	1	0	0	165.675	0.406847	0.406354	0.0435578	9	0.00159614	13	0	5.5884	1.76999e-05
2	1	0	1	0	0	166.024	0.410342	0.409856	0.0327209	9	0.00160899	13	0	5.938	1.34109e-05
2	1	0	1	0	0	166.374	0.413838	0.413341	0.0273075	9	0.00162173	13	0	6.2876	1.12873e-05
2	1	0	1	0	0	166.723	0.417334	0.416839	0.037284	9	0.00163445	13	0	6.6371	1.55414e-05
2	1	0	1	0	0	167.073	0.42083	0.42033	0.0454314	9	0.00164727	13	0	6.9867	1.90962e-05
2	1	0	1	0	0	167.423	0.424327	0.423817	0.038747	9	0.00166008	13	0	7.3363	1.64216e-05
2	1	0	1	0	0	167.772	0.427822	0.427323	0.0290313	9	0.0016728	13	0	7.6858	1.24057e-05
2	1	0	1	0	0	168.122	0.431318	0.43086	0.0300549	9	0.00168543	13	0	8.0354	1.29495e-05
2	1	0	1	0	0	168.471	0.434813	0.434305	0.0443741	9	0.00169816	13	0	8.385	1.92719e-05
2	1	0	1	0	0	168.821	0.438309	0.43777	0.0416629	9	0.00171102	13	0	8.7346	1.82388e-05
2	1	0	1	0	0	169.17	0.441805	0.441263	0.0302639	9	0.00172387	13	0	9.0842	1.33543e-05
2	1	0	1	0	0	169.52	0.445301	0.444793	0.0304005	9	0.00173662	13	0	9.4338	1.35219e-05
2	1	0	1	0	0	169.87	0.448797	0.448315	0.042137	9	0.00174955	13	0	9.7834	1.88906e-05
2	0	0	1	0	0	170.225	0.447647	0.447151	-0.0127574	9	0.00175107	13	0	0.1299	-5.70446e-06
2	0	0	1	0	0	170.574	0.444152	0.443575	-0.0228007	9	0.00174344	13	0	0.4794	-1.01138e-05
2	0	0	1	0	0	170.924	0.440657	0.440099	-0.0332044	9	0.00173508	13	0	0.829	-1.46132e-05
2	0	0	1	0	0	171.274	0.437161	0.436633	-0.0255417	9	0.00172627	13	0	1.1786	-1.11524e-05
2	0	0	1	0	0	171.623	0.433665	0.43309	-0.017641	9	0.00171728	13	0	1.5282	-7.64016e-06
2	0	0	1	0	0	171.973	0.430169	0.429646	-0.0252271	9	0.00170806	13	0	1.8778	-1.08387e-05
2	0	0	1	0	0	172.322	0.426673	0.426137	-0.0367302	9	0.00169844	13	0	2.2274	-1.56521e-05
2	0	0	1	0	0	172.672	0.423177	0.422661	-0.0318659	9	0.00168851	13	0	2.577	-1.34685e-05
2	0	0	1	0	0	173.022	0.419681	0.419178	-0.0221617	9	0.00167844	13	0	2.9266	-9.28971e-06
2	0	0	1	0	0	173.371	0.416186	0.415592	-0.0222283	9	0.00166826	13	0	3.2762	-9.23791e-06
2	0	0	1	0	0	173.721	0.41269	0.412137	-0.033215	9	0.00165782	13	0	3.6258	-1.36891e-05
2	0	0	1	0	0	174.07	0.409195	0.408672	-0.0401275	9	0.00164705	13	0	3.9753	-1.6399e-05
2	0	0	1	0	0	174.42	0.405698	0.405209	-0.0301915	9	0.00163617	13	0	4.3249	-1.22339e-05
2	0	0	1	0	0	174.77	0.402202	0.401691	-0.0232421	9	0.00162514	13	0	4.6745	-9.33613e-06
2	0	0	1	0	0	175.119	0.398705	0.398201	-0.0353347	9	0.0016139	13	0	5.0241	-1.40703e-05
2	0	0	1	0	0	175.469	0.39521	0.394659	-0.0426539	9	0.00160232	13	0	5.3736	-1.68338e-05
2	0	0	1	0	0	175.818	0.391715	0.391208	-0.03534	9	0.0015905	13	0	5.7232	-1.38253e-05
2	0	0	1	0	0	176.168	0.388219	0.387692	-0.0268513	9	0.00157859	13	0	6.0728	-1.041e-05
2	0	0	1	0	0	176.517	0.384723	0.384207	-0.0286191	9	0.00156652	13	0	6.4224	-1.09957e-05
2	0	0	1	0	0	176.867	0.381227	0.380728	-0.0418675	9	0.00155418	13	0	6.772	-1.59401e-05
2	0	0	1	0	0	177.217	0.377731	0.377189	-0.0442823	9	0.00154146	13	0	7.1216	-1.67028e-05
2	0	0	1	0	0	177.566	0.374235	0.373787	-0.0324867	9	0.00152856	13	0	7.4712	-1.21431e-05
2	0	0	1	0	0	177.916	0.370739	0.370234	-0.0295193	9	0.00151553	13	0	7.8208	-1.0929e-05
2	0	0	1	0	0	178.265	0.367244	0.366654	-0.0393965	9	0.00150226	13	0	8.1704	-1.44449e-05
2	0	0	1	0	0	178.615	0.363748	0.36322	-0.04869	9	0.00148856	13	0	8.52	-1.76852e-05
2	0	0	1	0	0	178.965	0.360253	0.359733	-0.0419637	9	0.00147458	13	0	8.8695	-1.50957e-05
2	0	0	1	0	0	179.314	0.356756	0.356237	-0.0318893	9	0.00146045	13	0	9.2191	-1.13602e-05
2	0	0	1	0	0	179.664	0.35326	0.352718	-0.0428237	9	0.00144613	13	0	9.5687	-1.51047e-05
2	0	0	1	0	0	179.987	0.349989	0.349554	-0.0282019	9	0.00143257	13	0	9.8923	-9.8581e-06
2	1	0	1	0	1	180.33	0.35341	0.352884	0.0354217	10	0.00144281	13	0	0.2447	1.24998e-05
2	1	0	1	0	1	180.679	0.356907	0.356461	0.029769	10	0.00145617	13	0	0.5943	1.06115e-05
2	1	0	1	0	1	181.029	0.360402	0.359972	0.044098	10	0.00146982	13	0	0.9438	1.58741e-05
2	1	0	1	0	1	181.378	0.363897	0.363434	0.0474245	10	0.00148368	13	0	1.2934	1.72357e-05
2	1	0	1	0	1	181.728	0.367393	0.366883	0.0343728	10	0.00149747	13	0	1.643	1.26108e-05
2	1	0	1	0	1	182.077	0.370889	0.370467	0.0313412	10	0.00151107	13	0	1.9926	1.16109e-05
2	1	0	1	0	1	182.427	0.374385	0.373898	0.0443838	10	0.00152462	13	0	2.3422	1.6595e-05
2	1	0	1	0	1	182.777	0.377881	0.377368	0.0458424	10	0.00153825	13	0	2.6918	1.72995e-05
2	1	0	1	0	1	183.126	0.381377	0.380908	0.0326452	10	0.00155169	13	0	3.0414	1.24348e-05
2	1	0	1	0	1	183.476	0.384873	0.384414	0.0309796	10	0.00156488	13	0	3.391	1.1909e-05
2	1	0	1	0	1	183.825	0.388369	0.387921	0.0441485	10	0.00157806	13	0	3.7406	1.71261e-05
2	1	0	1	0	1	184.175	0.391864	0.391361	0.0449091	10	0.00159128	13	0	4.0902	1.75756e-05
2	1	0	1	0	1	184.525	0.39536	0.394875	0.0333905	10	0.00160435	13	0	4.4397	1.31851e-05
2	1	0	1	0	1	184.874	0.398856	0.39835	0.0282358	10	0.00161723	13	0	4.7893	1.12478e-05
2	1	0	1	0	1	185.224	0.402353	0.401891	0.035655	10	0.00163001	13	0	5.1389	1.43294e-05
2	1	0	1	0	1	185.573	0.405848	0.405422	0.0456494	10	0.00164286	13	0	5.4884	1.85073e-05
2	1	0	1	0	1	185.923	0.409344	0.408824	0.0396841	10	0.00165561	13	0	5.838	1.62238e-05
2	1	0	1	0	1	186.272	0.41284	0.41229	0.0288041	10	0.00166828	13	0	6.1876	1.18757e-05
2	1	0	1	0	1	186.622	0.416335	0.415862	0.0294756	10	0.00168083	13	0	6.5372	1.22578e-05
2	1	0	1	0	1	186.972	0.419831	0.419348	0.0408918	10	0.00169338	13	0	6.8868	1.71479e-05
2	1	0	1	0	1	187.321	0.423327	0.422873	0.044566	10	0.00170604	13	0	7.2364	1.88457e-05
2	1	0	1	0	1	187.671	0.426823	0.426294	0.0365182	10	0.00171866	13	0	7.586	1.55675e-05
2	1	0	1	0	1	188.02	0.430319	0.429823	0.0268003	10	0.00173117	13	0	7.9356	1.15194e-05
2	1	0	1	0	1	188.37	0.433815	0.433334	0.0345215	10	0.00174359	13	0	8.2852	1.49593e-05
2	1	0	1	0	1	188.72	0.43731	0.436828	0.0454544	10	0.00175621	13	0	8.6348	1.98558e-05
2	1	0	1	0	1	189.069	0.440806	0.440273	0.0346132	10	0.0017689	13	0	8.9844	1.52392e-05
2	1	0	1	0	1	189.419	0.444302	0.443828	0.027525	10	0.00178147	13	0	9.3339	1.22164e-05
2	1	0	1	0	1	189.768	0.447798	0.447329	0.0354958	10	0.00179408	13	0	9.6835	1.58783e-05
2	0	0	1	0	1	190.094	0.448947	0.448417	-0.018207	10	0.00180143	12	0	0.0649	-8.16432e-06
2	0	0	1	0	1	190.473	0.445151	0.444562	-0.0166869	10	0.00179268	13	0	0.4445	-7.41838e-06
2	0	0	1	0	1	190.823	0.441655	0.441083	-0.0299485	10	0.00178448	13	0	0.7941	-1.32098e-05
2	0	0	1	0	1	191.172	0.438159	0.437625	-0.033143	10	0.00177568	13	0	1.1437	-1.45042e-05
2	0	0	1	0	1	191.522	0.434664	0.43414	-0.0213759	10	0.00176664	13	0	1.4933	-9.28013e-06
2	0	0	1	0	1	191.872	0.431169	0.430616	-0.0197408	10	0.00175745	13	0	1.8428	-8.50073e-06
2	0	0	1	0	1	192.221	0.427672	0.427162	-0.0327634	10	0.00174794	13	0	2.1924	-1.39953e-05
2	0	0	1	0	1	192.571	0.424176	0.423636	-0.0365638	10	0.00173803	13	0	2.542	-1.54898e-05
2	0	0	1	0	1	192.92	0.420679	0.42013	-0.0222831	10	0.001728	13	0	2.8916	-9.36182e-06
2	0	0	1	0	1	193.27	0.417184	0.416623	-0.0241629	10	0.00171787	13	0	3.2411	-1.00668e-05
2	0	0	1	0	1	193.619	0.413688	0.413162	-0.0383505	10	0.00170743	13	0	3.5907	-1.5845e-05
2	0	0	1	0	1	193.969	0.410193	0.409686	-0.0333445	10	0.00169669	13	0	3.9403	-1.36608e-05
2	0	0	1	0	1	194.319	0.406697	0.406189	-0.0226335	10	0.00168595	13	0	4.2899	-9.19346e-06
2	0	0	1	0	1	194.668	0.403201	0.402664	-0.0299134	10	0.00167505	13	0	4.6395	-1.20451e-05
2	0	0	1	0	1	195.018	0.399705	0.399182	-0.041667	10	0.00166373	13	0	4.9891	-1.66327e-05
2	0	0	1	0	1	195.367	0.396209	0.395736	-0.0331917	10	0.00165222	13	0	5.3387	-1.31352e-05
2	0	0	1	0	1	195.717	0.392713	0.392175	-0.0245836	10	0.0016406	13	0	5.6883	-9.64105e-06
2	0	0	1	0	1	196.067	0.389217	0.388695	-0.0329745	10	0.00162886	13	0	6.0379	-1.2817e-05
2	0	0	1	0	1	196.416	0.385722	0.385193	-0.0443522	10	0.00161671	13	0	6.3875	-1.70841e-05
2	0	0	1	0	1	196.766	0.382227	0.381746	-0.0392604	10	0.00160435	13	0	6.737	-1.49875e-05
2	0	0	1	0	1	197.115	0.37873	0.37825	-0.0316029	10	0.00159184	13	0	7.0866	-1.19538e-05
2	0	0	1	0	1	197.465	0.375234	0.374743	-0.0274174	10	0.00157915	13	0	7.4362	-1.02745e-05
2	0	0	1	0	1	197.815	0.371738	0.371198	-0.0320808	10	0.00156623	13	0	7.7858	-1.19083e-05
2	0	0	1	0	1	198.164	0.368242	0.367679	-0.0421278	10	0.001553	13	0	8.1353	-1.54895e-05
2	0	0	1	0	1	198.514	0.364747	0.364208	-0.0482127	10	0.00153945	13	0	8.4849	-1.75595e-05
2	0	0	1	0	1	198.863	0.361251	0.360731	-0.0455554	10	0.00152558	13	0	8.8345	-1.64332e-05
2	0	0	1	0	1	199.213	0.357755	0.357272	-0.0362981	10	0.00151152	13	0	9.1841	-1.29683e-05
2	0	0	1	0	1	199.562	0.354259	0.353708	-0.0321412	10	0.00149727	13	0	9.5337	-1.13686e-05
2	0	0	1	0	1	199.912	0.350763	0.350241	-0.0396968	10	0.00148275	13	0	9.8833	-1.39034e-05
2	0	0	0	0	1	199.986	0.349989	0.349382	-0.02931	10	0.00147935	13	0	9.9572	-1.02404e-05