File: ACS_Catal_2026/Figures_Na_K/main_figures/data/EC/20251112_2-148_alpha_reproducibility/20251112_2-148_005_gamma_reproducibility_K1_01_CVA_C01.mpt
EC-Lab ASCII FILE
Nb header lines : 66

Cyclic Voltammetry Advanced

Run on channel : 1 (SN 69187)
User :
CE vs. WE compliance from -10 V to 10 V
Electrode connection : standard
Potential control : Ewe
Ewe ctrl range : min = -1.00 V, max = 1.00 V
Safety Limits :
	Do not start on E overload
Acquisition started on : 11/12/2025 19:09:25.688
Loaded Setting File :  C:\Users\User\Documents\EC-Lab\Data\Yatsuzuka\20251030_2-147_gamma_reproducibility\20251030_2-147_001_gamma1_K_1.mps
Saved on :
	File : 20251112_2-148_005_gamma_reproducibility_K1_01_CVA_C01.mpr
	Directory : C:\Users\User\Documents\EC-Lab\Data\Yatsuzuka\20251112_2-148_alpha_reproducibility\
	Host : 192.109.209.127
Device : SP-150e (SN .003883)
Address : 192.109.209.128
EC-Lab for windows v11.52 (software)
Internet server v11.52 (firmware)
Command interpretor v11.50 (firmware)
Electrode material :
Initial state :
Electrolyte :
Comments :
Electrode surface area : 0.001 cm2
Characteristic mass : 0.001 g
Equivalent Weight : 0.000 g/eq.
Density : 0.000 g/cm3
Volume (V) : 0.001 cm3
Cycle Definition : Charge/Discharge alternance
Ei (V)              0.350
vs.                 Ref
ti (h:m:s)          0:00:10.0000
dti (s)             0.0000
dE/dt               10.000
dE/dt unit          mV/s
E1 (V)              0.450
vs.                 Ref
t1 (h:m:s)          0:00:0.0000
dt1 (s)             0.1000
Step percent        50
N                   10
E range min (V)     -1.000
E range max (V)     1.000
I Range             Auto
I Range min         Unset
I Range max         Unset
I Range init        Unset
Bandwidth           5
E2 (V)              0.350
vs.                 Ref
t2 (h:m:s)          0:00:0.0000
dt2 (s)             0.1000
nc cycles           9
nr                  1
Reverse Scan        0
Ef (V)              0.000
vs.                 Eoc
tf (h:m:s)          0:00:0.0000
dtf (s)             0.1000

mode	ox/red	error	control changes	Ns changes	counter inc.	time/s	control/V	Ewe/V	<I>/mA	cycle number	(Q-Qo)/C	I Range	Ns	step time/s	P/W
2	1	0	1	0	0	0.000000000000000E+000	0.34995	0.349724	0.00332545	1	0.0000000E+000	13	0	0.000000000000000E+000	1.16299e-06
2	1	0	1	0	0	0.3769	0.353719	0.35346	0.00576261	1	1.4706e-06	13	0	0.3496	2.03685e-06
2	1	0	1	0	0	0.7763	0.357714	0.357462	0.00564887	1	3.12036e-06	13	0	0.749	2.01926e-06
2	1	0	1	0	0	1.1758	0.361709	0.361434	0.0055418	1	4.77165e-06	13	0	1.1485	2.00299e-06
2	1	0	1	0	0	1.5752	0.365702	0.36547	0.00539386	1	6.42124e-06	13	0	1.5479	1.9713e-06
2	0	0	1	0	0	1.9747	0.369697	0.369456	0.00530844	1	8.06992e-06	13	0	1.9474	1.96124e-06
2	0	0	1	0	0	2.3741	0.373692	0.373458	0.00521928	1	9.71468e-06	13	0	2.3468	1.94918e-06
2	0	0	1	0	0	2.7735	0.377686	0.377412	0.00516027	1	1.13571e-05	13	0	2.7462	1.94755e-06
2	0	0	1	0	0	3.173	0.38168	0.38141	0.00511312	1	1.29972e-05	13	0	3.1457	1.95019e-06
2	0	0	1	0	0	3.5725	0.385675	0.385438	0.00506314	1	1.46335e-05	13	0	3.5452	1.95153e-06
2	0	0	1	0	0	3.9719	0.389669	0.389459	0.00503854	1	1.62672e-05	13	0	3.9446	1.96231e-06
2	0	0	1	0	0	4.3713	0.393664	0.393418	0.00501674	1	1.78973e-05	13	0	4.344	1.97368e-06
2	1	0	1	0	0	4.7708	0.397659	0.397382	0.00507851	1	1.95236e-05	13	0	4.7435	2.01811e-06
2	1	0	1	0	0	5.1703	0.401653	0.401415	0.00502474	1	2.11457e-05	13	0	5.143	2.017e-06
2	1	0	1	0	0	5.5697	0.405647	0.405426	0.00502677	1	2.27627e-05	13	0	5.5424	2.03799e-06
2	1	0	1	0	0	5.9691	0.409642	0.409429	0.00493794	1	2.43818e-05	13	0	5.9418	2.02173e-06
2	1	0	1	0	0	6.3686	0.413637	0.413449	0.00499482	1	2.59885e-05	13	0	6.3413	2.0651e-06
2	1	0	1	0	0	6.768	0.41763	0.417387	0.00501623	1	2.75895e-05	13	0	6.7407	2.09371e-06
2	1	0	1	0	0	7.1675	0.421625	0.421356	0.0050172	1	2.91841e-05	13	0	7.1402	2.11403e-06
2	1	0	1	0	0	7.5669	0.42562	0.425385	0.00497879	1	3.07739e-05	13	0	7.5396	2.1179e-06
2	1	0	1	0	0	7.9663	0.429614	0.429444	0.00489362	1	3.23573e-05	13	0	7.939	2.10153e-06
2	1	0	1	0	0	8.3658	0.433608	0.433401	0.00480919	1	3.39334e-05	13	0	8.3385	2.08431e-06
2	1	0	1	0	0	8.7653	0.437603	0.437371	0.00471007	1	3.55038e-05	13	0	8.738	2.06005e-06
2	1	0	1	0	0	9.1647	0.441597	0.441338	0.00457979	1	3.70688e-05	13	0	9.1374	2.02124e-06
2	1	0	1	0	0	9.5641	0.445592	0.445407	0.00437025	1	3.86277e-05	13	0	9.5368	1.94654e-06
2	1	0	1	0	0	9.9636	0.449587	0.44936	0.00424796	1	4.01821e-05	13	0	9.9363	1.90887e-06
2	0	0	1	0	0	10.2799	0.44724	0.44701	-0.00041405	1	4.03187e-05	13	0	0.0999	-1.85084e-07
2	0	0	1	0	0	10.6793	0.443245	0.443021	-0.000786663	1	4.01492e-05	13	0	0.4993	-3.48508e-07
2	0	0	1	0	0	11.0788	0.43925	0.439016	-0.00111799	1	3.98671e-05	13	0	0.8988	-4.90818e-07
2	0	0	1	0	0	11.4782	0.435257	0.435001	-0.00142676	1	3.95021e-05	13	0	1.2982	-6.20642e-07
2	0	0	1	0	0	11.8777	0.431262	0.430978	-0.00160781	1	3.90691e-05	13	0	1.6977	-6.92933e-07
2	0	0	1	0	0	12.2771	0.427267	0.426927	-0.0017923	1	3.85773e-05	13	0	2.0971	-7.6518e-07
2	0	0	1	0	0	12.6765	0.423273	0.423022	-0.00194042	1	3.8035e-05	13	0	2.4965	-8.20841e-07
2	0	0	1	0	0	13.076	0.419278	0.41903	-0.00211715	1	3.74475e-05	13	0	2.896	-8.8715e-07
2	0	0	1	0	0	13.4755	0.415284	0.415039	-0.00234171	1	3.68196e-05	13	0	3.2955	-9.71899e-07
2	0	0	1	0	0	13.8749	0.411289	0.411041	-0.00247198	1	3.61525e-05	13	0	3.6949	-1.01609e-06
2	0	0	1	0	0	14.2743	0.407295	0.407033	-0.00266941	1	3.54512e-05	13	0	4.0943	-1.08654e-06
2	0	0	1	0	0	14.6738	0.4033	0.403036	-0.00290817	1	3.47101e-05	13	0	4.4938	-1.1721e-06
2	0	0	1	0	0	15.0733	0.399306	0.399003	-0.00308431	1	3.39422e-05	13	0	4.8933	-1.23065e-06
2	0	0	1	0	0	15.4727	0.395312	0.395014	-0.00316941	1	3.31462e-05	13	0	5.2927	-1.25196e-06
2	0	0	1	0	0	15.8721	0.391317	0.391056	-0.0032972	1	3.23192e-05	13	0	5.6921	-1.28939e-06
2	0	0	1	0	0	16.2716	0.387322	0.386984	-0.00333569	1	3.1463e-05	13	0	6.0916	-1.29086e-06
2	0	0	1	0	0	16.671	0.383329	0.383009	-0.003345	1	3.05776e-05	13	0	6.491	-1.28116e-06
2	0	0	1	0	0	17.0705	0.379334	0.379068	-0.00334072	1	2.96628e-05	13	0	6.8905	-1.26636e-06
2	0	0	1	0	0	17.4699	0.375339	0.375067	-0.00350921	1	2.87172e-05	13	0	7.2899	-1.31619e-06
2	0	0	1	0	0	17.8693	0.371345	0.371101	-0.00364646	1	2.77425e-05	13	0	7.6893	-1.35321e-06
2	0	0	1	0	0	18.2688	0.36735	0.367097	-0.00372678	1	2.67412e-05	13	0	8.0888	-1.36809e-06
2	0	0	1	0	0	18.6683	0.363356	0.363092	-0.00377273	1	2.57123e-05	13	0	8.4883	-1.36985e-06
2	0	0	1	0	0	19.0677	0.359361	0.359082	-0.00389426	1	2.46506e-05	13	0	8.8877	-1.39836e-06
2	0	0	1	0	0	19.4671	0.355367	0.355079	-0.00392255	1	2.3563e-05	13	0	9.2871	-1.39282e-06
2	0	0	1	0	0	19.8666	0.351372	0.351075	-0.00395054	1	2.24419e-05	13	0	9.6866	-1.38694e-06
2	0	0	1	0	1	20.1338	0.351322	0.351056	0.00405056	2	2.24069e-05	13	0	0.1274	1.42197e-06
2	0	0	1	0	1	20.5333	0.355317	0.355058	0.00400561	2	2.36311e-05	13	0	0.5269	1.42222e-06
2	0	0	1	0	1	20.9327	0.359311	0.359054	0.0039291	2	2.48719e-05	13	0	0.9263	1.41076e-06
2	0	0	1	0	1	21.3321	0.363306	0.363129	0.00383681	2	2.61104e-05	13	0	1.3257	1.39326e-06
2	0	0	1	0	1	21.7316	0.3673	0.367045	0.00383478	2	2.73395e-05	13	0	1.7252	1.40754e-06
2	0	0	1	0	1	22.1311	0.371295	0.37111	0.00374078	2	2.85548e-05	13	0	2.1247	1.38824e-06
2	0	0	1	0	1	22.5305	0.375289	0.375045	0.00374261	2	2.97594e-05	13	0	2.5241	1.40365e-06
2	0	0	1	0	1	22.9299	0.379284	0.379047	0.00375135	2	3.09509e-05	13	0	2.9235	1.42194e-06
2	0	0	1	0	1	23.3294	0.383279	0.38306	0.00380952	2	3.21275e-05	13	0	3.323	1.45927e-06
2	0	0	1	0	1	23.7288	0.387272	0.386978	0.00374072	2	3.32922e-05	13	0	3.7224	1.44758e-06
2	0	0	1	0	1	24.1283	0.391267	0.391008	0.00374887	2	3.44428e-05	13	0	4.1219	1.46584e-06
2	0	0	1	0	1	24.5277	0.395262	0.395007	0.0037043	2	3.55846e-05	13	0	4.5213	1.46322e-06
2	0	0	1	0	1	24.9271	0.399256	0.398998	0.00377015	2	3.67132e-05	13	0	4.9207	1.50428e-06
2	0	0	1	0	1	25.3266	0.40325	0.402983	0.00382843	2	3.78345e-05	13	0	5.3202	1.54279e-06
2	1	0	1	0	1	25.7261	0.407245	0.406997	0.00380976	2	3.89534e-05	13	0	5.7197	1.55056e-06
2	1	0	1	0	1	26.1255	0.411239	0.411055	0.00381427	2	4.00591e-05	13	0	6.1191	1.56787e-06
2	1	0	1	0	1	26.5249	0.415234	0.415004	0.0038232	2	4.116e-05	13	0	6.5185	1.58664e-06
2	1	0	1	0	1	26.9244	0.419228	0.418998	0.00382923	2	4.22574e-05	13	0	6.918	1.60444e-06
2	1	0	1	0	1	27.3239	0.423223	0.422969	0.00381161	2	4.33527e-05	13	0	7.3175	1.6122e-06
2	1	0	1	0	1	27.7233	0.427217	0.427014	0.00383968	2	4.44473e-05	13	0	7.7169	1.6396e-06
2	1	0	1	0	1	28.1227	0.431212	0.430958	0.00385565	2	4.55426e-05	13	0	8.1163	1.66162e-06
2	1	0	1	0	1	28.5222	0.435207	0.43495	0.00383627	2	4.66394e-05	13	0	8.5158	1.66859e-06
2	1	0	1	0	1	28.9216	0.4392	0.438928	0.00382585	2	4.7739e-05	13	0	8.9152	1.67927e-06
2	1	0	1	0	1	29.3211	0.443195	0.442966	0.00383799	2	4.88445e-05	13	0	9.3147	1.7001e-06
2	1	0	1	0	1	29.7205	0.44719	0.446952	0.00387201	2	4.99573e-05	13	0	9.7141	1.7306e-06
2	0	0	1	0	1	30.0268	0.449737	0.449488	-0.000595687	2	5.07247e-05	13	0	0.000000000000000E+000	-2.67754e-07
2	0	0	1	0	1	30.4263	0.445742	0.445471	-0.000992866	2	5.03514e-05	13	0	0.3995	-4.42293e-07
2	0	0	1	0	1	30.8257	0.441747	0.441516	-0.00110032	2	4.98933e-05	13	0	0.7989	-4.8581e-07
2	0	0	1	0	1	31.2251	0.437753	0.437482	-0.00117811	2	4.93814e-05	13	0	1.1983	-5.15401e-07
2	0	0	1	0	1	31.6246	0.433759	0.433462	-0.00126808	2	4.8825e-05	13	0	1.5978	-5.49665e-07
2	0	0	1	0	1	32.0241	0.429764	0.429542	-0.00127047	2	4.82299e-05	13	0	1.9973	-5.45721e-07
2	0	0	1	0	1	32.4235	0.425769	0.425537	-0.00137065	2	4.76016e-05	13	0	2.3967	-5.83263e-07
2	0	0	1	0	1	32.8229	0.421775	0.421454	-0.00149369	2	4.69431e-05	13	0	2.7961	-6.29522e-07
2	0	0	1	0	1	33.2224	0.41778	0.417484	-0.00147796	2	4.6254e-05	13	0	3.1956	-6.17023e-07
2	1	0	1	0	1	33.6219	0.413786	0.413526	-0.00151407	2	4.55378e-05	13	0	3.5951	-6.26107e-07
2	1	0	1	0	1	34.0213	0.409791	0.409531	-0.00159281	2	4.47953e-05	13	0	3.9945	-6.52307e-07
2	0	0	1	0	1	34.4207	0.405797	0.405528	-0.00159867	2	4.40235e-05	13	0	4.3939	-6.48307e-07
2	1	0	1	0	1	34.8202	0.401802	0.401519	-0.00148913	2	4.32281e-05	13	0	4.7934	-5.97915e-07
2	1	0	1	0	1	35.2196	0.397809	0.397491	-0.0016363	2	4.24089e-05	13	0	5.1928	-6.50417e-07
2	1	0	1	0	1	35.6191	0.393814	0.393522	-0.00172401	2	4.15638e-05	13	0	5.5923	-6.78435e-07
2	0	0	1	0	1	36.0185	0.389819	0.38955	-0.00170084	2	4.0693e-05	13	0	5.9917	-6.6256e-07
2	0	0	1	0	1	36.4179	0.385825	0.385521	-0.00184231	2	3.97975e-05	13	0	6.3911	-7.1025e-07
2	0	0	1	0	1	36.8174	0.381831	0.381539	-0.0015803	2	3.8878e-05	13	0	6.7906	-6.02946e-07
2	0	0	1	0	1	37.2169	0.377836	0.377538	-0.00130301	2	3.79318e-05	13	0	7.1901	-4.91937e-07
2	0	0	1	0	1	37.6163	0.373841	0.37359	-0.00116944	2	3.69606e-05	13	0	7.5895	-4.36892e-07
2	0	0	1	0	1	38.0157	0.369847	0.369591	-0.00123884	2	3.59616e-05	13	0	7.9889	-4.57864e-07
2	0	0	1	0	1	38.4152	0.365852	0.36559	-0.00128707	2	3.4936e-05	13	0	8.3884	-4.70541e-07
2	0	0	1	0	1	38.8147	0.361858	0.361551	-0.00136232	2	3.38853e-05	13	0	8.7879	-4.9255e-07
2	0	0	1	0	1	39.2141	0.357864	0.357562	-0.00151288	2	3.28059e-05	13	0	9.1873	-5.4095e-07
2	0	0	1	0	1	39.6135	0.353869	0.353604	-0.00161457	2	3.16957e-05	13	0	9.5867	-5.70919e-07
2	0	0	1	0	1	39.9931	0.350074	0.349847	-0.00489651	2	3.0583e-05	13	0	9.9663	-1.71303e-06
2	1	0	1	0	0	40.2802	0.35282	0.352548	0.00280313	3	3.13841e-05	13	0	0.2772	9.88239e-07
2	1	0	1	0	0	40.6797	0.356815	0.356588	0.00306582	3	3.25415e-05	13	0	0.6767	1.09323e-06
2	1	0	1	0	0	41.0791	0.360809	0.360546	0.0031123	3	3.37041e-05	13	0	1.0761	1.12213e-06
2	1	0	1	0	0	41.4785	0.364804	0.364542	0.00322596	3	3.48582e-05	13	0	1.4755	1.176e-06
2	1	0	1	0	0	41.878	0.368799	0.368518	0.00344684	3	3.60014e-05	13	0	1.875	1.27022e-06
2	1	0	1	0	0	42.2775	0.372793	0.372597	0.00353712	3	3.71294e-05	13	0	2.2745	1.31792e-06
2	1	0	1	0	0	42.6769	0.376787	0.376564	0.00352858	3	3.82458e-05	13	0	2.6739	1.32874e-06
2	1	0	1	0	0	43.0763	0.380782	0.380509	0.00365454	3	3.93462e-05	13	0	3.0733	1.39059e-06
2	1	0	1	0	0	43.4758	0.384777	0.384489	0.0037732	3	4.04332e-05	13	0	3.4728	1.45076e-06
2	1	0	1	0	0	43.8752	0.38877	0.388539	0.00380211	3	4.15064e-05	13	0	3.8722	1.47727e-06
2	1	0	1	0	0	44.2747	0.392765	0.392525	0.00381249	3	4.25667e-05	13	0	4.2717	1.4965e-06
2	1	0	1	0	0	44.6741	0.39676	0.396524	0.00380112	3	4.36149e-05	13	0	4.6711	1.50723e-06
2	1	0	1	0	0	45.0735	0.400754	0.400514	0.00373203	3	4.46522e-05	13	0	5.0705	1.49473e-06
2	1	0	1	0	0	45.473	0.404748	0.404513	0.00366032	3	4.56773e-05	13	0	5.47	1.48065e-06
2	0	0	1	0	0	45.8725	0.408743	0.408549	0.00348568	3	4.67022e-05	13	0	5.8695	1.42407e-06
2	0	0	1	0	0	46.2719	0.412737	0.41255	0.00320951	3	4.77116e-05	13	0	6.2689	1.32408e-06
2	0	0	1	0	0	46.6713	0.416732	0.416513	0.00298371	3	4.8712e-05	13	0	6.6683	1.24275e-06
2	0	0	1	0	0	47.0708	0.420727	0.420484	0.00281368	3	4.9707e-05	13	0	7.0678	1.18311e-06
2	0	0	1	0	0	47.4703	0.424721	0.424476	0.00265463	3	5.06988e-05	13	0	7.4673	1.12683e-06
2	0	0	1	0	0	47.8697	0.428715	0.428484	0.00252643	3	5.16852e-05	13	0	7.8667	1.08254e-06
2	0	0	1	0	0	48.2691	0.43271	0.432523	0.00235026	3	5.26681e-05	13	0	8.2661	1.01654e-06
2	0	0	1	0	0	48.6686	0.436705	0.436465	0.0023123	3	5.36513e-05	13	0	8.6656	1.00924e-06
2	0	0	1	0	0	49.068	0.440698	0.440469	0.00218685	3	5.4636e-05	13	0	9.065	9.63242e-07
2	0	0	1	0	0	49.4675	0.444693	0.444487	0.00201533	3	5.56237e-05	13	0	9.4645	8.95787e-07
2	0	0	1	0	0	49.8669	0.448687	0.448464	0.00192925	3	5.66166e-05	13	0	9.8639	8.65201e-07
2	1	0	1	0	0	50.1732	0.448239	0.448	-0.00189907	3	5.67669e-05	13	0	0.1498	-8.50783e-07
2	1	0	1	0	0	50.5727	0.444244	0.44393	-0.00206394	3	5.62844e-05	13	0	0.5493	-9.16246e-07
2	1	0	1	0	0	50.9721	0.440249	0.439996	-0.00220973	3	5.57475e-05	13	0	0.9487	-9.72272e-07
2	0	0	1	0	0	51.3715	0.436255	0.435974	-0.00234727	3	5.51698e-05	13	0	1.3481	-1.02335e-06
2	0	0	1	0	0	51.771	0.43226	0.432044	-0.00248281	3	5.45595e-05	13	0	1.7476	-1.07268e-06
2	0	0	1	0	0	52.1705	0.428266	0.427995	-0.00256996	3	5.39193e-05	13	0	2.1471	-1.09993e-06
2	0	0	1	0	0	52.5699	0.424271	0.424007	-0.00270041	3	5.32501e-05	13	0	2.5465	-1.14499e-06
2	0	0	1	0	0	52.9693	0.420277	0.419991	-0.00284696	3	5.25556e-05	13	0	2.9459	-1.1957e-06
2	0	0	1	0	0	53.3688	0.416282	0.416041	-0.00294936	3	5.18366e-05	13	0	3.3454	-1.22705e-06
2	0	0	1	0	0	53.7683	0.412288	0.412055	-0.0030135	3	5.10954e-05	13	0	3.7449	-1.24173e-06
2	0	0	1	0	0	54.1677	0.408294	0.408077	-0.00311555	3	5.03315e-05	13	0	4.1443	-1.27138e-06
2	0	0	1	0	0	54.5671	0.404299	0.404015	-0.00326012	3	4.95387e-05	13	0	4.5437	-1.31713e-06
2	0	0	1	0	0	54.9666	0.400304	0.400036	-0.00336977	3	4.87302e-05	13	0	4.9432	-1.34803e-06
2	0	0	1	0	0	55.366	0.396311	0.396031	-0.00344158	3	4.78974e-05	13	0	5.3426	-1.36297e-06
2	0	0	1	0	0	55.7655	0.392316	0.392025	-0.00353709	3	4.7044e-05	13	0	5.7421	-1.38662e-06
2	0	0	1	0	0	56.1649	0.388321	0.388058	-0.00362054	3	4.61657e-05	13	0	6.1415	-1.40498e-06
2	0	0	1	0	0	56.5643	0.384327	0.38407	-0.00372193	3	4.52645e-05	13	0	6.5409	-1.42948e-06
2	0	0	1	0	0	56.9638	0.380332	0.380035	-0.00381706	3	4.43388e-05	13	0	6.9404	-1.45062e-06
2	0	0	1	0	0	57.3633	0.376338	0.37603	-0.00384107	3	4.33922e-05	13	0	7.3399	-1.44436e-06
2	0	0	1	0	0	57.7627	0.372343	0.372058	-0.00392409	3	4.24183e-05	13	0	7.7393	-1.45999e-06
2	0	0	1	0	0	58.1621	0.368349	0.368054	-0.00396027	3	4.14203e-05	13	0	8.1387	-1.45759e-06
2	0	0	1	0	0	58.5616	0.364354	0.364058	-0.00404551	3	4.03939e-05	13	0	8.5382	-1.4728e-06
2	0	0	1	0	0	58.9611	0.36036	0.36006	-0.00416402	3	3.93419e-05	13	0	8.9377	-1.4993e-06
2	0	0	1	0	0	59.3605	0.356366	0.35605	-0.00418538	3	3.82657e-05	13	0	9.3371	-1.49021e-06
2	0	0	1	0	0	59.7599	0.352371	0.352103	-0.00421282	3	3.71582e-05	13	0	9.7365	-1.48335e-06
2	1	0	1	0	1	60.0271	0.350324	0.350082	0.00400498	4	3.65554e-05	13	0	0.000000000000000E+000	1.40207e-06
2	1	0	1	0	1	60.4266	0.354318	0.354062	0.00421431	4	3.76475e-05	13	0	0.3995	1.49213e-06
2	1	0	1	0	1	60.8261	0.358313	0.358092	0.00413264	4	3.8771e-05	13	0	0.799	1.47986e-06
2	0	0	1	0	1	61.2255	0.362307	0.362098	0.00404601	4	3.9891e-05	13	0	1.1984	1.46505e-06
2	0	0	1	0	1	61.6249	0.366302	0.366027	0.00394696	4	4.10024e-05	13	0	1.5978	1.44469e-06
2	0	0	1	0	1	62.0244	0.370297	0.370087	0.00383604	4	4.21004e-05	13	0	1.9973	1.41967e-06
2	0	0	1	0	1	62.4238	0.37429	0.374006	0.00381764	4	4.31828e-05	13	0	2.3967	1.42782e-06
2	0	0	1	0	1	62.8233	0.378285	0.378067	0.00372797	4	4.42505e-05	13	0	2.7962	1.40942e-06
2	0	0	1	0	1	63.2227	0.38228	0.382018	0.00366244	4	4.53046e-05	13	0	3.1956	1.39912e-06
2	0	0	1	0	1	63.6221	0.386274	0.386058	0.00357611	4	4.63421e-05	13	0	3.595	1.38058e-06
2	1	0	1	0	1	64.0216	0.390268	0.390038	0.00341941	4	4.73641e-05	13	0	3.9945	1.3337e-06
2	1	0	1	0	1	64.4211	0.394263	0.394048	0.00321593	4	4.83736e-05	13	0	4.394	1.26723e-06
2	1	0	1	0	1	64.8205	0.398257	0.398009	0.00301144	4	4.93712e-05	13	0	4.7934	1.19858e-06
2	1	0	1	0	1	65.2199	0.402252	0.401952	0.00279499	4	5.03563e-05	13	0	5.1928	1.12345e-06
2	1	0	1	0	1	65.6194	0.406246	0.40606	0.00279487	4	5.13335e-05	13	0	5.5923	1.13489e-06
2	1	0	1	0	1	66.0189	0.410241	0.410056	0.00248805	4	5.22989e-05	13	0	5.9918	1.02024e-06
2	1	0	1	0	1	66.4183	0.414235	0.414077	0.00242663	4	5.32549e-05	13	0	6.3912	1.00481e-06
2	1	0	1	0	1	66.8177	0.41823	0.418038	0.00208205	4	5.42024e-05	13	0	6.7906	8.70377e-07
2	1	0	1	0	1	67.2172	0.422225	0.42203	0.0018245	4	5.51436e-05	13	0	7.1901	7.69991e-07
2	1	0	1	0	1	67.6167	0.426219	0.426001	0.00166762	4	5.60787e-05	13	0	7.5896	7.10409e-07
2	1	0	1	0	1	68.0161	0.430213	0.430004	0.00164534	4	5.7009e-05	13	0	7.989	7.07503e-07
2	1	0	1	0	1	68.4155	0.434208	0.434006	0.00165257	4	5.7937e-05	13	0	8.3884	7.17224e-07
2	1	0	1	0	1	68.815	0.438203	0.438016	0.00163056	4	5.88626e-05	13	0	8.7879	7.14211e-07
2	1	0	1	0	1	69.2144	0.442196	0.441978	0.00158353	4	5.9788e-05	13	0	9.1873	6.99887e-07
2	1	0	1	0	1	69.6139	0.446191	0.445955	0.00152112	4	6.07159e-05	13	0	9.5868	6.7835e-07
2	1	0	1	0	1	69.9908	0.449961	0.449812	0.00337575	4	6.16177e-05	13	0	9.9637	1.51845e-06
2	0	0	1	0	1	70.3196	0.446741	0.446524	-0.00151388	4	6.12137e-05	13	0	0.2996	-6.75985e-07
2	0	0	1	0	1	70.7191	0.442746	0.442441	-0.00171671	4	6.06807e-05	13	0	0.6991	-7.5954e-07
2	0	0	1	0	1	71.1185	0.438751	0.438499	-0.00172882	4	6.01054e-05	13	0	1.0985	-7.58087e-07
2	0	0	1	0	1	71.5179	0.434757	0.434492	-0.00164978	4	5.9497e-05	13	0	1.4979	-7.16817e-07
2	0	0	1	0	1	71.9174	0.430762	0.430503	-0.00159898	4	5.88609e-05	13	0	1.8974	-6.88364e-07
2	0	0	1	0	1	72.3169	0.426768	0.426495	-0.00153879	4	5.81994e-05	13	0	2.2969	-6.56288e-07
2	0	0	1	0	1	72.7163	0.422774	0.422498	-0.0014184	4	5.75136e-05	13	0	2.6963	-5.9927e-07
2	0	0	1	0	1	73.1157	0.418779	0.418479	-0.00140193	4	5.68079e-05	13	0	3.0957	-5.86677e-07
2	0	0	1	0	1	73.5152	0.414784	0.414481	-0.00142572	4	5.60807e-05	13	0	3.4952	-5.90934e-07
2	0	0	1	0	1	73.9146	0.410791	0.410579	-0.00146726	4	5.5333e-05	13	0	3.8946	-6.02425e-07
2	0	0	1	0	1	74.3141	0.406796	0.406515	-0.00140336	4	5.45637e-05	13	0	4.2941	-5.70486e-07
2	0	0	1	0	1	74.7135	0.402801	0.40248	-0.00139629	4	5.3768e-05	13	0	4.6935	-5.61977e-07
2	0	0	1	0	1	75.1129	0.398807	0.398513	-0.00142432	4	5.29541e-05	13	0	5.0929	-5.67612e-07
2	0	0	1	0	1	75.5124	0.394813	0.394498	-0.00133217	4	5.21192e-05	13	0	5.4924	-5.25538e-07
2	0	0	1	0	1	75.9119	0.390818	0.390527	-0.0013481	4	5.12609e-05	13	0	5.8919	-5.26469e-07
2	0	0	1	0	1	76.3113	0.386823	0.386522	-0.00132405	4	5.03811e-05	13	0	6.2913	-5.11775e-07
2	0	0	1	0	1	76.7107	0.382829	0.382556	-0.00134769	4	4.94805e-05	13	0	6.6907	-5.15567e-07
2	0	0	1	0	1	77.1102	0.378834	0.378544	-0.00134562	4	4.85551e-05	13	0	7.0902	-5.09377e-07
2	0	0	1	0	1	77.5097	0.37484	0.37457	-0.00135328	4	4.76068e-05	13	0	7.4897	-5.069e-07
2	0	0	1	0	1	77.9091	0.370846	0.370593	-0.0013149	4	4.6633e-05	13	0	7.8891	-4.87292e-07
2	1	0	1	0	1	78.3085	0.366851	0.366562	-0.00134679	4	4.56326e-05	13	0	8.2885	-4.93683e-07
2	1	0	1	0	1	78.708	0.362856	0.362623	-0.00136569	4	4.46059e-05	13	0	8.688	-4.9523e-07
2	1	0	1	0	1	79.1074	0.358863	0.358637	-0.00134046	4	4.35533e-05	13	0	9.0874	-4.8074e-07
2	1	0	1	0	1	79.5069	0.354868	0.354586	-0.00133163	4	4.24693e-05	13	0	9.4869	-4.72179e-07
2	1	0	1	0	1	79.9063	0.350873	0.350633	-0.00130682	4	4.13597e-05	13	0	9.8863	-4.58214e-07
2	1	0	1	0	0	80.1735	0.351822	0.35157	0.00178743	5	4.1566e-05	13	0	0.1498	6.28406e-07
2	1	0	1	0	0	80.573	0.355817	0.355599	0.00182563	5	4.26535e-05	13	0	0.5493	6.49192e-07
2	1	0	1	0	0	80.9725	0.359811	0.359597	0.00198858	5	4.37495e-05	13	0	0.9488	7.15088e-07
2	1	0	1	0	0	81.3719	0.363805	0.363556	0.00215219	5	4.48397e-05	13	0	1.3482	7.82439e-07
2	1	0	1	0	0	81.7713	0.3678	0.36756	0.00211493	5	4.59181e-05	13	0	1.7476	7.77364e-07
2	1	0	1	0	0	82.1708	0.371795	0.371582	0.00215698	5	4.69846e-05	13	0	2.1471	8.01495e-07
2	1	0	1	0	0	82.5702	0.375788	0.375509	0.00246291	5	4.80362e-05	13	0	2.5465	9.24844e-07
2	1	0	1	0	0	82.9697	0.379783	0.379526	0.00268782	5	4.90733e-05	13	0	2.946	1.0201e-06
2	1	0	1	0	0	83.3691	0.383778	0.383503	0.00282932	5	5.00946e-05	13	0	3.3454	1.08505e-06
2	1	0	1	0	0	83.7685	0.387772	0.387475	0.00291998	5	5.11027e-05	13	0	3.7448	1.13142e-06
2	1	0	1	0	0	84.168	0.391766	0.391555	0.00299553	5	5.20953e-05	13	0	4.1443	1.17291e-06
2	1	0	1	0	0	84.5675	0.395761	0.395519	0.00299006	5	5.30724e-05	13	0	4.5438	1.18263e-06
2	1	0	1	0	0	84.9669	0.399755	0.399533	0.00305201	5	5.40377e-05	13	0	4.9432	1.21938e-06
2	1	0	1	0	0	85.3663	0.40375	0.403485	0.00304692	5	5.49902e-05	13	0	5.3426	1.22939e-06
2	1	0	1	0	0	85.7658	0.407745	0.407545	0.00300362	5	5.59369e-05	13	0	5.7421	1.22411e-06
2	1	0	1	0	0	86.1653	0.411739	0.411562	0.00290356	5	5.6867e-05	13	0	6.1416	1.195e-06
2	1	0	1	0	0	86.5647	0.415733	0.41551	0.00284449	5	5.77894e-05	13	0	6.541	1.18191e-06
2	1	0	1	0	0	86.9641	0.419728	0.419473	0.00289414	5	5.87022e-05	13	0	6.9404	1.21401e-06
2	1	0	1	0	0	87.3636	0.423723	0.423498	0.00291278	5	5.96092e-05	13	0	7.3399	1.23356e-06
2	1	0	1	0	0	87.763	0.427716	0.427455	0.00297098	5	6.05086e-05	13	0	7.7393	1.26996e-06
2	1	0	1	0	0	88.1625	0.431711	0.431486	0.00294509	5	6.14022e-05	13	0	8.1388	1.27076e-06
2	1	0	1	0	0	88.5619	0.435706	0.435486	0.00294981	5	6.2292e-05	13	0	8.5382	1.2846e-06
2	1	0	1	0	0	88.9613	0.4397	0.439446	0.00287042	5	6.31809e-05	13	0	8.9376	1.2614e-06
2	1	0	1	0	0	89.3608	0.443694	0.443503	0.00276839	5	6.40693e-05	13	0	9.3371	1.22779e-06
2	1	0	1	0	0	89.7603	0.447689	0.447473	0.00268318	5	6.49568e-05	13	0	9.7366	1.20065e-06
2	0	0	1	0	0	90.0665	0.449237	0.448991	-0.000584611	5	6.5382e-05	13	0	0.0499	-2.62485e-07
2	0	0	1	0	0	90.466	0.445242	0.444969	-0.000778651	5	6.48732e-05	13	0	0.4494	-3.46475e-07
2	0	0	1	0	0	90.8655	0.441248	0.44095	-0.00081957	5	6.43126e-05	13	0	0.8489	-3.61389e-07
2	0	0	1	0	0	91.2649	0.437253	0.436986	-0.000881784	5	6.37163e-05	13	0	1.2483	-3.85327e-07
2	0	0	1	0	0	91.6643	0.433259	0.432987	-0.000877446	5	6.30917e-05	13	0	1.6477	-3.79923e-07
2	0	0	1	0	0	92.0638	0.429264	0.428992	-0.000887134	5	6.24428e-05	13	0	2.0472	-3.80574e-07
2	0	0	1	0	0	92.4632	0.425271	0.425053	-0.000907944	5	6.17702e-05	13	0	2.4466	-3.85924e-07
2	0	0	1	0	0	92.8627	0.421276	0.420996	-0.000936087	5	6.10773e-05	13	0	2.8461	-3.94089e-07
2	0	0	1	0	0	93.2621	0.417281	0.417014	-0.000952375	5	6.03625e-05	13	0	3.2455	-3.97153e-07
2	0	0	1	0	0	93.6616	0.413286	0.413056	-0.000972574	5	5.96266e-05	13	0	3.645	-4.01727e-07
2	0	0	1	0	0	94.061	0.409293	0.409064	-0.00090292	5	5.8869e-05	13	0	4.0444	-3.69352e-07
2	1	0	1	0	0	94.4605	0.405298	0.405053	-0.000970849	5	5.80865e-05	13	0	4.4439	-3.93245e-07
2	1	0	1	0	0	94.8599	0.401303	0.40105	-0.00102514	5	5.72881e-05	13	0	4.8433	-4.11134e-07
2	1	0	1	0	0	95.2593	0.397309	0.397069	-0.0010674	5	5.64698e-05	13	0	5.2427	-4.23829e-07
2	1	0	1	0	0	95.6588	0.393314	0.393049	-0.00115253	5	5.56301e-05	13	0	5.6422	-4.53002e-07
2	1	0	1	0	0	96.0583	0.38932	0.389056	-0.00123577	5	5.47684e-05	13	0	6.0417	-4.80782e-07
2	1	0	1	0	0	96.4577	0.385325	0.385008	-0.00119408	5	5.38861e-05	13	0	6.4411	-4.59731e-07
2	1	0	1	0	0	96.8571	0.381331	0.381041	-0.00123114	5	5.29797e-05	13	0	6.8405	-4.69113e-07
2	1	0	1	0	0	97.2566	0.377336	0.377108	-0.00123984	5	5.20518e-05	13	0	7.24	-4.67554e-07
2	1	0	1	0	0	97.6561	0.373342	0.373063	-0.00122631	5	5.11007e-05	13	0	7.6395	-4.5749e-07
2	1	0	1	0	0	98.0555	0.369348	0.369072	-0.00124407	5	5.01236e-05	13	0	8.0389	-4.59151e-07
2	1	0	1	0	0	98.4549	0.365353	0.365073	-0.00127929	5	4.91223e-05	13	0	8.4383	-4.67034e-07
2	1	0	1	0	0	98.8544	0.361358	0.361142	-0.0012511	5	4.80953e-05	13	0	8.8378	-4.51823e-07
2	1	0	1	0	0	99.2538	0.357365	0.35709	-0.0012872	5	4.70407e-05	13	0	9.2372	-4.59645e-07
2	1	0	1	0	0	99.6533	0.35337	0.35302	-0.00133627	5	4.59585e-05	13	0	9.6367	-4.71731e-07
2	0	0	1	0	0	99.9878	0.35	0.349724	-0.00413737	5	4.50514e-05	13	0	9.9712	-1.44693e-06
2	1	0	1	0	1	100.32	0.35332	0.35307	0.00195373	6	4.5887e-05	13	0	0.3271	6.89802e-07
2	1	0	1	0	1	100.719	0.357315	0.357068	0.00199324	6	4.69618e-05	13	0	0.7266	7.11722e-07
2	1	0	1	0	1	101.119	0.361308	0.361062	0.00200907	6	4.80356e-05	13	0	1.126	7.254e-07
2	1	0	1	0	1	101.518	0.365303	0.365035	0.0020342	6	4.90996e-05	13	0	1.5255	7.42553e-07
2	1	0	1	0	1	101.918	0.369298	0.369048	0.00205565	6	5.01513e-05	13	0	1.9249	7.58634e-07
2	1	0	1	0	1	102.317	0.373292	0.373038	0.00213836	6	5.11862e-05	13	0	2.3243	7.97689e-07
2	1	0	1	0	1	102.717	0.377286	0.377075	0.00211604	6	5.22079e-05	13	0	2.7238	7.97904e-07
2	1	0	1	0	1	103.116	0.381281	0.381002	0.00207937	6	5.32127e-05	13	0	3.1233	7.92243e-07
2	1	0	1	0	1	103.515	0.385275	0.385001	0.00207694	6	5.42042e-05	13	0	3.5227	7.99626e-07
2	1	0	1	0	1	103.915	0.38927	0.389035	0.00199702	6	5.51811e-05	13	0	3.9221	7.7691e-07
2	1	0	1	0	1	104.314	0.393264	0.393011	0.00191233	6	5.61451e-05	13	0	4.3216	7.51565e-07
2	1	0	1	0	1	104.714	0.397259	0.397071	0.00178914	6	5.70957e-05	13	0	4.7211	7.10417e-07
2	1	0	1	0	1	105.113	0.401253	0.401011	0.00175047	6	5.80338e-05	13	0	5.1205	7.01958e-07
2	1	0	1	0	1	105.513	0.405248	0.405024	0.00167591	6	5.89589e-05	13	0	5.5199	6.78783e-07
2	1	0	1	0	1	105.912	0.409243	0.409063	0.00165178	6	5.98788e-05	13	0	5.9194	6.7568e-07
2	1	0	1	0	1	106.312	0.413236	0.413005	0.00166666	6	6.07807e-05	13	0	6.3188	6.88338e-07
2	1	0	1	0	1	106.711	0.417231	0.417041	0.00164446	6	6.16746e-05	13	0	6.7183	6.85807e-07
2	1	0	1	0	1	107.11	0.421226	0.42099	0.00160141	6	6.25603e-05	13	0	7.1177	6.74177e-07
2	1	0	1	0	1	107.51	0.425221	0.425033	0.00155982	6	6.34394e-05	13	0	7.5172	6.62976e-07
2	1	0	1	0	1	107.909	0.429214	0.429014	0.00156558	6	6.4312e-05	13	0	7.9166	6.71658e-07
2	1	0	1	0	1	108.309	0.433209	0.432972	0.00156828	6	6.5178e-05	13	0	8.3161	6.79022e-07
2	1	0	1	0	1	108.708	0.437203	0.436955	0.00161425	6	6.60404e-05	13	0	8.7155	7.05355e-07
2	1	0	1	0	1	109.108	0.441198	0.441026	0.00165469	6	6.69007e-05	13	0	9.1149	7.29761e-07
2	1	0	1	0	1	109.507	0.445192	0.444923	0.00169019	6	6.77581e-05	13	0	9.5144	7.52003e-07
2	1	0	1	0	1	109.907	0.449187	0.449026	0.00184264	6	6.86161e-05	13	0	9.9139	8.27394e-07
2	1	0	1	0	1	110.213	0.447739	0.447481	-0.002157	6	6.85205e-05	13	0	0.1997	-9.65218e-07
2	0	0	1	0	1	110.612	0.443744	0.443529	-0.00228739	6	6.79796e-05	13	0	0.5992	-1.01452e-06
2	0	0	1	0	1	111.012	0.43975	0.439517	-0.00233446	6	6.73982e-05	13	0	0.9987	-1.02604e-06
2	0	0	1	0	1	111.411	0.435755	0.435503	-0.00234092	6	6.6787e-05	13	0	1.3981	-1.01948e-06
2	0	0	1	0	1	111.811	0.431761	0.431554	-0.00229228	6	6.61507e-05	13	0	1.7975	-9.89244e-07
2	0	0	1	0	1	112.21	0.427766	0.427523	-0.00220936	6	6.54899e-05	13	0	2.197	-9.44552e-07
2	0	0	1	0	1	112.61	0.423773	0.423503	-0.00209552	6	6.48084e-05	13	0	2.5964	-8.87459e-07
2	0	0	1	0	1	113.009	0.419778	0.41953	-0.00201954	6	6.4106e-05	13	0	2.9959	-8.47256e-07
2	1	0	1	0	1	113.408	0.415783	0.415527	-0.0018242	6	6.33836e-05	13	0	3.3953	-7.58003e-07
2	1	0	1	0	1	113.808	0.411789	0.411555	-0.00171777	6	6.2641e-05	13	0	3.7947	-7.06956e-07
2	1	0	1	0	1	114.207	0.407795	0.407516	-0.00160159	6	6.18787e-05	13	0	4.1942	-6.52672e-07
2	1	0	1	0	1	114.607	0.4038	0.40351	-0.00142822	6	6.10912e-05	13	0	4.5937	-5.76301e-07
2	1	0	1	0	1	115.006	0.399805	0.399542	-0.0012778	6	6.02879e-05	13	0	4.9931	-5.10535e-07
2	1	0	1	0	1	115.406	0.395811	0.395551	-0.00109119	6	5.94664e-05	13	0	5.3925	-4.31622e-07
2	1	0	1	0	1	115.805	0.391816	0.391505	-0.000971968	6	5.86226e-05	13	0	5.792	-3.8053e-07
2	1	0	1	0	1	116.205	0.387822	0.387572	-0.000992348	6	5.77608e-05	13	0	6.1915	-3.84606e-07
2	1	0	1	0	1	116.604	0.383828	0.383559	-0.000952769	6	5.68757e-05	13	0	6.5909	-3.65443e-07
2	1	0	1	0	1	117.003	0.379833	0.379538	-0.000983659	6	5.5967e-05	13	0	6.9903	-3.73336e-07
2	1	0	1	0	1	117.403	0.375838	0.375577	-0.00103815	6	5.50356e-05	13	0	7.3898	-3.89904e-07
2	1	0	1	0	1	117.802	0.371845	0.371606	-0.00105317	6	5.40812e-05	13	0	7.7892	-3.91362e-07
2	1	0	1	0	1	118.202	0.36785	0.367582	-0.00110766	6	5.31008e-05	13	0	8.1887	-4.07157e-07
2	1	0	1	0	1	118.601	0.363855	0.363552	-0.0011767	6	5.20957e-05	13	0	8.5881	-4.27792e-07
2	1	0	1	0	1	119.001	0.359861	0.359562	-0.00132131	6	5.10647e-05	13	0	8.9875	-4.75093e-07
2	1	0	1	0	1	119.4	0.355867	0.355561	-0.00155108	6	5.00078e-05	13	0	9.387	-5.51503e-07
2	1	0	1	0	1	119.8	0.351872	0.351574	-0.00178785	6	4.89246e-05	13	0	9.7865	-6.28561e-07
2	1	0	1	0	0	120.067	0.350823	0.350594	0.00131488	7	4.86165e-05	13	0	0.05	4.60989e-07
2	1	0	1	0	0	120.466	0.354818	0.354541	0.00152218	7	4.96597e-05	13	0	0.4494	5.39674e-07
2	1	0	1	0	0	120.866	0.358813	0.358545	0.00159568	7	5.07203e-05	13	0	0.8489	5.72124e-07
2	1	0	1	0	0	121.265	0.362806	0.362548	0.00164845	7	5.17745e-05	13	0	1.2483	5.97643e-07
2	1	0	1	0	0	121.665	0.366801	0.366531	0.00167359	7	5.2818e-05	13	0	1.6478	6.13423e-07
2	1	0	1	0	0	122.064	0.370796	0.3706	0.00170508	7	5.38485e-05	13	0	2.0472	6.31904e-07
2	1	0	1	0	0	122.463	0.37479	0.374556	0.00179518	7	5.48641e-05	13	0	2.4466	6.72396e-07
2	1	0	1	0	0	122.863	0.378784	0.37852	0.00191463	7	5.58646e-05	13	0	2.8461	7.24726e-07
2	1	0	1	0	0	123.262	0.382779	0.382506	0.00200351	7	5.68497e-05	13	0	3.2456	7.66354e-07
2	1	0	1	0	0	123.662	0.386773	0.386517	0.00213718	7	5.78188e-05	13	0	3.645	8.26055e-07
2	1	0	1	0	0	124.061	0.390768	0.390484	0.00224019	7	5.87746e-05	13	0	4.0444	8.74759e-07
2	1	0	1	0	0	124.461	0.394763	0.394504	0.00244384	7	5.97172e-05	13	0	4.4439	9.64105e-07
2	1	0	1	0	0	124.86	0.398757	0.398516	0.00261625	7	6.06469e-05	13	0	4.8434	1.04262e-06
2	1	0	1	0	0	125.26	0.402751	0.402577	0.00274963	7	6.15625e-05	13	0	5.2428	1.10694e-06
2	1	0	1	0	0	125.659	0.406746	0.406546	0.00286416	7	6.24712e-05	13	0	5.6422	1.16441e-06
2	1	0	1	0	0	126.059	0.410741	0.410549	0.00299855	7	6.33644e-05	13	0	6.0417	1.23105e-06
2	1	0	1	0	0	126.458	0.414734	0.41454	0.00307586	7	6.42468e-05	13	0	6.4411	1.27507e-06
2	1	0	1	0	0	126.857	0.418729	0.418457	0.00322924	7	6.51182e-05	13	0	6.8406	1.3513e-06
2	1	0	1	0	0	127.257	0.422724	0.422486	0.0032924	7	6.59814e-05	13	0	7.24	1.39099e-06
2	1	0	1	0	0	127.656	0.426718	0.426466	0.00333034	7	6.68368e-05	13	0	7.6394	1.42028e-06
2	1	0	1	0	0	128.056	0.430712	0.430507	0.00322238	7	6.76856e-05	13	0	8.0389	1.38726e-06
2	1	0	1	0	0	128.455	0.434707	0.434519	0.00301462	7	6.85294e-05	13	0	8.4384	1.30991e-06
2	1	0	1	0	0	128.855	0.438701	0.438492	0.00288535	7	6.937e-05	13	0	8.8378	1.2652e-06
2	1	0	1	0	0	129.254	0.442696	0.442467	0.00271792	7	7.02067e-05	13	0	9.2372	1.20259e-06
2	1	0	1	0	0	129.654	0.446691	0.446516	0.00248882	7	7.1043e-05	13	0	9.6367	1.1113e-06
2	0	0	1	0	0	129.982	0.450011	0.449888	-0.000274238	7	7.17458e-05	13	0	0.000000000000000E+000	-1.23376e-07
2	1	0	1	0	0	130.359	0.446241	0.445983	-0.000842248	7	7.12647e-05	13	0	0.3769	-3.75628e-07
2	1	0	1	0	0	130.759	0.442246	0.441983	-0.00111687	7	7.07028e-05	13	0	0.7764	-4.93636e-07
2	1	0	1	0	0	131.158	0.438253	0.437981	-0.00134016	7	7.01068e-05	13	0	1.1758	-5.86967e-07
2	1	0	1	0	0	131.558	0.434258	0.434004	-0.00164013	7	6.94835e-05	13	0	1.5753	-7.11826e-07
2	1	0	1	0	0	131.957	0.430263	0.430032	-0.00186416	7	6.88364e-05	13	0	1.9747	-8.01649e-07
2	1	0	1	0	0	132.356	0.426269	0.425995	-0.00206076	7	6.81683e-05	13	0	2.3741	-8.77871e-07
2	1	0	1	0	0	132.756	0.422275	0.421998	-0.0022643	7	6.74789e-05	13	0	2.7736	-9.55531e-07
2	1	0	1	0	0	133.155	0.41828	0.418016	-0.00243534	7	6.67714e-05	13	0	3.1731	-1.01801e-06
2	1	0	1	0	0	133.555	0.414285	0.414042	-0.00255683	7	6.60452e-05	13	0	3.5725	-1.05864e-06
2	1	0	1	0	0	133.954	0.410291	0.410064	-0.00261363	7	6.52984e-05	13	0	3.9719	-1.07175e-06
2	1	0	1	0	0	134.354	0.406296	0.406056	-0.00269263	7	6.45347e-05	13	0	4.3714	-1.09336e-06
2	1	0	1	0	0	134.753	0.402302	0.40204	-0.00268561	7	6.37462e-05	13	0	4.7709	-1.07972e-06
2	1	0	1	0	0	135.153	0.398307	0.398052	-0.00267513	7	6.29425e-05	13	0	5.1703	-1.06484e-06
2	0	0	1	0	0	135.552	0.394313	0.394028	-0.00255105	7	6.21187e-05	13	0	5.5697	-1.00518e-06
2	0	0	1	0	0	135.952	0.390318	0.390025	-0.00246316	7	6.12744e-05	13	0	5.9692	-9.60694e-07
2	0	0	1	0	0	136.351	0.386324	0.386045	-0.00225017	7	6.04106e-05	13	0	6.3687	-8.68669e-07
2	0	0	1	0	0	136.75	0.38233	0.382037	-0.00202619	7	5.95237e-05	13	0	6.7681	-7.74081e-07
2	0	0	1	0	0	137.15	0.378335	0.378045	-0.0018498	7	5.86139e-05	13	0	7.1675	-6.99307e-07
2	0	0	1	0	0	137.549	0.37434	0.374111	-0.00161552	7	5.76806e-05	13	0	7.567	-6.04384e-07
2	0	0	1	0	0	137.949	0.370347	0.37005	-0.00151254	7	5.67238e-05	13	0	7.9664	-5.59716e-07
2	0	0	1	0	0	138.348	0.366352	0.366067	-0.00139428	7	5.57415e-05	13	0	8.3659	-5.10399e-07
2	0	0	1	0	0	138.748	0.362357	0.362073	-0.00136901	7	5.47337e-05	13	0	8.7653	-4.95683e-07
2	0	0	1	0	0	139.147	0.358363	0.358067	-0.00147685	7	5.37011e-05	13	0	9.1647	-5.28811e-07
2	0	0	1	0	0	139.547	0.354368	0.354054	-0.00162524	7	5.26409e-05	13	0	9.5642	-5.75423e-07
2	0	0	1	0	0	139.946	0.350374	0.350116	-0.00177218	7	5.15548e-05	13	0	9.9637	-6.20468e-07
2	1	0	1	0	1	140.213	0.352321	0.352058	0.00169214	8	5.20443e-05	13	0	0.1998	5.95734e-07
2	1	0	1	0	1	140.613	0.356316	0.356096	0.00168678	8	5.30865e-05	13	0	0.5992	6.00654e-07
2	1	0	1	0	1	141.012	0.36031	0.360039	0.00164013	8	5.41314e-05	13	0	0.9986	5.90511e-07
2	1	0	1	0	1	141.412	0.364304	0.364051	0.0016725	8	5.51688e-05	13	0	1.3981	6.08877e-07
2	1	0	1	0	1	141.811	0.368299	0.368077	0.00173322	8	5.6193e-05	13	0	1.7976	6.37959e-07
2	1	0	1	0	1	142.21	0.372294	0.372067	0.00174879	8	5.72001e-05	13	0	2.197	6.50666e-07
2	1	0	1	0	1	142.61	0.376288	0.376057	0.00185385	8	5.81951e-05	13	0	2.5964	6.97154e-07
2	1	0	1	0	1	143.009	0.380282	0.380009	0.00197697	8	5.91737e-05	13	0	2.9959	7.51267e-07
2	1	0	1	0	1	143.409	0.384277	0.384022	0.00197663	8	6.01394e-05	13	0	3.3954	7.59069e-07
2	1	0	1	0	1	143.808	0.388271	0.388004	0.00196529	8	6.10905e-05	13	0	3.7948	7.62542e-07
2	1	0	1	0	1	144.208	0.392266	0.392011	0.00197596	8	6.20264e-05	13	0	4.1942	7.74598e-07
2	1	0	1	0	1	144.607	0.396261	0.396	0.00199149	8	6.29495e-05	13	0	4.5937	7.88632e-07
2	0	0	1	0	1	145.007	0.400254	0.400034	0.00211632	8	6.38601e-05	13	0	4.9931	8.46599e-07
2	0	0	1	0	1	145.406	0.404249	0.404016	0.00212716	8	6.47587e-05	13	0	5.3926	8.59406e-07
2	0	0	1	0	1	145.805	0.408244	0.408046	0.0021274	8	6.56488e-05	13	0	5.792	8.68074e-07
2	0	0	1	0	1	146.205	0.412238	0.412049	0.00218533	8	6.65236e-05	13	0	6.1914	9.00461e-07
2	0	0	1	0	1	146.604	0.416232	0.416045	0.00231955	8	6.73867e-05	13	0	6.5909	9.65036e-07
2	0	0	1	0	1	147.004	0.420227	0.419973	0.00253559	8	6.82431e-05	13	0	6.9904	1.06488e-06
2	0	0	1	0	1	147.403	0.424221	0.423941	0.00253575	8	6.90918e-05	13	0	7.3898	1.07501e-06
2	0	0	1	0	1	147.803	0.428216	0.427977	0.00267824	8	6.99313e-05	13	0	7.7892	1.14622e-06
2	0	0	1	0	1	148.202	0.43221	0.431959	0.00271352	8	7.07649e-05	13	0	8.1887	1.17213e-06
2	0	0	1	0	1	148.602	0.436205	0.435953	0.0027175	8	7.15931e-05	13	0	8.5882	1.1847e-06
2	0	0	1	0	1	149.001	0.440199	0.439914	0.00272864	8	7.24165e-05	13	0	8.9876	1.20036e-06
2	0	0	1	0	1	149.4	0.444194	0.444011	0.0027173	8	7.32391e-05	13	0	9.387	1.20651e-06
2	0	0	1	0	1	149.8	0.448189	0.447982	0.00273415	8	7.4058e-05	13	0	9.7865	1.22485e-06
2	0	0	1	0	1	150.106	0.448737	0.448512	-0.000867736	8	7.42844e-05	13	0	0.0999	-3.8919e-07
2	0	0	1	0	1	150.506	0.444743	0.444489	-0.00101957	8	7.3747e-05	13	0	0.4993	-4.53189e-07
2	0	0	1	0	1	150.905	0.440748	0.44045	-0.00108095	8	7.31671e-05	13	0	0.8988	-4.76105e-07
2	0	0	1	0	1	151.305	0.436755	0.43653	-0.00102985	8	7.25567e-05	13	0	1.2982	-4.49561e-07
2	0	0	1	0	1	151.704	0.43276	0.432494	-0.00100245	8	7.19236e-05	13	0	1.6977	-4.33554e-07
2	0	0	1	0	1	152.103	0.428765	0.428501	-0.00103377	8	7.12667e-05	13	0	2.0971	-4.42973e-07
2	0	0	1	0	1	152.503	0.424771	0.424481	-0.0010325	8	7.05911e-05	13	0	2.4965	-4.38278e-07
2	0	0	1	0	1	152.902	0.420776	0.420508	-0.00105249	8	6.98954e-05	13	0	2.896	-4.4258e-07
2	0	0	1	0	1	153.302	0.416782	0.416541	-0.00109668	8	6.91825e-05	13	0	3.2955	-4.56811e-07
2	0	0	1	0	1	153.701	0.412787	0.412553	-0.00116276	8	6.84506e-05	13	0	3.6949	-4.79699e-07
2	0	0	1	0	1	154.101	0.408793	0.408552	-0.00125982	8	6.77004e-05	13	0	4.0943	-5.14704e-07
2	0	0	1	0	1	154.5	0.404798	0.404518	-0.00142264	8	6.69257e-05	13	0	4.4938	-5.75484e-07
2	0	0	1	0	1	154.9	0.400804	0.400546	-0.00154687	8	6.61382e-05	13	0	4.8933	-6.19593e-07
2	0	0	1	0	1	155.299	0.39681	0.396536	-0.00176716	8	6.53314e-05	13	0	5.2927	-7.0074e-07
2	0	0	1	0	1	155.698	0.392815	0.392536	-0.00188925	8	6.45057e-05	13	0	5.6921	-7.416e-07
2	0	0	1	0	1	156.098	0.38882	0.388571	-0.00217007	8	6.36598e-05	13	0	6.0916	-8.43225e-07
2	0	0	1	0	1	156.497	0.384827	0.384524	-0.00239797	8	6.27927e-05	13	0	6.491	-9.2208e-07
2	0	0	1	0	1	156.897	0.380832	0.38056	-0.00270085	8	6.19056e-05	13	0	6.8905	-1.02784e-06
2	1	0	1	0	1	157.296	0.376837	0.376588	-0.00302743	8	6.09975e-05	13	0	7.2899	-1.14009e-06
2	1	0	1	0	1	157.696	0.372843	0.37257	-0.00322288	8	6.00657e-05	13	0	7.6893	-1.20075e-06
2	1	0	1	0	1	158.095	0.368849	0.368528	-0.00344241	8	5.91126e-05	13	0	8.0888	-1.26862e-06
2	1	0	1	0	1	158.495	0.364854	0.364574	-0.00353314	8	5.81333e-05	13	0	8.4883	-1.28809e-06
2	1	0	1	0	1	158.894	0.360859	0.360641	-0.00346601	8	5.71279e-05	13	0	8.8877	-1.24998e-06
2	1	0	1	0	1	159.293	0.356865	0.356523	-0.00346405	8	5.60939e-05	13	0	9.2871	-1.23501e-06
2	1	0	1	0	1	159.693	0.35287	0.352593	-0.00342729	8	5.50321e-05	13	0	9.6866	-1.20844e-06
2	0	0	0	0	0	159.983	0.35005	0.3498	-0.00300592	9	5.42672e-05	13	0	9.9762	-1.05147e-06
2	0	0	1	0	0	160.36	0.353819	0.353576	0.00364285	9	5.51898e-05	13	0	0.3496	1.28802e-06
2	1	0	1	0	0	160.759	0.357814	0.357541	0.00363934	9	5.62244e-05	13	0	0.749	1.30121e-06
2	1	0	1	0	0	161.158	0.361808	0.361611	0.00351767	9	5.72551e-05	13	0	1.1484	1.27203e-06
2	1	0	1	0	0	161.558	0.365802	0.365584	0.00330922	9	5.82764e-05	13	0	1.5479	1.2098e-06
2	1	0	1	0	0	161.957	0.369797	0.369561	0.00312503	9	5.92859e-05	13	0	1.9474	1.15489e-06
2	1	0	1	0	0	162.357	0.373791	0.373557	0.00286256	9	6.02797e-05	13	0	2.3468	1.06933e-06
2	1	0	1	0	0	162.756	0.377786	0.377552	0.00257864	9	6.1258e-05	13	0	2.7462	9.7357e-07
2	1	0	1	0	0	163.156	0.381781	0.381494	0.00231194	9	6.22223e-05	13	0	3.1457	8.81992e-07
2	1	0	1	0	0	163.555	0.385775	0.385547	0.00195068	9	6.31705e-05	13	0	3.5452	7.5208e-07
2	1	0	1	0	0	163.955	0.389769	0.389515	0.00170508	9	6.41061e-05	13	0	3.9446	6.64152e-07
2	1	0	1	0	0	164.354	0.393764	0.393548	0.00153564	9	6.50273e-05	13	0	4.344	6.04348e-07
2	1	0	1	0	0	164.754	0.397759	0.39746	0.00146462	9	6.59359e-05	13	0	4.7435	5.82126e-07
2	1	0	1	0	0	165.153	0.401752	0.401509	0.00151939	9	6.68305e-05	13	0	5.1429	6.10049e-07
2	1	0	1	0	0	165.552	0.405747	0.405484	0.00159987	9	6.77117e-05	13	0	5.5424	6.4872e-07
2	1	0	1	0	0	165.952	0.409742	0.409532	0.00170471	9	6.85846e-05	13	0	5.9418	6.98133e-07
2	1	0	1	0	0	166.351	0.413736	0.413565	0.00186038	9	6.94432e-05	13	0	6.3412	7.69386e-07
2	1	0	1	0	0	166.751	0.41773	0.417472	0.00192569	9	7.02922e-05	13	0	6.7407	8.03924e-07
2	1	0	1	0	0	167.15	0.421725	0.421486	0.00206247	9	7.11323e-05	13	0	7.1402	8.69302e-07
2	1	0	1	0	0	167.55	0.425719	0.425493	0.00217837	9	7.19639e-05	13	0	7.5396	9.26882e-07
2	1	0	1	0	0	167.949	0.429714	0.429418	0.00237407	9	7.27883e-05	13	0	7.939	1.01947e-06
2	1	0	1	0	0	168.349	0.433709	0.433491	0.00258691	9	7.36058e-05	13	0	8.3385	1.1214e-06
2	1	0	1	0	0	168.748	0.437703	0.437489	0.00273204	9	7.44178e-05	13	0	8.738	1.19523e-06
2	1	0	1	0	0	169.147	0.441697	0.441468	0.00287332	9	7.52262e-05	13	0	9.1374	1.26848e-06
2	1	0	1	0	0	169.547	0.445692	0.44547	0.00287293	9	7.60312e-05	13	0	9.5368	1.2798e-06
2	1	0	1	0	0	169.946	0.449687	0.449485	0.00296813	9	7.68336e-05	13	0	9.9363	1.33413e-06
2	0	0	1	0	0	170.253	0.44724	0.446974	-0.000919673	9	7.65577e-05	13	0	0.2771	-4.1107e-07
2	0	0	1	0	0	170.652	0.443245	0.442961	-0.000784331	9	7.59991e-05	13	0	0.6765	-3.47428e-07
2	1	0	1	0	0	171.052	0.43925	0.438966	-0.000678959	9	7.54066e-05	13	0	1.076	-2.9804e-07
2	1	0	1	0	0	171.451	0.435257	0.435007	-0.000627601	9	7.47872e-05	13	0	1.4754	-2.73011e-07
2	1	0	1	0	0	171.85	0.431262	0.431041	-0.000673395	9	7.41456e-05	13	0	1.8749	-2.90261e-07
2	1	0	1	0	0	172.25	0.427267	0.426996	-0.000775539	9	7.34831e-05	13	0	2.2743	-3.31152e-07
2	1	0	1	0	0	172.649	0.423273	0.42301	-0.000997345	9	7.28013e-05	13	0	2.6737	-4.21887e-07
2	1	0	1	0	0	173.049	0.419278	0.418988	-0.00128079	9	7.21018e-05	13	0	3.0732	-5.36634e-07
2	1	0	1	0	0	173.448	0.415284	0.415036	-0.00150031	9	7.13849e-05	13	0	3.4727	-6.22682e-07
2	1	0	1	0	0	173.848	0.411289	0.41104	-0.00175999	9	7.06482e-05	13	0	3.8721	-7.23426e-07
2	1	0	1	0	0	174.247	0.407295	0.407036	-0.00207787	9	6.98942e-05	13	0	4.2715	-8.45769e-07
2	1	0	1	0	0	174.647	0.4033	0.403041	-0.00228159	9	6.91183e-05	13	0	4.671	-9.19576e-07
2	1	0	1	0	0	175.046	0.399306	0.399067	-0.00255782	9	6.83285e-05	13	0	5.0705	-1.02074e-06
2	1	0	1	0	0	175.445	0.395312	0.395016	-0.00277166	9	6.75197e-05	13	0	5.4699	-1.09485e-06
2	1	0	1	0	0	175.845	0.391317	0.391057	-0.00290701	9	6.66932e-05	13	0	5.8693	-1.13681e-06
2	1	0	1	0	0	176.244	0.387322	0.387039	-0.00304243	9	6.5845e-05	13	0	6.2688	-1.17754e-06
2	1	0	1	0	0	176.644	0.383329	0.383088	-0.00305272	9	6.49763e-05	13	0	6.6682	-1.16946e-06
2	0	0	1	0	0	177.043	0.379334	0.379102	-0.00298477	9	6.40837e-05	13	0	7.0677	-1.13153e-06
2	0	0	1	0	0	177.443	0.375339	0.375067	-0.00289444	9	6.31705e-05	13	0	7.4671	-1.08561e-06
2	0	0	1	0	0	177.842	0.371345	0.371037	-0.00275977	9	6.22329e-05	13	0	7.8665	-1.02398e-06
2	0	0	1	0	0	178.242	0.36735	0.367068	-0.00254956	9	6.12731e-05	13	0	8.266	-9.35863e-07
2	0	0	1	0	0	178.641	0.363356	0.363054	-0.00233478	9	6.02885e-05	13	0	8.6655	-8.47652e-07
2	0	0	1	0	0	179.04	0.359361	0.359072	-0.00210994	9	5.9278e-05	13	0	9.0649	-7.57622e-07
2	0	0	1	0	0	179.44	0.355367	0.35506	-0.0018682	9	5.82397e-05	13	0	9.4643	-6.63322e-07
2	0	0	1	0	0	179.839	0.351372	0.351102	-0.00166419	9	5.71737e-05	13	0	9.8638	-5.84302e-07
2	1	0	1	0	1	180.107	0.351322	0.351067	0.00254991	10	5.71188e-05	13	0	0.0999	8.9519e-07
2	1	0	1	0	1	180.506	0.355317	0.355077	0.00251362	10	5.8129e-05	13	0	0.4994	8.92528e-07
2	1	0	1	0	1	180.905	0.359311	0.359105	0.00227769	10	5.91508e-05	13	0	0.8988	8.17928e-07
2	1	0	1	0	1	181.305	0.363306	0.36309	0.00192377	10	6.01689e-05	13	0	1.2982	6.98504e-07
2	1	0	1	0	1	181.704	0.3673	0.3671	0.00166466	10	6.11761e-05	13	0	1.6977	6.11095e-07
2	1	0	1	0	1	182.104	0.371295	0.371046	0.00157836	10	6.2168e-05	13	0	2.0972	5.85643e-07
2	1	0	1	0	1	182.503	0.375289	0.375007	0.00147972	10	6.31485e-05	13	0	2.4966	5.54904e-07
2	1	0	1	0	1	182.903	0.379284	0.378995	0.0015089	10	6.41121e-05	13	0	2.896	5.71867e-07
2	1	0	1	0	1	183.302	0.383279	0.383067	0.00163035	10	6.5059e-05	13	0	3.2955	6.24535e-07
2	1	0	1	0	1	183.702	0.387272	0.386984	0.00188801	10	6.59914e-05	13	0	3.6949	7.30631e-07
2	1	0	1	0	1	184.101	0.391267	0.391077	0.00218049	10	6.69097e-05	13	0	4.0944	8.52738e-07
2	1	0	1	0	1	184.5	0.395262	0.395034	0.00236735	10	6.78137e-05	13	0	4.4938	9.35181e-07
2	1	0	1	0	1	184.9	0.399256	0.399003	0.00256675	10	6.87049e-05	13	0	4.8932	1.02414e-06
2	1	0	1	0	1	185.299	0.40325	0.403	0.00282438	10	6.95813e-05	13	0	5.2927	1.13823e-06
2	1	0	1	0	1	185.699	0.407245	0.406998	0.00301217	10	7.04515e-05	13	0	5.6922	1.22595e-06
2	1	0	1	0	1	186.098	0.411239	0.411061	0.0031723	10	7.13064e-05	13	0	6.0916	1.30401e-06
2	1	0	1	0	1	186.498	0.415234	0.414996	0.00323195	10	7.21504e-05	13	0	6.491	1.34124e-06
2	1	0	1	0	1	186.897	0.419228	0.419026	0.00314486	10	7.29854e-05	13	0	6.8905	1.31778e-06
2	1	0	1	0	1	187.297	0.423223	0.422981	0.00296829	10	7.38098e-05	13	0	7.29	1.25553e-06
2	1	0	1	0	1	187.696	0.427217	0.426979	0.0028354	10	7.46283e-05	13	0	7.6894	1.21066e-06
2	1	0	1	0	1	188.095	0.431212	0.430991	0.00274172	10	7.54381e-05	13	0	8.0888	1.18166e-06
2	1	0	1	0	1	188.495	0.435207	0.434949	0.00256365	10	7.62438e-05	13	0	8.4883	1.11506e-06
2	1	0	1	0	1	188.894	0.4392	0.438986	0.00236542	10	7.70431e-05	13	0	8.8877	1.03839e-06
2	1	0	1	0	1	189.294	0.443195	0.442958	0.00222326	10	7.7838e-05	13	0	9.2872	9.84809e-07
2	1	0	1	0	1	189.693	0.44719	0.446987	0.00197903	10	7.86314e-05	13	0	9.6866	8.84602e-07
2	0	0	1	0	1	190	0.449737	0.449494	-0.000902976	10	7.91534e-05	13	0	0.000000000000000E+000	-4.05882e-07
2	0	0	1	0	1	190.399	0.445742	0.445467	-0.00126081	10	7.8631e-05	13	0	0.3995	-5.61647e-07
2	0	0	1	0	1	190.798	0.441747	0.441522	-0.00154011	10	7.8057e-05	13	0	0.7989	-6.7999e-07
2	0	0	1	0	1	191.198	0.437753	0.437467	-0.00180808	10	7.74544e-05	13	0	1.1983	-7.90975e-07
2	0	0	1	0	1	191.597	0.433759	0.433472	-0.00208248	10	7.68283e-05	13	0	1.5978	-9.02696e-07
2	0	0	1	0	1	191.997	0.429764	0.429511	-0.00231156	10	7.61813e-05	13	0	1.9973	-9.9284e-07
2	0	0	1	0	1	192.396	0.425769	0.425524	-0.00253773	10	7.55167e-05	13	0	2.3967	-1.07986e-06
2	0	0	1	0	1	192.796	0.421775	0.421558	-0.00267912	10	7.4835e-05	13	0	2.7961	-1.1294e-06
2	0	0	1	0	1	193.195	0.41778	0.417522	-0.00274678	10	7.41349e-05	13	0	3.1956	-1.14684e-06
2	0	0	1	0	1	193.595	0.413786	0.413526	-0.00271666	10	7.34152e-05	13	0	3.5951	-1.12341e-06
2	0	0	1	0	1	193.994	0.409791	0.409516	-0.00267923	10	7.26763e-05	13	0	3.9945	-1.09719e-06
2	0	0	1	0	1	194.393	0.405797	0.405542	-0.00270729	10	7.19157e-05	13	0	4.3939	-1.09792e-06
2	0	0	1	0	1	194.793	0.401802	0.401544	-0.00249297	10	7.11396e-05	13	0	4.7934	-1.00104e-06
2	0	0	1	0	1	195.192	0.397809	0.397504	-0.00227588	10	7.03474e-05	13	0	5.1928	-9.04673e-07
2	0	0	1	0	1	195.592	0.393814	0.393507	-0.00199565	10	6.95373e-05	13	0	5.5923	-7.85303e-07
2	0	0	1	0	1	195.991	0.389819	0.389479	-0.00171188	10	6.87076e-05	13	0	5.9917	-6.66742e-07
2	0	0	1	0	1	196.391	0.385825	0.385556	-0.00146491	10	6.78569e-05	13	0	6.3911	-5.64803e-07
2	0	0	1	0	1	196.79	0.381831	0.381553	-0.00126596	10	6.69838e-05	13	0	6.7906	-4.8303e-07
2	0	0	1	0	1	197.19	0.377836	0.377578	-0.00105829	10	6.60886e-05	13	0	7.1901	-3.99585e-07
2	1	0	1	0	1	197.589	0.373841	0.373577	-0.00106268	10	6.51738e-05	13	0	7.5895	-3.96995e-07
2	1	0	1	0	1	197.988	0.369847	0.369609	-0.00110544	10	6.42333e-05	13	0	7.9889	-4.08582e-07
2	1	0	1	0	1	198.388	0.365852	0.36563	-0.00121884	10	6.32682e-05	13	0	8.3884	-4.45643e-07
2	1	0	1	0	1	198.787	0.361858	0.361603	-0.00141931	10	6.22797e-05	13	0	8.7879	-5.13228e-07
2	1	0	1	0	1	199.187	0.357864	0.357578	-0.00169855	10	6.12669e-05	13	0	9.1873	-6.07362e-07
2	1	0	1	0	1	199.586	0.353869	0.353606	-0.00208742	10	6.02265e-05	13	0	9.5867	-7.38124e-07
2	1	0	1	0	1	199.966	0.350074	0.3498	0.00166572	10	5.92246e-05	13	0	9.9663	5.8267e-07
2	0	0	0	0	1	199.971	0.35	0.349762	-0.00282221	10	5.92221e-05	13	0	9.9712	-9.87101e-07