File: ACS_Catal_2026/Figures_Na_K/main_figures/data/EC/20251112_2-148_alpha_reproducibility/20251112_2-148_003_alpha_Na_first_1_Na2_01_CVA_C01.mpt
EC-Lab ASCII FILE
Nb header lines : 66

Cyclic Voltammetry Advanced

Run on channel : 1 (SN 69187)
User :
CE vs. WE compliance from -10 V to 10 V
Electrode connection : standard
Potential control : Ewe
Ewe ctrl range : min = -1.00 V, max = 1.00 V
Safety Limits :
	Do not start on E overload
Acquisition started on : 11/12/2025 17:08:42.026
Loaded Setting File :  C:\Users\User\Documents\EC-Lab\Data\Yatsuzuka\20251030_2-147_gamma_reproducibility\20251030_2-147_001_gamma1_K_1.mps
Saved on :
	File : 20251112_2-148_003_alpha_Na_first_1_Na2_01_CVA_C01.mpr
	Directory : C:\Users\User\Documents\EC-Lab\Data\Yatsuzuka\20251112_2-148_alpha_reproducibility\
	Host : 192.109.209.127
Device : SP-150e (SN .003883)
Address : 192.109.209.128
EC-Lab for windows v11.52 (software)
Internet server v11.52 (firmware)
Command interpretor v11.50 (firmware)
Electrode material :
Initial state :
Electrolyte :
Comments :
Electrode surface area : 0.001 cm2
Characteristic mass : 0.001 g
Equivalent Weight : 0.000 g/eq.
Density : 0.000 g/cm3
Volume (V) : 0.001 cm3
Cycle Definition : Charge/Discharge alternance
Ei (V)              0.350
vs.                 Ref
ti (h:m:s)          0:00:10.0000
dti (s)             0.0000
dE/dt               10.000
dE/dt unit          mV/s
E1 (V)              0.450
vs.                 Ref
t1 (h:m:s)          0:00:0.0000
dt1 (s)             0.1000
Step percent        50
N                   10
E range min (V)     -1.000
E range max (V)     1.000
I Range             Auto
I Range min         Unset
I Range max         Unset
I Range init        Unset
Bandwidth           5
E2 (V)              0.350
vs.                 Ref
t2 (h:m:s)          0:00:0.0000
dt2 (s)             0.1000
nc cycles           9
nr                  1
Reverse Scan        0
Ef (V)              0.000
vs.                 Eoc
tf (h:m:s)          0:00:0.0000
dtf (s)             0.1000

mode	ox/red	error	control changes	Ns changes	counter inc.	time/s	control/V	Ewe/V	<I>/mA	cycle number	(Q-Qo)/C	I Range	Ns	step time/s	P/W
2	0	0	0	0	0	0.000000000000000E+000	0.34995	0.349838	-0.00198532	1	0.0000000E+000	13	0	0.000000000000000E+000	-6.94539e-07
2	1	0	1	0	0	0.3269	0.35322	0.352943	0.0317816	1	9.03886e-06	13	0	0.2996	1.12171e-05
2	1	0	1	0	0	0.6765	0.356715	0.35646	0.0268433	1	2.03546e-05	13	0	0.6492	9.56857e-06
2	1	0	1	0	0	1.026	0.360211	0.359971	0.0284952	1	3.16883e-05	13	0	0.9987	1.02574e-05
2	1	0	1	0	0	1.3755	0.363705	0.36348	0.0356297	1	4.29809e-05	13	0	1.3482	1.29507e-05
2	1	0	1	0	0	1.725	0.3672	0.366942	0.0383497	1	5.4274e-05	13	0	1.6977	1.40721e-05
2	1	0	1	0	0	2.0745	0.370696	0.370412	0.0316117	1	6.54386e-05	13	0	2.0472	1.17094e-05
2	1	0	1	0	0	2.4241	0.374191	0.373933	0.0256035	1	7.64351e-05	13	0	2.3968	9.57402e-06
2	1	0	1	0	0	2.7735	0.377686	0.377451	0.0276944	1	8.72498e-05	13	0	2.7462	1.04533e-05
2	1	0	1	0	0	3.1231	0.381181	0.380939	0.0351303	1	9.80321e-05	13	0	3.0958	1.33825e-05
2	1	0	1	0	0	3.4726	0.384677	0.384419	0.0356372	1	0.000108739	13	0	3.4453	1.36996e-05
2	1	0	1	0	0	3.8221	0.388172	0.387908	0.0272277	1	0.000119313	13	0	3.7948	1.05618e-05
2	1	0	1	0	0	4.1716	0.391666	0.391476	0.0236689	1	0.000129663	13	0	4.1443	9.26581e-06
2	1	0	1	0	0	4.5211	0.395162	0.394947	0.0304441	1	0.000139922	13	0	4.4938	1.20238e-05
2	1	0	1	0	0	4.8707	0.398657	0.398419	0.0347172	1	0.000150141	13	0	4.8434	1.3832e-05
2	1	0	1	0	0	5.2201	0.402152	0.401916	0.0297997	1	0.000160262	13	0	5.1928	1.1977e-05
2	1	0	1	0	0	5.5697	0.405647	0.405422	0.02219	1	0.000170187	13	0	5.5424	8.99633e-06
2	1	0	1	0	0	5.9192	0.409142	0.408927	0.0259567	1	0.000180025	13	0	5.8919	1.06144e-05
2	1	0	1	0	0	6.2687	0.412638	0.412465	0.0334876	1	0.000189789	13	0	6.2414	1.38125e-05
2	1	0	1	0	0	6.6182	0.416132	0.415961	0.0305397	1	0.000199497	13	0	6.5909	1.27033e-05
2	1	0	1	0	0	6.9677	0.419628	0.419414	0.0227855	1	0.00020907	13	0	6.9404	9.55657e-06
2	1	0	1	0	0	7.3173	0.423123	0.422913	0.0227429	1	0.000218462	13	0	7.29	9.61827e-06
2	1	0	1	0	0	7.6668	0.426619	0.426371	0.0306714	1	0.000227828	13	0	7.6395	1.30774e-05
2	1	0	1	0	0	8.0163	0.430113	0.429919	0.0318561	1	0.000237158	13	0	7.989	1.36956e-05
2	1	0	1	0	0	8.3658	0.433608	0.433387	0.0233255	1	0.000246402	13	0	8.3385	1.0109e-05
2	1	0	1	0	0	8.7153	0.437104	0.436878	0.0207515	1	0.000255461	13	0	8.688	9.06589e-06
2	1	0	1	0	0	9.0649	0.440599	0.440423	0.0286255	1	0.000264487	13	0	9.0376	1.26073e-05
2	1	0	1	0	0	9.4143	0.444094	0.443884	0.0311558	1	0.000273507	13	0	9.387	1.38295e-05
2	1	0	1	0	0	9.7639	0.447589	0.447397	0.0246489	1	0.00028248	13	0	9.7366	1.10278e-05
2	1	0	1	0	0	10.0302	0.449737	0.449521	-0.00487585	1	0.000288492	13	0	10.0029	-2.1918e-06
2	0	0	1	0	0	10.4397	0.445642	0.445417	-0.0156632	1	0.000281508	13	0	0.3446	-6.97666e-06
2	0	0	1	0	0	10.7892	0.442146	0.441908	-0.0242159	1	0.000273921	13	0	0.6941	-1.07012e-05
2	0	0	1	0	0	11.1387	0.438652	0.438374	-0.0289892	1	0.000265941	13	0	1.0436	-1.27081e-05
2	0	0	1	0	0	11.4882	0.435156	0.434914	-0.0219023	1	0.000257764	13	0	1.3931	-9.52561e-06
2	0	0	1	0	0	11.8377	0.431661	0.431391	-0.0182763	1	0.000249489	13	0	1.7426	-7.88422e-06
2	0	0	1	0	0	12.1873	0.428166	0.427937	-0.0250514	1	0.000241065	13	0	2.0922	-1.07204e-05
2	0	0	1	0	0	12.5367	0.424671	0.424416	-0.0309236	1	0.000232365	13	0	2.4416	-1.31245e-05
2	0	0	1	0	0	12.8863	0.421176	0.420893	-0.0258019	1	0.000223522	13	0	2.7912	-1.08598e-05
2	0	0	1	0	0	13.2358	0.41768	0.417412	-0.020006	1	0.00021459	13	0	3.1407	-8.35074e-06
2	0	0	1	0	0	13.5853	0.414185	0.413948	-0.0250006	1	0.000205545	13	0	3.4902	-1.0349e-05
2	0	0	1	0	0	13.9348	0.41069	0.410487	-0.0332974	1	0.000196255	13	0	3.8397	-1.36681e-05
2	0	0	1	0	0	14.2843	0.407195	0.406969	-0.0280898	1	0.000186791	13	0	4.1892	-1.14317e-05
2	0	0	1	0	0	14.6339	0.4037	0.403428	-0.0217185	1	0.0001772	13	0	4.5388	-8.76187e-06
2	0	0	1	0	0	14.9833	0.400205	0.399919	-0.026531	1	0.000167578	13	0	4.8882	-1.06103e-05
2	0	0	1	0	0	15.3329	0.39671	0.396431	-0.0342119	1	0.000157695	13	0	5.2378	-1.35626e-05
2	0	0	1	0	0	15.6824	0.393214	0.39297	-0.0315485	1	0.000147595	13	0	5.5873	-1.23976e-05
2	0	0	1	0	0	16.0319	0.389719	0.389463	-0.0246651	1	0.0001374	13	0	5.9368	-9.60613e-06
2	0	0	1	0	0	16.3814	0.386225	0.385906	-0.0247623	1	0.000127078	13	0	6.2863	-9.55593e-06
2	0	0	1	0	0	16.7309	0.382729	0.382459	-0.0333284	1	0.000116561	13	0	6.6358	-1.27467e-05
2	0	0	1	0	0	17.0805	0.379234	0.378919	-0.0369739	1	0.00010576	13	0	6.9854	-1.40101e-05
2	0	0	1	0	0	17.4299	0.375739	0.375482	-0.0311357	1	9.47863e-05	13	0	7.3348	-1.16909e-05
2	0	0	1	0	0	17.7795	0.372244	0.372009	-0.0263111	1	8.36766e-05	13	0	7.6844	-9.78796e-06
2	0	0	1	0	0	18.129	0.368748	0.368514	-0.0303565	1	7.24109e-05	13	0	8.0339	-1.11868e-05
2	0	0	1	0	0	18.4785	0.365253	0.364954	-0.0393166	1	6.08176e-05	13	0	8.3834	-1.43487e-05
2	0	0	1	0	0	18.828	0.361759	0.361502	-0.0377154	1	4.89742e-05	13	0	8.7329	-1.36342e-05
2	0	0	1	0	0	19.1775	0.358263	0.357934	-0.0301878	1	3.69334e-05	13	0	9.0824	-1.08052e-05
2	0	0	1	0	0	19.5271	0.354768	0.354466	-0.0308702	1	2.47393e-05	13	0	9.432	-1.09424e-05
2	0	0	1	0	0	19.8766	0.351272	0.350985	-0.0402623	1	1.22387e-05	13	0	9.7815	-1.41314e-05
2	1	0	1	0	1	20.1638	0.351623	0.351371	0.0221794	2	1.03011e-05	12	0	0.0649	7.79322e-06
2	1	0	1	0	1	20.5433	0.355417	0.355149	0.0289098	2	2.20409e-05	13	0	0.4444	1.02673e-05
2	1	0	1	0	1	20.8927	0.358912	0.358654	0.0253642	2	3.28729e-05	13	0	0.7938	9.09697e-06
2	1	0	1	0	1	21.2423	0.362407	0.362194	0.0325243	2	4.37646e-05	13	0	1.1434	1.17801e-05
2	1	0	1	0	1	21.5918	0.365903	0.36565	0.0373811	2	5.47525e-05	13	0	1.4929	1.36684e-05
2	1	0	1	0	1	21.9413	0.369398	0.369166	0.0309058	2	6.56815e-05	13	0	1.8424	1.14094e-05
2	1	0	1	0	1	22.2908	0.372892	0.37266	0.0246158	2	7.64436e-05	13	0	2.1919	9.17331e-06
2	1	0	1	0	1	22.6403	0.376388	0.376179	0.0291693	2	8.70758e-05	13	0	2.5414	1.09729e-05
2	1	0	1	0	1	22.9899	0.379883	0.379654	0.0363993	2	9.77116e-05	13	0	2.891	1.38191e-05
2	1	0	1	0	1	23.3393	0.383378	0.383115	0.0321776	2	0.000108273	13	0	3.2404	1.23277e-05
2	1	0	1	0	1	23.6889	0.386873	0.386597	0.0242016	2	0.000118667	13	0	3.59	9.35627e-06
2	1	0	1	0	1	24.0384	0.390368	0.390119	0.0260909	2	0.000128878	13	0	3.9395	1.01785e-05
2	1	0	1	0	1	24.3879	0.393864	0.393607	0.0339414	2	0.000139066	13	0	4.289	1.33596e-05
2	1	0	1	0	1	24.7374	0.397358	0.397137	0.0328973	2	0.000149205	13	0	4.6385	1.30647e-05
2	1	0	1	0	1	25.0869	0.400854	0.400649	0.0244738	2	0.000159194	13	0	4.988	9.80542e-06
2	1	0	1	0	1	25.4365	0.404349	0.40414	0.02251	2	0.00016902	13	0	5.3376	9.09719e-06
2	1	0	1	0	1	25.786	0.407845	0.407668	0.0291853	2	0.000178806	13	0	5.6871	1.18979e-05
2	1	0	1	0	1	26.1355	0.411339	0.411162	0.0336158	2	0.000188526	13	0	6.0366	1.38215e-05
2	1	0	1	0	1	26.485	0.414834	0.414618	0.0282308	2	0.00019815	13	0	6.3861	1.1705e-05
2	1	0	1	0	1	26.8345	0.41833	0.418096	0.0214965	2	0.000207617	13	0	6.7356	8.98761e-06
2	1	0	1	0	1	27.1841	0.421825	0.421592	0.023826	2	0.000216951	13	0	7.0852	1.00449e-05
2	1	0	1	0	1	27.5335	0.42532	0.42513	0.0318551	2	0.000226279	13	0	7.4346	1.35426e-05
2	1	0	1	0	1	27.8831	0.428815	0.428584	0.0302421	2	0.00023557	13	0	7.7842	1.29613e-05
2	1	0	1	0	1	28.2326	0.432311	0.432071	0.0225787	2	0.000244749	13	0	8.1337	9.7556e-06
2	1	0	1	0	1	28.5821	0.435805	0.435549	0.0204799	2	0.000253759	13	0	8.4832	8.91999e-06
2	1	0	1	0	1	28.9316	0.4393	0.43909	0.0263192	2	0.000262721	13	0	8.8327	1.15565e-05
2	1	0	1	0	1	29.2811	0.442796	0.442582	0.0314684	2	0.000271695	13	0	9.1822	1.39274e-05
2	1	0	1	0	1	29.6307	0.446291	0.446044	0.0278355	2	0.000280633	13	0	9.5318	1.24159e-05
2	1	0	1	0	1	29.9776	0.449761	0.449572	0.0184911	2	0.000289368	13	0	9.8787	8.31307e-06
2	0	0	1	0	1	30.3364	0.44664	0.44638	-0.0268011	2	0.000284183	13	0	0.2946	-1.19635e-05
2	0	0	1	0	1	30.6859	0.443145	0.442869	-0.0208073	2	0.000276608	13	0	0.6441	-9.21491e-06
2	0	0	1	0	1	31.0354	0.439651	0.439415	-0.0166576	2	0.000268832	13	0	0.9936	-7.3196e-06
2	0	0	1	0	1	31.3849	0.436155	0.435864	-0.0239933	2	0.000260811	13	0	1.3431	-1.04578e-05
2	0	0	1	0	1	31.7345	0.43266	0.432406	-0.0295554	2	0.000252522	13	0	1.6927	-1.27799e-05
2	0	0	1	0	1	32.084	0.429164	0.428914	-0.0259651	2	0.000244042	13	0	2.0422	-1.11368e-05
2	0	0	1	0	1	32.4335	0.425669	0.425438	-0.0190602	2	0.000235493	13	0	2.3917	-8.10893e-06
2	0	0	1	0	1	32.783	0.422174	0.421903	-0.022026	2	0.000226832	13	0	2.7412	-9.29284e-06
2	0	0	1	0	1	33.1325	0.418679	0.418414	-0.0308043	2	0.000217948	13	0	3.0907	-1.28889e-05
2	0	0	1	0	1	33.482	0.415185	0.414928	-0.0302496	2	0.000208851	13	0	3.4402	-1.25514e-05
2	0	0	1	0	1	33.8315	0.411689	0.411487	-0.0229362	2	0.000199609	13	0	3.7897	-9.43795e-06
2	0	0	1	0	1	34.1811	0.408194	0.407965	-0.0217701	2	0.000190332	13	0	4.1393	-8.88145e-06
2	0	0	1	0	1	34.5306	0.404698	0.404396	-0.0299456	2	0.000180795	13	0	4.4888	-1.21099e-05
2	0	0	1	0	1	34.8801	0.401203	0.400938	-0.0337336	2	0.000171098	13	0	4.8383	-1.35251e-05
2	0	0	1	0	1	35.2296	0.397709	0.397443	-0.0277086	2	0.000161229	13	0	5.1878	-1.10126e-05
2	0	0	1	0	1	35.5791	0.394213	0.393917	-0.0223912	2	0.000151317	13	0	5.5373	-8.82026e-06
2	0	0	1	0	1	35.9287	0.390718	0.390439	-0.0286983	2	0.000141238	13	0	5.8869	-1.12049e-05
2	0	0	1	0	1	36.2781	0.387223	0.386948	-0.035391	2	0.000130923	13	0	6.2363	-1.36945e-05
2	0	0	1	0	1	36.6277	0.383728	0.383482	-0.0331479	2	0.000120375	13	0	6.5859	-1.27116e-05
2	0	0	1	0	1	36.9772	0.380232	0.379954	-0.0258592	2	0.000109718	13	0	6.9354	-9.82529e-06
2	0	0	1	0	1	37.3267	0.376737	0.376468	-0.0265887	2	9.89375e-05	13	0	7.2849	-1.00098e-05
2	0	0	1	0	1	37.6762	0.373243	0.37295	-0.035599	2	8.78973e-05	13	0	7.6344	-1.32767e-05
2	0	0	1	0	1	38.0257	0.369747	0.36952	-0.0382493	2	7.65874e-05	13	0	7.9839	-1.41339e-05
2	0	0	1	0	1	38.3753	0.366252	0.366016	-0.0319225	2	6.50452e-05	13	0	8.3335	-1.16841e-05
2	0	0	1	0	1	38.7247	0.362757	0.362501	-0.0278711	2	5.34159e-05	13	0	8.6829	-1.01033e-05
2	0	0	1	0	1	39.0743	0.359262	0.358953	-0.033466	2	4.15248e-05	13	0	9.0325	-1.20127e-05
2	0	0	1	0	1	39.4238	0.355766	0.355474	-0.0411633	2	2.93395e-05	13	0	9.382	-1.46325e-05
2	0	0	1	0	1	39.7733	0.352271	0.352036	-0.039273	2	1.68403e-05	13	0	9.7315	-1.38255e-05
2	0	0	1	0	0	40.0305	0.350324	0.350024	0.00293978	3	8.54194e-06	13	0	9.9887	1.02899e-06
2	1	0	1	0	0	40.44	0.354419	0.354162	0.0247685	3	1.98781e-05	13	0	0.3445	8.77208e-06
2	1	0	1	0	0	40.7895	0.357913	0.357621	0.0314645	3	3.06401e-05	13	0	0.694	1.12524e-05
2	1	0	1	0	0	41.139	0.361408	0.361156	0.0377842	3	4.16128e-05	13	0	1.0435	1.3646e-05
2	1	0	1	0	0	41.4885	0.364904	0.364669	0.0333831	3	5.2631e-05	13	0	1.393	1.21738e-05
2	1	0	1	0	0	41.8381	0.368399	0.368138	0.0257792	3	6.35267e-05	13	0	1.7426	9.4903e-06
2	1	0	1	0	0	42.1875	0.371894	0.371691	0.0266521	3	7.42832e-05	13	0	2.092	9.90635e-06
2	1	0	1	0	0	42.5371	0.375389	0.375172	0.0333028	3	8.49943e-05	13	0	2.4416	1.24942e-05
2	1	0	1	0	0	42.8866	0.378885	0.378627	0.0366567	3	9.56679e-05	13	0	2.7911	1.38792e-05
2	1	0	1	0	0	43.2361	0.38238	0.382112	0.0325162	3	0.000106205	13	0	3.1406	1.24248e-05
2	1	0	1	0	0	43.5856	0.385874	0.385575	0.0259961	3	0.000116595	13	0	3.4901	1.00235e-05
2	1	0	1	0	0	43.9351	0.38937	0.389164	0.0233505	3	0.000126843	13	0	3.8396	9.08717e-06
2	1	0	1	0	0	44.2847	0.392865	0.392585	0.0268198	3	0.000136985	13	0	4.1892	1.05291e-05
2	1	0	1	0	0	44.6342	0.396361	0.396092	0.0325261	3	0.000147077	13	0	4.5387	1.28833e-05
2	1	0	1	0	0	44.9837	0.399855	0.399661	0.0345318	3	0.000157118	13	0	4.8882	1.3801e-05
2	1	0	1	0	0	45.3332	0.40335	0.403091	0.0272596	3	0.000167044	13	0	5.2377	1.09881e-05
2	1	0	1	0	0	45.6827	0.406846	0.406621	0.0221116	3	0.000176854	13	0	5.5872	8.99104e-06
2	1	0	1	0	0	46.0323	0.410341	0.410196	0.0260899	3	0.000186509	13	0	5.9368	1.0702e-05
2	1	0	1	0	0	46.3817	0.413836	0.413655	0.0327825	3	0.000196122	13	0	6.2862	1.35606e-05
2	1	0	1	0	0	46.7313	0.417331	0.417095	0.0308986	3	0.000205712	13	0	6.6358	1.28876e-05
2	1	0	1	0	0	47.0808	0.420827	0.420593	0.0224987	3	0.000215148	13	0	6.9853	9.46278e-06
2	1	0	1	0	0	47.4303	0.424321	0.424092	0.021956	3	0.000224444	13	0	7.3348	9.31137e-06
2	1	0	1	0	0	47.7798	0.427816	0.427669	0.0302143	3	0.00023369	13	0	7.6843	1.29217e-05
2	1	0	1	0	0	48.1293	0.431312	0.431134	0.0314038	3	0.000242962	13	0	8.0338	1.35393e-05
2	1	0	1	0	0	48.4789	0.434807	0.434582	0.0226234	3	0.00025211	13	0	8.3834	9.83171e-06
2	1	0	1	0	0	48.8283	0.438302	0.43807	0.0210124	3	0.0002611	13	0	8.7328	9.2049e-06
2	1	0	1	0	0	49.1779	0.441797	0.441583	0.0282534	3	0.000270046	13	0	9.0824	1.24762e-05
2	1	0	1	0	0	49.5274	0.445293	0.445121	0.0310454	3	0.000279034	13	0	9.4319	1.38189e-05
2	1	0	1	0	0	49.8769	0.448787	0.448534	0.022929	3	0.00028792	13	0	9.7814	1.02844e-05
2	0	0	1	0	0	50.2331	0.447639	0.447428	-0.0262837	3	0.000287603	13	0	0.2097	-1.17601e-05
2	0	0	1	0	0	50.5827	0.444144	0.44391	-0.0242015	3	0.000280117	13	0	0.5593	-1.07433e-05
2	0	0	1	0	0	50.9321	0.440649	0.440419	-0.0169016	3	0.000272368	13	0	0.9087	-7.44378e-06
2	0	0	1	0	0	51.2817	0.437154	0.436885	-0.0212237	3	0.000264402	13	0	1.2583	-9.2723e-06
2	0	0	1	0	0	51.6312	0.433658	0.433435	-0.0292625	3	0.00025618	13	0	1.6078	-1.26834e-05
2	0	0	1	0	0	51.9807	0.430163	0.429926	-0.0265885	3	0.0002477	13	0	1.9573	-1.14311e-05
2	0	0	1	0	0	52.3302	0.426669	0.426424	-0.0191899	3	0.000239175	13	0	2.3068	-8.18306e-06
2	0	0	1	0	0	52.6797	0.423173	0.422946	-0.0228193	3	0.000230548	13	0	2.6563	-9.65135e-06
2	0	0	1	0	0	53.0293	0.419678	0.419375	-0.031364	3	0.000221668	13	0	3.0059	-1.31533e-05
2	0	0	1	0	0	53.3788	0.416182	0.415966	-0.028023	3	0.000212565	13	0	3.3554	-1.16566e-05
2	0	0	1	0	0	53.7283	0.412688	0.412467	-0.0202085	3	0.000203439	13	0	3.7049	-8.33535e-06
2	0	0	1	0	0	54.0778	0.409192	0.408976	-0.0260051	3	0.000194208	13	0	4.0544	-1.06355e-05
2	0	0	1	0	0	54.4273	0.405697	0.405401	-0.0339775	3	0.000184705	13	0	4.4039	-1.37745e-05
2	0	0	1	0	0	54.7769	0.402202	0.40194	-0.0279635	3	0.000175029	13	0	4.7535	-1.12397e-05
2	0	0	1	0	0	55.1263	0.398707	0.398445	-0.0223142	3	0.00016532	13	0	5.1029	-8.89097e-06
2	0	0	1	0	0	55.4759	0.395212	0.394953	-0.0281026	3	0.000155484	13	0	5.4525	-1.10992e-05
2	0	0	1	0	0	55.8254	0.391716	0.391432	-0.0353831	3	0.000145366	13	0	5.802	-1.38501e-05
2	0	0	1	0	0	56.1749	0.388221	0.38792	-0.0289605	3	0.000135085	13	0	6.1515	-1.12344e-05
2	0	0	1	0	0	56.5244	0.384727	0.384456	-0.0240025	3	0.000124719	13	0	6.501	-9.22791e-06
2	0	0	1	0	0	56.8739	0.381231	0.380923	-0.032926	3	0.000114186	13	0	6.8505	-1.25423e-05
2	0	0	1	0	0	57.2235	0.377736	0.37751	-0.0368973	3	0.000103339	13	0	7.2001	-1.39291e-05
2	0	0	1	0	0	57.5729	0.374241	0.374017	-0.0283988	3	9.23343e-05	13	0	7.5495	-1.06216e-05
2	0	0	1	0	0	57.9225	0.370746	0.370494	-0.0274603	3	8.12107e-05	13	0	7.8991	-1.01739e-05
2	0	0	1	0	0	58.272	0.36725	0.366951	-0.0368349	3	6.98442e-05	13	0	8.2486	-1.35166e-05
2	0	0	1	0	0	58.6215	0.363755	0.363502	-0.0383517	3	5.81468e-05	13	0	8.5981	-1.39409e-05
2	0	0	1	0	0	58.971	0.360261	0.360019	-0.0303585	3	4.62777e-05	13	0	8.9476	-1.09297e-05
2	0	0	1	0	0	59.3205	0.356765	0.356474	-0.0300643	3	3.42526e-05	13	0	9.2971	-1.07171e-05
2	0	0	1	0	0	59.6701	0.35327	0.353003	-0.0395922	3	2.19332e-05	13	0	9.6467	-1.39762e-05
2	0	0	1	0	0	59.9946	0.35	0.349724	-0.0249808	3	1.02683e-05	13	0	9.9712	-8.73638e-06
2	1	0	1	0	1	60.3367	0.35342	0.35314	0.0280018	4	1.78898e-05	13	0	0.2446	9.88853e-06
2	1	0	1	0	1	60.6863	0.356915	0.356665	0.0251426	4	2.85095e-05	13	0	0.5942	8.96747e-06
2	1	0	1	0	1	61.0357	0.36041	0.360167	0.033745	4	3.936e-05	13	0	0.9436	1.21538e-05
2	1	0	1	0	1	61.3853	0.363905	0.363651	0.0373039	4	5.0348e-05	13	0	1.2932	1.35656e-05
2	1	0	1	0	1	61.7348	0.367401	0.36714	0.0296171	4	6.12947e-05	13	0	1.6427	1.08736e-05
2	1	0	1	0	1	62.0843	0.370895	0.370633	0.0246247	4	7.20666e-05	13	0	1.9922	9.12671e-06
2	1	0	1	0	1	62.4338	0.37439	0.374174	0.031398	4	8.2763e-05	13	0	2.3417	1.17483e-05
2	1	0	1	0	1	62.7833	0.377886	0.377644	0.0361138	4	9.34535e-05	13	0	2.6912	1.36382e-05
2	1	0	1	0	1	63.1329	0.381381	0.381099	0.0304957	4	0.00010407	13	0	3.0408	1.16219e-05
2	1	0	1	0	1	63.4823	0.384876	0.384582	0.023567	4	0.000114465	13	0	3.3902	9.06345e-06
2	1	0	1	0	1	63.8319	0.388371	0.388126	0.0278717	4	0.000124743	13	0	3.7398	1.08177e-05
2	1	0	1	0	1	64.1814	0.391867	0.391617	0.0351251	4	0.000134979	13	0	4.0893	1.37556e-05
2	1	0	1	0	1	64.5309	0.395362	0.395076	0.0313451	4	0.000145165	13	0	4.4388	1.23837e-05
2	1	0	1	0	1	64.8804	0.398856	0.39858	0.023027	4	0.000155158	13	0	4.7883	9.17809e-06
2	1	0	1	0	1	65.2299	0.402352	0.402103	0.0252838	4	0.000165008	13	0	5.1378	1.01667e-05
2	1	0	1	0	1	65.5795	0.405847	0.405612	0.0325998	4	0.000174832	13	0	5.4874	1.32229e-05
2	1	0	1	0	1	65.929	0.409343	0.409142	0.032124	4	0.000184672	13	0	5.8369	1.31433e-05
2	1	0	1	0	1	66.2785	0.412837	0.41262	0.0232555	4	0.000194308	13	0	6.1864	9.59569e-06
2	1	0	1	0	1	66.628	0.416332	0.416158	0.0219868	4	0.000203765	13	0	6.5359	9.14999e-06
2	1	0	1	0	1	66.9775	0.419828	0.4196	0.0299575	4	0.00021318	13	0	6.8854	1.25702e-05
2	1	0	1	0	1	67.327	0.423322	0.423104	0.0322186	4	0.000222588	13	0	7.2349	1.36318e-05
2	1	0	1	0	1	67.6765	0.426818	0.426521	0.0252694	4	0.000231919	13	0	7.5844	1.07779e-05
2	1	0	1	0	1	68.0261	0.430313	0.430103	0.0201931	4	0.000241066	13	0	7.934	8.6851e-06
2	1	0	1	0	1	68.3756	0.433809	0.433555	0.0254075	4	0.000250141	13	0	8.2835	1.10155e-05
2	1	0	1	0	1	68.7251	0.437303	0.437106	0.031789	4	0.000259205	13	0	8.633	1.38952e-05
2	1	0	1	0	1	69.0746	0.440798	0.440581	0.0276157	4	0.000268243	13	0	8.9825	1.21669e-05
2	1	0	1	0	1	69.4241	0.444294	0.444083	0.0198801	4	0.000277128	13	0	9.332	8.82843e-06
2	1	0	1	0	1	69.7737	0.447789	0.447636	0.0220078	4	0.000285917	13	0	9.6816	9.85149e-06
2	0	0	1	0	1	70.0699	0.449237	0.449001	-0.0212633	4	0.00029096	13	0	0.0499	-9.54722e-06
2	0	0	1	0	1	70.4195	0.445742	0.445532	-0.0184735	4	0.000283909	13	0	0.3995	-8.23054e-06
2	0	0	1	0	1	70.769	0.442246	0.441994	-0.0164022	4	0.000276362	13	0	0.749	-7.24969e-06
2	0	0	1	0	1	71.1185	0.438751	0.438494	-0.0248458	4	0.000268511	13	0	1.0985	-1.08948e-05
2	0	0	1	0	1	71.468	0.435257	0.43498	-0.029419	4	0.000260343	13	0	1.448	-1.27967e-05
2	0	0	1	0	1	71.8175	0.431761	0.431559	-0.0239907	4	0.000251991	13	0	1.7975	-1.03534e-05
2	0	0	1	0	1	72.1671	0.428266	0.428027	-0.0185995	4	0.000243555	13	0	2.1471	-7.96108e-06
2	0	0	1	0	1	72.5165	0.424771	0.42448	-0.0230605	4	0.000235003	13	0	2.4965	-9.78872e-06
2	0	0	1	0	1	72.8661	0.421276	0.420984	-0.0307762	4	0.000226212	13	0	2.8461	-1.29563e-05
2	0	0	1	0	1	73.2156	0.41778	0.417531	-0.0296312	4	0.000217236	13	0	3.1956	-1.23719e-05
2	0	0	1	0	1	73.5651	0.414285	0.414087	-0.0219407	4	0.00020815	13	0	3.5451	-9.08538e-06
2	0	0	1	0	1	73.9146	0.410791	0.410527	-0.021486	4	0.000199015	13	0	3.8946	-8.82057e-06
2	0	0	1	0	1	74.2641	0.407295	0.406994	-0.0293549	4	0.000189685	13	0	4.2441	-1.19473e-05
2	0	0	1	0	1	74.6137	0.4038	0.40354	-0.0331136	4	0.000180068	13	0	4.5937	-1.33627e-05
2	0	0	1	0	1	74.9632	0.400304	0.400042	-0.0280996	4	0.000170346	13	0	4.9432	-1.1241e-05
2	0	0	1	0	1	75.3127	0.39681	0.396554	-0.0220691	4	0.000160576	13	0	5.2927	-8.75157e-06
2	0	0	1	0	1	75.6622	0.393314	0.393018	-0.0265906	4	0.000150658	13	0	5.6422	-1.04506e-05
2	0	0	1	0	1	76.0117	0.389819	0.389587	-0.0344418	4	0.000140517	13	0	5.9917	-1.34181e-05
2	0	0	1	0	1	76.3613	0.386324	0.386061	-0.0339048	4	0.000130127	13	0	6.3413	-1.30893e-05
2	0	0	1	0	1	76.7107	0.382829	0.382582	-0.02654	4	0.000119623	13	0	6.6907	-1.01537e-05
2	0	0	1	0	1	77.0603	0.379334	0.379074	-0.0255733	4	0.000108995	13	0	7.0403	-9.69418e-06
2	0	0	1	0	1	77.4098	0.375838	0.375562	-0.0333245	4	9.8163e-05	13	0	7.3898	-1.25154e-05
2	0	0	1	0	1	77.7593	0.372343	0.372093	-0.0384989	4	8.70285e-05	13	0	7.7393	-1.43252e-05
2	0	0	1	0	1	78.1088	0.368849	0.36862	-0.0325929	4	7.56745e-05	13	0	8.0888	-1.20144e-05
2	0	0	1	0	1	78.4583	0.365353	0.365088	-0.0273236	4	6.41641e-05	13	0	8.4383	-9.97553e-06
2	0	0	1	0	1	78.8079	0.361858	0.361593	-0.0313738	4	5.24905e-05	13	0	8.7879	-1.13445e-05
2	0	0	1	0	1	79.1573	0.358363	0.358085	-0.0398318	4	4.05171e-05	13	0	9.1373	-1.42632e-05
2	0	0	1	0	1	79.5069	0.354868	0.354628	-0.0399466	4	2.82442e-05	13	0	9.4869	-1.41662e-05
2	0	0	1	0	1	79.8564	0.351372	0.351113	-0.0336983	4	1.5761e-05	13	0	9.8364	-1.18319e-05
2	1	0	1	0	0	80.0737	0.350823	0.350592	0.0240453	5	1.12273e-05	13	0	0.000000000000000E+000	8.43008e-06
2	1	0	1	0	0	80.4831	0.354918	0.354668	0.0319703	5	2.2475e-05	13	0	0.4094	1.13389e-05
2	1	0	1	0	0	80.8327	0.358413	0.358189	0.0253168	5	3.32848e-05	13	0	0.759	9.06822e-06
2	1	0	1	0	0	81.1821	0.361908	0.361708	0.0284593	5	4.41435e-05	13	0	1.1084	1.0294e-05
2	1	0	1	0	0	81.5317	0.365403	0.3652	0.0367528	5	5.50763e-05	13	0	1.458	1.34221e-05
2	1	0	1	0	0	81.8812	0.368899	0.368625	0.0347295	5	6.60197e-05	13	0	1.8075	1.28021e-05
2	1	0	1	0	0	82.2307	0.372393	0.372193	0.0264183	5	7.68448e-05	13	0	2.157	9.8327e-06
2	1	0	1	0	0	82.5802	0.375888	0.375661	0.0255847	5	8.74767e-05	13	0	2.5065	9.61116e-06
2	1	0	1	0	0	82.9297	0.379384	0.379179	0.0331146	5	9.80521e-05	13	0	2.856	1.25564e-05
2	1	0	1	0	0	83.2793	0.382879	0.382627	0.0354545	5	0.000108596	13	0	3.2056	1.35658e-05
2	1	0	1	0	0	83.6287	0.386374	0.386106	0.0274106	5	0.000119031	13	0	3.555	1.05834e-05
2	1	0	1	0	0	83.9783	0.389869	0.389642	0.0231341	5	0.000129252	13	0	3.9046	9.01401e-06
2	1	0	1	0	0	84.3278	0.393365	0.393151	0.0304454	5	0.000139382	13	0	4.2541	1.19696e-05
2	1	0	1	0	0	84.6773	0.396859	0.39662	0.0344476	5	0.00014948	13	0	4.6036	1.36626e-05
2	1	0	1	0	0	85.0268	0.400354	0.400131	0.0287255	5	0.00015951	13	0	4.9531	1.1494e-05
2	1	0	1	0	0	85.3763	0.40385	0.403638	0.0222326	5	0.000169336	13	0	5.3026	8.97391e-06
2	1	0	1	0	0	85.7259	0.407345	0.407177	0.0249462	5	0.000179109	13	0	5.6522	1.01575e-05
2	1	0	1	0	0	86.0753	0.41084	0.410692	0.031371	5	0.000188764	13	0	6.0016	1.28838e-05
2	1	0	1	0	0	86.4249	0.414335	0.414106	0.0331431	5	0.000198389	13	0	6.3512	1.37247e-05
2	1	0	1	0	0	86.7744	0.417831	0.417591	0.026	5	0.000207903	13	0	6.7007	1.08573e-05
2	1	0	1	0	0	87.1239	0.421326	0.421089	0.0210786	5	0.000217259	13	0	7.0502	8.87595e-06
2	1	0	1	0	0	87.4734	0.42482	0.424578	0.0255986	5	0.000226509	13	0	7.3997	1.08686e-05
2	1	0	1	0	0	87.8229	0.428316	0.428111	0.0322531	5	0.000235771	13	0	7.7492	1.38079e-05
2	1	0	1	0	0	88.1725	0.431811	0.431629	0.0277185	5	0.000244987	13	0	8.0988	1.19641e-05
2	1	0	1	0	0	88.522	0.435307	0.435066	0.0201922	5	0.000254039	13	0	8.4483	8.78496e-06
2	1	0	1	0	0	88.8715	0.438801	0.438596	0.023317	5	0.000262996	13	0	8.7978	1.02267e-05
2	1	0	1	0	0	89.221	0.442296	0.442131	0.030972	5	0.000271957	13	0	9.1473	1.36937e-05
2	1	0	1	0	0	89.5705	0.445792	0.445569	0.028227	5	0.000280929	13	0	9.4968	1.25771e-05
2	1	0	1	0	0	89.9201	0.449287	0.449094	0.0207469	5	0.000289759	13	0	9.8464	9.31732e-06
2	0	0	1	0	0	90.2163	0.447739	0.447514	-0.0235635	5	0.000288157	13	0	0.1498	-1.0545e-05
2	0	0	1	0	0	90.5659	0.444244	0.44397	-0.0273602	5	0.000280726	13	0	0.4994	-1.21471e-05
2	0	0	1	0	0	90.9154	0.440748	0.440493	-0.0209867	5	0.000272916	13	0	0.8489	-9.24449e-06
2	0	0	1	0	0	91.2649	0.437253	0.43699	-0.0172097	5	0.000264963	13	0	1.1984	-7.52046e-06
2	0	0	1	0	0	91.6144	0.433759	0.433462	-0.0240825	5	0.000256807	13	0	1.5479	-1.04389e-05
2	0	0	1	0	0	91.9639	0.430263	0.430039	-0.0298147	5	0.000248397	13	0	1.8974	-1.28215e-05
2	0	0	1	0	0	92.3135	0.426768	0.426484	-0.0263792	5	0.00023979	13	0	2.247	-1.12503e-05
2	0	0	1	0	0	92.6629	0.423273	0.423017	-0.0193795	5	0.000231126	13	0	2.5964	-8.19787e-06
2	0	0	1	0	0	93.0125	0.419778	0.419541	-0.0221418	5	0.000222356	13	0	2.946	-9.2894e-06
2	0	0	1	0	0	93.362	0.416282	0.416046	-0.030442	5	0.000213384	13	0	3.2955	-1.26653e-05
2	0	0	1	0	0	93.7115	0.412787	0.41258	-0.0315405	5	0.000204211	13	0	3.645	-1.3013e-05
2	0	0	1	0	0	94.061	0.409293	0.409081	-0.0245866	5	0.00019491	13	0	3.9945	-1.00579e-05
2	0	0	1	0	0	94.4105	0.405797	0.405552	-0.0224122	5	0.000185523	13	0	4.344	-9.08931e-06
2	0	0	1	0	0	94.7601	0.402302	0.402044	-0.0265374	5	0.000175983	13	0	4.6936	-1.06692e-05
2	0	0	1	0	0	95.1095	0.398807	0.398498	-0.0341987	5	0.000166248	13	0	5.043	-1.36281e-05
2	0	0	1	0	0	95.4591	0.395312	0.395089	-0.0319372	5	0.000156312	13	0	5.3926	-1.2618e-05
2	0	0	1	0	0	95.8086	0.391816	0.391585	-0.0250516	5	0.000146264	13	0	5.7421	-9.80983e-06
2	0	0	1	0	0	96.1581	0.388321	0.388021	-0.024071	5	0.000136118	13	0	6.0916	-9.34007e-06
2	0	0	1	0	0	96.5076	0.384827	0.384509	-0.0312209	5	0.000125785	13	0	6.4411	-1.20047e-05
2	0	0	1	0	0	96.8571	0.381331	0.381072	-0.0366215	5	0.000115183	13	0	6.7906	-1.39554e-05
2	0	0	1	0	0	97.2067	0.377836	0.377539	-0.0333841	5	0.000104383	13	0	7.1402	-1.26038e-05
2	0	0	1	0	0	97.5562	0.37434	0.374062	-0.0265568	5	9.34501e-05	13	0	7.4897	-9.93388e-06
2	0	0	1	0	0	97.9057	0.370846	0.370545	-0.0276306	5	8.23826e-05	13	0	7.8392	-1.02384e-05
2	0	0	1	0	0	98.2552	0.36735	0.367029	-0.0359068	5	7.1047e-05	13	0	8.1887	-1.31789e-05
2	0	0	1	0	0	98.6047	0.363855	0.363609	-0.0392222	5	5.9436e-05	13	0	8.5382	-1.42615e-05
2	0	0	1	0	0	98.9543	0.36036	0.36009	-0.0348454	5	4.75661e-05	13	0	8.8878	-1.25475e-05
2	0	0	1	0	0	99.3037	0.356865	0.356566	-0.0288887	5	3.55727e-05	13	0	9.2372	-1.03007e-05
2	0	0	1	0	0	99.6533	0.35337	0.353077	-0.0325936	5	2.33275e-05	13	0	9.5868	-1.15081e-05
2	0	0	1	0	0	99.9829	0.350074	0.349876	-0.0432594	5	1.15778e-05	13	0	9.9164	-1.51354e-05
2	1	0	1	0	1	100.28	0.352921	0.352697	0.0243993	6	1.80659e-05	13	0	0.1797	8.60555e-06
2	1	0	1	0	1	100.629	0.356416	0.356178	0.0324447	6	2.86701e-05	13	0	0.5292	1.15561e-05
2	1	0	1	0	1	100.979	0.35991	0.359711	0.0377565	6	3.96032e-05	13	0	0.8787	1.35814e-05
2	1	0	1	0	1	101.328	0.363406	0.363161	0.0319369	6	5.0567e-05	13	0	1.2282	1.15983e-05
2	1	0	1	0	1	101.678	0.366901	0.366663	0.0257558	6	6.14212e-05	13	0	1.5778	9.4437e-06
2	1	0	1	0	1	102.028	0.370397	0.370137	0.0271942	6	7.21728e-05	13	0	1.9273	1.00656e-05
2	1	0	1	0	1	102.377	0.373891	0.373641	0.0344077	6	8.28962e-05	13	0	2.2768	1.28561e-05
2	1	0	1	0	1	102.727	0.377386	0.377115	0.0358515	6	9.35994e-05	13	0	2.6263	1.35201e-05
2	1	0	1	0	1	103.076	0.380882	0.380598	0.0281049	6	0.000104177	13	0	2.9758	1.06967e-05
2	1	0	1	0	1	103.426	0.384376	0.384157	0.0234437	6	0.000114569	13	0	3.3253	9.00605e-06
2	1	0	1	0	1	103.775	0.387872	0.387637	0.0292737	6	0.000124847	13	0	3.6748	1.13476e-05
2	1	0	1	0	1	104.125	0.391367	0.391121	0.0345764	6	0.000135101	13	0	4.0244	1.35236e-05
2	1	0	1	0	1	104.474	0.394863	0.394584	0.0324465	6	0.000145281	13	0	4.3739	1.28029e-05
2	1	0	1	0	1	104.824	0.398357	0.398087	0.0246432	6	0.00015531	13	0	4.7234	9.81016e-06
2	1	0	1	0	1	105.173	0.401852	0.401594	0.0226509	6	0.000165156	13	0	5.0729	9.09646e-06
2	1	0	1	0	1	105.523	0.405348	0.40512	0.0285667	6	0.000174924	13	0	5.4224	1.15729e-05
2	1	0	1	0	1	105.872	0.408843	0.408691	0.0333404	6	0.000184736	13	0	5.772	1.36259e-05
2	1	0	1	0	1	106.222	0.412338	0.412117	0.0309647	6	0.000194428	13	0	6.1214	1.27611e-05
2	1	0	1	0	1	106.571	0.415833	0.415597	0.0235127	6	0.000203969	13	0	6.471	9.77181e-06
2	1	0	1	0	1	106.921	0.419329	0.419103	0.0214256	6	0.000213363	13	0	6.8205	8.97953e-06
2	1	0	1	0	1	107.27	0.422823	0.422593	0.0279822	6	0.000222674	13	0	7.17	1.18251e-05
2	1	0	1	0	1	107.62	0.426318	0.42608	0.0326265	6	0.000232012	13	0	7.5195	1.39015e-05
2	1	0	1	0	1	107.969	0.429814	0.429561	0.0273221	6	0.000241271	13	0	7.869	1.17365e-05
2	1	0	1	0	1	108.319	0.433309	0.433055	0.0207322	6	0.000250395	13	0	8.2186	8.97819e-06
2	1	0	1	0	1	108.668	0.436804	0.436579	0.0229864	6	0.000259382	13	0	8.568	1.00354e-05
2	1	0	1	0	1	109.018	0.440299	0.440097	0.0299729	6	0.000268393	13	0	8.9176	1.3191e-05
2	1	0	1	0	1	109.367	0.443795	0.443539	0.0310079	6	0.000277378	13	0	9.2671	1.37532e-05
2	1	0	1	0	1	109.717	0.44729	0.447125	0.0240122	6	0.000286298	13	0	9.6166	1.07364e-05
2	1	0	1	0	1	110.013	0.449737	0.449497	-7.60641e-05	6	0.000293107	13	0	9.9129	-3.41906e-08
2	0	0	1	0	1	110.363	0.446241	0.44597	-0.0267051	6	0.000286591	13	0	0.2996	-1.19097e-05
2	0	0	1	0	1	110.712	0.442746	0.442495	-0.0243749	6	0.000278937	13	0	0.6492	-1.07857e-05
2	0	0	1	0	1	111.062	0.43925	0.439004	-0.0175718	6	0.000271074	13	0	0.9987	-7.71409e-06
2	0	0	1	0	1	111.411	0.435755	0.435495	-0.0208473	6	0.000263027	13	0	1.3482	-9.07888e-06
2	0	0	1	0	1	111.761	0.43226	0.431947	-0.0296648	6	0.000254733	13	0	1.6977	-1.28136e-05
2	0	0	1	0	1	112.11	0.428765	0.428513	-0.0275632	6	0.000246205	13	0	2.0472	-1.18112e-05
2	0	0	1	0	1	112.46	0.425271	0.425011	-0.0202439	6	0.000237603	13	0	2.3967	-8.60387e-06
2	0	0	1	0	1	112.809	0.421775	0.42151	-0.0208329	6	0.000228905	13	0	2.7462	-8.78126e-06
2	0	0	1	0	1	113.159	0.41828	0.418011	-0.0286786	6	0.000220039	13	0	3.0958	-1.1988e-05
2	0	0	1	0	1	113.508	0.414784	0.414523	-0.0318803	6	0.000210943	13	0	3.4453	-1.32151e-05
2	0	0	1	0	1	113.858	0.411289	0.411064	-0.0251727	6	0.000201722	13	0	3.7948	-1.03476e-05
2	0	0	1	0	1	114.207	0.407795	0.407567	-0.0208112	6	0.000192422	13	0	4.1443	-8.48197e-06
2	0	0	1	0	1	114.557	0.404299	0.403991	-0.0267474	6	0.000182944	13	0	4.4938	-1.08057e-05
2	0	0	1	0	1	114.906	0.400804	0.400539	-0.0335001	6	0.000173284	13	0	4.8434	-1.34181e-05
2	0	0	1	0	1	115.256	0.397309	0.397033	-0.031221	6	0.000163445	13	0	5.1928	-1.23958e-05
2	0	0	1	0	1	115.605	0.393814	0.393523	-0.0241202	6	0.000153493	13	0	5.5424	-9.49188e-06
2	0	0	1	0	1	115.955	0.390318	0.390053	-0.0242385	6	0.00014346	13	0	5.8919	-9.4543e-06
2	0	0	1	0	1	116.304	0.386823	0.3865	-0.0329668	6	0.000133213	13	0	6.2414	-1.27417e-05
2	0	0	1	0	1	116.654	0.383329	0.383029	-0.0358149	6	0.000122729	13	0	6.5909	-1.37182e-05
2	0	0	1	0	1	117.003	0.379833	0.379578	-0.0300247	6	0.000112042	13	0	6.9404	-1.13967e-05
2	0	0	1	0	1	117.353	0.376338	0.376071	-0.0252202	6	0.000101283	13	0	7.29	-9.4846e-06
2	0	0	1	0	1	117.702	0.372843	0.372559	-0.0306773	6	9.03256e-05	13	0	7.6394	-1.14291e-05
2	0	0	1	0	1	118.052	0.369348	0.36908	-0.0378908	6	7.90933e-05	13	0	7.989	-1.39847e-05
2	0	0	1	0	1	118.402	0.365852	0.365585	-0.0370751	6	6.75894e-05	13	0	8.3385	-1.35541e-05
2	0	0	1	0	1	118.751	0.362357	0.362107	-0.0292319	6	5.59317e-05	13	0	8.688	-1.05851e-05
2	0	0	1	0	1	119.101	0.358863	0.358524	-0.0291183	6	4.41123e-05	13	0	9.0375	-1.04396e-05
2	0	0	1	0	1	119.45	0.355367	0.355042	-0.0369009	6	3.20425e-05	13	0	9.387	-1.31014e-05
2	0	0	1	0	1	119.8	0.351872	0.351579	-0.0418342	6	1.96001e-05	13	0	9.7366	-1.47081e-05
2	0	0	1	0	0	120.017	0.350324	0.350088	-0.00638259	7	1.27022e-05	13	0	9.9538	-2.23447e-06
2	1	0	1	0	0	120.426	0.354419	0.354145	0.0367371	7	2.39843e-05	13	0	0.3445	1.30103e-05
2	1	0	1	0	0	120.776	0.357913	0.357638	0.0330167	7	3.48264e-05	13	0	0.694	1.1808e-05
2	1	0	1	0	0	121.125	0.361408	0.361186	0.0259519	7	4.57014e-05	13	0	1.0435	9.37346e-06
2	1	0	1	0	0	121.475	0.364904	0.364636	0.0268632	7	5.6526e-05	13	0	1.393	9.79528e-06
2	1	0	1	0	0	121.824	0.368399	0.368208	0.0346174	7	6.73668e-05	13	0	1.7426	1.27464e-05
2	1	0	1	0	0	122.174	0.371894	0.371683	0.0365194	7	7.82065e-05	13	0	2.092	1.35736e-05
2	1	0	1	0	0	122.523	0.375389	0.375114	0.0290309	7	8.89324e-05	13	0	2.4416	1.08899e-05
2	1	0	1	0	0	122.873	0.378885	0.378585	0.0241364	7	9.9477e-05	13	0	2.7911	9.13767e-06
2	1	0	1	0	0	123.222	0.38238	0.382147	0.0287434	7	0.000109899	13	0	3.1406	1.09842e-05
2	1	0	1	0	0	123.572	0.385874	0.385608	0.0347654	7	0.000120296	13	0	3.4901	1.34058e-05
2	1	0	1	0	0	123.921	0.38937	0.389137	0.0330007	7	0.000130636	13	0	3.8396	1.28418e-05
2	1	0	1	0	0	124.271	0.392865	0.392615	0.0246358	7	0.000140821	13	0	4.1892	9.67239e-06
2	1	0	1	0	0	124.621	0.396361	0.396105	0.0232712	7	0.000150822	13	0	4.5387	9.21783e-06
2	1	0	1	0	0	124.97	0.399855	0.399685	0.0301728	7	0.000160753	13	0	4.8882	1.20596e-05
2	1	0	1	0	0	125.32	0.40335	0.403074	0.0341027	7	0.000170661	13	0	5.2377	1.37459e-05
2	1	0	1	0	0	125.669	0.406846	0.40659	0.0293302	7	0.000180556	13	0	5.5872	1.19254e-05
2	1	0	1	0	0	126.019	0.410341	0.410139	0.0221378	7	0.000190219	13	0	5.9368	9.07956e-06
2	1	0	1	0	0	126.368	0.413836	0.413619	0.0230443	7	0.000199736	13	0	6.2862	9.53155e-06
2	1	0	1	0	0	126.718	0.417331	0.417113	0.0303273	7	0.000209187	13	0	6.6358	1.26499e-05
2	1	0	1	0	0	127.067	0.420827	0.420575	0.0327317	7	0.000218643	13	0	6.9853	1.37661e-05
2	1	0	1	0	0	127.417	0.424321	0.424055	0.0269104	7	0.00022801	13	0	7.3348	1.14115e-05
2	1	0	1	0	0	127.766	0.427816	0.427537	0.020975	7	0.000237245	13	0	7.6843	8.96757e-06
2	1	0	1	0	0	128.116	0.431312	0.431101	0.0221005	7	0.000246365	13	0	8.0338	9.52757e-06
2	1	0	1	0	0	128.465	0.434807	0.434566	0.0294211	7	0.000255469	13	0	8.3834	1.27854e-05
2	1	0	1	0	0	128.815	0.438302	0.438086	0.0315643	7	0.00026456	13	0	8.7328	1.38279e-05
2	1	0	1	0	0	129.164	0.441797	0.441531	0.0255618	7	0.000273593	13	0	9.0824	1.12863e-05
2	1	0	1	0	0	129.514	0.445293	0.445069	0.0199243	7	0.000282468	13	0	9.4319	8.86769e-06
2	1	0	1	0	0	129.863	0.448787	0.448567	0.0218337	7	0.000291268	13	0	9.7814	9.79388e-06
2	0	0	1	0	0	130.205	0.447788	0.447538	-0.0237274	7	0.000291617	12	0	0.1948	-1.06189e-05
2	0	0	1	0	0	130.569	0.444144	0.443862	-0.0163127	7	0.000283983	13	0	0.5593	-7.24057e-06
2	0	0	1	0	0	130.918	0.440649	0.4404	-0.0191255	7	0.000276271	13	0	0.9087	-8.42287e-06
2	0	0	1	0	0	131.268	0.437154	0.436903	-0.0273099	7	0.000268262	13	0	1.2583	-1.19318e-05
2	0	0	1	0	0	131.618	0.433658	0.433427	-0.0293442	7	0.000260001	13	0	1.6078	-1.27186e-05
2	0	0	1	0	0	131.967	0.430163	0.429959	-0.0237853	7	0.000251571	13	0	1.9573	-1.02267e-05
2	0	0	1	0	0	132.317	0.426669	0.426413	-0.018967	7	0.00024306	13	0	2.3068	-8.08777e-06
2	0	0	1	0	0	132.666	0.423173	0.422888	-0.0215949	7	0.00023443	13	0	2.6563	-9.1322e-06
2	0	0	1	0	0	133.016	0.419678	0.419356	-0.0289838	7	0.000225602	13	0	3.0059	-1.21545e-05
2	0	0	1	0	0	133.365	0.416182	0.415924	-0.0321076	7	0.000216581	13	0	3.3554	-1.33543e-05
2	0	0	1	0	0	133.715	0.412688	0.412476	-0.0265556	7	0.000207402	13	0	3.7049	-1.09536e-05
2	0	0	1	0	0	134.064	0.409192	0.408956	-0.0212247	7	0.000198162	13	0	4.0544	-8.67998e-06
2	0	0	1	0	0	134.414	0.405697	0.405406	-0.0239296	7	0.000188762	13	0	4.4039	-9.70123e-06
2	0	0	1	0	0	134.763	0.402202	0.401889	-0.0304401	7	0.000179206	13	0	4.7535	-1.22336e-05
2	0	0	1	0	0	135.113	0.398707	0.398392	-0.0343889	7	0.00016944	13	0	5.1029	-1.37002e-05
2	0	0	1	0	0	135.462	0.395212	0.394917	-0.0292635	7	0.000159532	13	0	5.4525	-1.15567e-05
2	0	0	1	0	0	135.812	0.391716	0.39144	-0.0234073	7	0.000149518	13	0	5.802	-9.16257e-06
2	0	0	1	0	0	136.161	0.388221	0.387916	-0.0258354	7	0.000139407	13	0	6.1515	-1.0022e-05
2	0	0	1	0	0	136.511	0.384727	0.384377	-0.033662	7	0.000129039	13	0	6.501	-1.29389e-05
2	0	0	1	0	0	136.86	0.381231	0.38092	-0.0362821	7	0.00011845	13	0	6.8505	-1.38206e-05
2	0	0	1	0	0	137.21	0.377736	0.377502	-0.0310427	7	0.000107659	13	0	7.2001	-1.17187e-05
2	0	0	1	0	0	137.559	0.374241	0.373954	-0.0255796	7	9.67826e-05	13	0	7.5495	-9.5656e-06
2	0	0	1	0	0	137.909	0.370746	0.370461	-0.0284631	7	8.5704e-05	13	0	7.8991	-1.05445e-05
2	0	0	1	0	0	138.258	0.36725	0.366917	-0.0360762	7	7.43968e-05	13	0	8.2486	-1.32369e-05
2	0	0	1	0	0	138.608	0.363755	0.363457	-0.0395316	7	6.27858e-05	13	0	8.5981	-1.4368e-05
2	0	0	1	0	0	138.957	0.360261	0.359974	-0.0344906	7	5.09614e-05	13	0	8.9476	-1.24157e-05
2	0	0	1	0	0	139.307	0.356765	0.356458	-0.0289044	7	3.8967e-05	13	0	9.2971	-1.03032e-05
2	0	0	1	0	0	139.656	0.35327	0.352967	-0.0312724	7	2.67593e-05	13	0	9.6467	-1.10381e-05
2	0	0	1	0	0	139.981	0.35	0.349743	-0.0456296	7	1.52274e-05	13	0	9.9712	-1.59586e-05
2	1	0	1	0	1	140.323	0.35342	0.353181	0.0362366	8	2.18263e-05	13	0	0.2446	1.27981e-05
2	1	0	1	0	1	140.673	0.356915	0.356636	0.0341918	8	3.25624e-05	13	0	0.5942	1.21941e-05
2	1	0	1	0	1	141.022	0.36041	0.360165	0.0274644	8	4.34401e-05	13	0	0.9436	9.89173e-06
2	1	0	1	0	1	141.372	0.363905	0.36367	0.0255451	8	5.42821e-05	13	0	1.2932	9.29e-06
2	1	0	1	0	1	141.721	0.367401	0.367178	0.0309577	8	6.50963e-05	13	0	1.6427	1.1367e-05
2	1	0	1	0	1	142.071	0.370895	0.370641	0.036608	8	7.59171e-05	13	0	1.9922	1.35685e-05
2	1	0	1	0	1	142.42	0.37439	0.374136	0.0334791	8	8.66836e-05	13	0	2.3417	1.25258e-05
2	1	0	1	0	1	142.77	0.377886	0.377607	0.0254809	8	9.72867e-05	13	0	2.6912	9.62179e-06
2	1	0	1	0	1	143.119	0.381381	0.381152	0.024721	8	0.000107735	13	0	3.0408	9.42245e-06
2	1	0	1	0	1	143.469	0.384876	0.384646	0.0303087	8	0.000118075	13	0	3.3902	1.16581e-05
2	1	0	1	0	1	143.818	0.388371	0.38807	0.0353311	8	0.000128423	13	0	3.7398	1.37109e-05
2	1	0	1	0	1	144.168	0.391867	0.391643	0.0324477	8	0.00013865	13	0	4.0893	1.27079e-05
2	1	0	1	0	1	144.517	0.395362	0.395077	0.0247075	8	0.000148757	13	0	4.4388	9.76135e-06
2	1	0	1	0	1	144.867	0.398856	0.398654	0.0225819	8	0.000158669	13	0	4.7883	9.00234e-06
2	1	0	1	0	1	145.216	0.402352	0.402094	0.0282745	8	0.00016851	13	0	5.1378	1.1369e-05
2	1	0	1	0	1	145.566	0.405847	0.405574	0.0332701	8	0.00017831	13	0	5.4874	1.34935e-05
2	1	0	1	0	1	145.915	0.409343	0.409108	0.0322492	8	0.000188118	13	0	5.8369	1.31934e-05
2	1	0	1	0	1	146.265	0.412837	0.412612	0.0244754	8	0.000197722	13	0	6.1864	1.00988e-05
2	1	0	1	0	1	146.614	0.416332	0.41613	0.0211575	8	0.000207181	13	0	6.5359	8.8043e-06
2	1	0	1	0	1	146.964	0.419828	0.419599	0.0251392	8	0.000216536	13	0	6.8854	1.05484e-05
2	1	0	1	0	1	147.313	0.423322	0.423125	0.0312997	8	0.00022588	13	0	7.2349	1.32437e-05
2	1	0	1	0	1	147.663	0.426818	0.426545	0.0316613	8	0.000235208	13	0	7.5844	1.35049e-05
2	1	0	1	0	1	148.012	0.430313	0.430085	0.0258152	8	0.000244436	13	0	7.934	1.11027e-05
2	1	0	1	0	1	148.362	0.433809	0.433566	0.020046	8	0.00025353	13	0	8.2835	8.69127e-06
2	1	0	1	0	1	148.711	0.437303	0.437076	0.0222027	8	0.000262528	13	0	8.633	9.70429e-06
2	1	0	1	0	1	149.061	0.440798	0.440601	0.028237	8	0.000271492	13	0	8.9825	1.24412e-05
2	1	0	1	0	1	149.41	0.444294	0.444058	0.031433	8	0.000280466	13	0	9.332	1.39581e-05
2	1	0	1	0	1	149.76	0.447789	0.447582	0.0267058	8	0.000289389	13	0	9.6816	1.19531e-05
2	0	0	1	0	1	150.071	0.449087	0.448828	-0.0197296	8	0.000294149	13	0	0.000000000000000E+000	-8.85519e-06
2	0	0	1	0	1	150.466	0.445142	0.4449	-0.0276311	8	0.000286148	13	0	0.3945	-1.22931e-05
2	0	0	1	0	1	150.815	0.441647	0.441374	-0.0246881	8	0.000278423	13	0	0.744	-1.08967e-05
2	0	0	1	0	1	151.165	0.438153	0.43787	-0.0185316	8	0.000270475	13	0	1.0935	-8.11444e-06
2	0	0	1	0	1	151.514	0.434657	0.434406	-0.0183045	8	0.000262387	13	0	1.443	-7.95157e-06
2	0	0	1	0	1	151.864	0.431162	0.430861	-0.024914	8	0.000254088	13	0	1.7926	-1.07345e-05
2	0	0	1	0	1	152.213	0.427667	0.427316	-0.0304471	8	0.000245581	13	0	2.142	-1.30105e-05
2	0	0	1	0	1	152.563	0.424172	0.423894	-0.0287504	8	0.000236871	13	0	2.4916	-1.21871e-05
2	0	0	1	0	1	152.912	0.420676	0.420417	-0.0219265	8	0.000228074	13	0	2.8411	-9.21828e-06
2	0	0	1	0	1	153.262	0.417181	0.416931	-0.0201596	8	0.000219181	13	0	3.1906	-8.40518e-06
2	0	0	1	0	1	153.611	0.413687	0.413416	-0.024626	8	0.000210171	13	0	3.5401	-1.01808e-05
2	0	0	1	0	1	153.961	0.410191	0.409956	-0.0314268	8	0.000200936	13	0	3.8896	-1.28836e-05
2	0	0	1	0	1	154.31	0.406696	0.406463	-0.0324501	8	0.000191525	13	0	4.2392	-1.31898e-05
2	0	0	1	0	1	154.66	0.4032	0.402915	-0.0276758	8	0.00018191	13	0	4.5887	-1.1151e-05
2	0	0	1	0	1	155.009	0.399705	0.399407	-0.0224326	8	0.000172272	13	0	4.9382	-8.95975e-06
2	0	0	1	0	1	155.359	0.39621	0.395885	-0.0231981	8	0.000162508	13	0	5.2877	-9.18379e-06
2	0	0	1	0	1	155.708	0.392715	0.3924	-0.0286783	8	0.000152569	13	0	5.6372	-1.12533e-05
2	0	0	1	0	1	156.058	0.38922	0.388989	-0.0350544	8	0.000142397	13	0	5.9868	-1.36358e-05
2	0	0	1	0	1	156.407	0.385725	0.385434	-0.0343479	8	0.000132024	13	0	6.3362	-1.32388e-05
2	0	0	1	0	1	156.757	0.38223	0.381958	-0.0280559	8	0.000121507	13	0	6.6858	-1.07162e-05
2	0	0	1	0	1	157.107	0.378734	0.378446	-0.0248263	8	0.00011088	13	0	7.0353	-9.39542e-06
2	0	0	1	0	1	157.456	0.375239	0.374982	-0.0290214	8	0.000100087	13	0	7.3848	-1.08825e-05
2	0	0	1	0	1	157.806	0.371745	0.371526	-0.0367102	8	8.90281e-05	13	0	7.7343	-1.36388e-05
2	0	0	1	0	1	158.155	0.368249	0.367956	-0.0381044	8	7.77071e-05	13	0	8.0838	-1.40207e-05
2	0	0	1	0	1	158.505	0.364754	0.364486	-0.0318743	8	6.61734e-05	13	0	8.4334	-1.16177e-05
2	0	0	1	0	1	158.854	0.361259	0.361001	-0.0279894	8	5.4515e-05	13	0	8.7828	-1.01042e-05
2	0	0	1	0	1	159.204	0.357764	0.357499	-0.0305527	8	4.26256e-05	13	0	9.1324	-1.09226e-05
2	0	0	1	0	1	159.553	0.354268	0.353987	-0.0371054	8	3.04792e-05	13	0	9.4819	-1.31348e-05
2	0	0	1	0	1	159.903	0.350773	0.35053	-0.0421171	8	1.80148e-05	13	0	9.8314	-1.47633e-05
2	1	0	1	0	0	160.16	0.351822	0.351565	0.032904	9	1.81674e-05	13	0	0.1498	1.15679e-05
2	1	0	1	0	0	160.509	0.355317	0.355058	0.0367667	9	2.86525e-05	13	0	0.4994	1.30543e-05
2	1	0	1	0	0	160.859	0.358813	0.35854	0.0336359	9	3.95117e-05	13	0	0.8489	1.20598e-05
2	1	0	1	0	0	161.208	0.362307	0.362066	0.0280382	9	5.04389e-05	13	0	1.1984	1.01517e-05
2	1	0	1	0	0	161.558	0.365802	0.365568	0.0247752	9	6.12702e-05	13	0	1.5479	9.05701e-06
2	1	0	1	0	0	161.907	0.369298	0.369041	0.0289956	9	7.20652e-05	13	0	1.8974	1.07006e-05
2	1	0	1	0	0	162.257	0.372793	0.372597	0.0348896	9	8.27973e-05	13	0	2.247	1.29998e-05
2	1	0	1	0	0	162.606	0.376288	0.376032	0.0362541	9	9.34976e-05	13	0	2.5964	1.36327e-05
2	1	0	1	0	0	162.956	0.379783	0.379512	0.0314121	9	0.000104076	13	0	2.946	1.19213e-05
2	1	0	1	0	0	163.306	0.383279	0.383034	0.0250469	9	0.000114508	13	0	3.2955	9.59381e-06
2	1	0	1	0	0	163.655	0.386773	0.386505	0.0239994	9	0.000124784	13	0	3.645	9.27589e-06
2	1	0	1	0	0	164.005	0.390268	0.390035	0.030181	9	0.000134986	13	0	3.9945	1.17716e-05
2	1	0	1	0	0	164.354	0.393764	0.393532	0.0344615	9	0.000145134	13	0	4.344	1.35617e-05
2	1	0	1	0	0	164.704	0.397259	0.397017	0.0322631	9	0.000155217	13	0	4.6936	1.2809e-05
2	1	0	1	0	0	165.053	0.400754	0.40049	0.0244486	9	0.000165141	13	0	5.043	9.79141e-06
2	1	0	1	0	0	165.403	0.404249	0.404023	0.0220052	9	0.000174919	13	0	5.3926	8.8906e-06
2	1	0	1	0	0	165.752	0.407745	0.407552	0.0268253	9	0.000184655	13	0	5.7421	1.09327e-05
2	1	0	1	0	0	166.102	0.411239	0.411067	0.0323028	9	0.000194292	13	0	6.0916	1.32786e-05
2	1	0	1	0	0	166.451	0.414734	0.414501	0.0322545	9	0.000203889	13	0	6.4411	1.33695e-05
2	1	0	1	0	0	166.801	0.41823	0.417995	0.0262784	9	0.000213378	13	0	6.7906	1.09842e-05
2	1	0	1	0	0	167.15	0.421725	0.421448	0.0206354	9	0.000222715	13	0	7.1402	8.69678e-06
2	1	0	1	0	0	167.5	0.425221	0.42499	0.0237761	9	0.000231946	13	0	7.4897	1.01046e-05
2	1	0	1	0	0	167.849	0.428715	0.428542	0.0301725	9	0.000241157	13	0	7.8392	1.29302e-05
2	1	0	1	0	0	168.199	0.43221	0.432007	0.031663	9	0.000250361	13	0	8.1887	1.36786e-05
2	1	0	1	0	0	168.548	0.435706	0.435475	0.0255508	9	0.000259486	13	0	8.5382	1.11267e-05
2	1	0	1	0	0	168.898	0.4392	0.43897	0.0199099	9	0.000268461	13	0	8.8877	8.73984e-06
2	1	0	1	0	0	169.247	0.442696	0.442488	0.0221517	9	0.000277354	13	0	9.2372	9.80185e-06
2	1	0	1	0	0	169.597	0.446191	0.445967	0.0287495	9	0.000286222	13	0	9.5868	1.28213e-05
2	1	0	1	0	0	169.946	0.449687	0.449485	0.0309526	9	0.000295102	13	0	9.9363	1.39127e-05
2	0	0	1	0	0	170.203	0.447739	0.447499	-0.025731	9	0.0002925	13	0	0.1498	-1.15146e-05
2	0	0	1	0	0	170.552	0.444244	0.444015	-0.0250351	9	0.000285058	13	0	0.4994	-1.11159e-05
2	0	0	1	0	0	170.902	0.440748	0.440523	-0.0189057	9	0.000277303	13	0	0.8489	-8.32838e-06
2	0	0	1	0	0	171.251	0.437253	0.437001	-0.0175119	9	0.000269337	13	0	1.1984	-7.6527e-06
2	0	0	1	0	0	171.601	0.433759	0.433471	-0.0227653	9	0.0002612	13	0	1.5479	-9.8681e-06
2	0	0	1	0	0	171.95	0.430263	0.430008	-0.0292031	9	0.000252813	13	0	1.8974	-1.25576e-05
2	0	0	1	0	0	172.3	0.426768	0.426539	-0.0295556	9	0.000244241	13	0	2.247	-1.26066e-05
2	0	0	1	0	0	172.649	0.423273	0.423013	-0.0242028	9	0.000235527	13	0	2.5964	-1.02381e-05
2	0	0	1	0	0	172.999	0.419778	0.419482	-0.0193071	9	0.000226751	13	0	2.946	-8.09896e-06
2	0	0	1	0	0	173.348	0.416282	0.416042	-0.0222325	9	0.000217847	13	0	3.2955	-9.24968e-06
2	0	0	1	0	0	173.698	0.412787	0.412519	-0.0287615	9	0.000208781	13	0	3.645	-1.18647e-05
2	0	0	1	0	0	174.047	0.409293	0.409065	-0.0328826	9	0.000199486	13	0	3.9945	-1.34511e-05
2	0	0	1	0	0	174.397	0.405797	0.405548	-0.0302777	9	0.000190027	13	0	4.344	-1.22791e-05
2	0	0	1	0	0	174.746	0.402302	0.402021	-0.0234582	9	0.00018045	13	0	4.6936	-9.4307e-06
2	0	0	1	0	0	175.096	0.398807	0.398527	-0.0223025	9	0.000170816	13	0	5.043	-8.88814e-06
2	0	0	1	0	0	175.445	0.395312	0.395015	-0.027299	9	0.000161013	13	0	5.3926	-1.07835e-05
2	0	0	1	0	0	175.795	0.391816	0.391522	-0.0336469	9	0.00015099	13	0	5.7421	-1.31735e-05
2	0	0	1	0	0	176.144	0.388321	0.388041	-0.0349747	9	0.000140768	13	0	6.0916	-1.35716e-05
2	0	0	1	0	0	176.494	0.384827	0.38457	-0.0290707	9	0.000130383	13	0	6.4411	-1.11797e-05
2	0	0	1	0	0	176.843	0.381331	0.381054	-0.0247123	9	0.000119891	13	0	6.7906	-9.41671e-06
2	0	0	1	0	0	177.193	0.377836	0.37758	-0.0262356	9	0.000109237	13	0	7.1402	-9.90603e-06
2	0	0	1	0	0	177.543	0.37434	0.37411	-0.0322281	9	9.83767e-05	13	0	7.4897	-1.20569e-05
2	0	0	1	0	0	177.892	0.370846	0.370582	-0.0375077	9	8.72525e-05	13	0	7.8392	-1.38997e-05
2	0	0	1	0	0	178.242	0.36735	0.367043	-0.0382142	9	7.59109e-05	13	0	8.1887	-1.40263e-05
2	0	0	1	0	0	178.591	0.363855	0.36355	-0.0341057	9	6.43475e-05	13	0	8.5382	-1.23992e-05
2	0	0	1	0	0	178.941	0.36036	0.360097	-0.0299427	9	5.26075e-05	13	0	8.8878	-1.07823e-05
2	0	0	1	0	0	179.29	0.356865	0.356557	-0.0285321	9	4.06825e-05	13	0	9.2372	-1.01733e-05
2	0	0	1	0	0	179.64	0.35337	0.35309	-0.032749	9	2.85071e-05	13	0	9.5868	-1.15633e-05
2	0	0	1	0	0	179.969	0.350074	0.349838	-0.0460746	9	1.67732e-05	13	0	9.9164	-1.61187e-05
2	1	0	1	0	1	180.266	0.352921	0.35265	0.0237663	10	2.17204e-05	13	0	0.1947	8.38117e-06
2	1	0	1	0	1	180.616	0.356416	0.356117	0.0274494	10	3.23062e-05	13	0	0.5442	9.7752e-06
2	1	0	1	0	1	180.965	0.35991	0.359686	0.034061	10	4.31098e-05	13	0	0.8937	1.22513e-05
2	1	0	1	0	1	181.315	0.363406	0.363176	0.0372031	10	5.40413e-05	13	0	1.2432	1.35113e-05
2	1	0	1	0	1	181.664	0.366901	0.366604	0.0348211	10	6.49359e-05	13	0	1.5928	1.27656e-05
2	1	0	1	0	1	182.014	0.370397	0.370146	0.028714	10	7.5759e-05	13	0	1.9423	1.06284e-05
2	1	0	1	0	1	182.363	0.373891	0.373679	0.0240354	10	8.64195e-05	13	0	2.2918	8.98153e-06
2	1	0	1	0	1	182.713	0.377386	0.377167	0.0265769	10	9.69919e-05	13	0	2.6413	1.00239e-05
2	1	0	1	0	1	183.062	0.380882	0.380632	0.0322231	10	0.000107473	13	0	2.9908	1.22652e-05
2	1	0	1	0	1	183.412	0.384376	0.384142	0.0357508	10	0.000117925	13	0	3.3403	1.37334e-05
2	1	0	1	0	1	183.761	0.387872	0.387585	0.0329495	10	0.00012827	13	0	3.6898	1.27707e-05
2	1	0	1	0	1	184.111	0.391367	0.391111	0.0268776	10	0.000138487	13	0	4.0394	1.05121e-05
2	1	0	1	0	1	184.461	0.394863	0.394605	0.0227151	10	0.000148541	13	0	4.3889	8.96349e-06
2	1	0	1	0	1	184.81	0.398357	0.398121	0.0243356	10	0.000158475	13	0	4.7384	9.68851e-06
2	1	0	1	0	1	185.16	0.401852	0.401616	0.0293758	10	0.000168334	13	0	5.0879	1.17978e-05
2	1	0	1	0	1	185.509	0.405348	0.405113	0.0341637	10	0.00017815	13	0	5.4374	1.38401e-05
2	1	0	1	0	1	185.859	0.408843	0.408656	0.0311476	10	0.00018796	13	0	5.787	1.27286e-05
2	1	0	1	0	1	186.208	0.412338	0.412094	0.0249448	10	0.000197581	13	0	6.1364	1.02796e-05
2	1	0	1	0	1	186.558	0.415833	0.415599	0.0212352	10	0.000207062	13	0	6.486	8.82532e-06
2	1	0	1	0	1	186.907	0.419329	0.41911	0.0229585	10	0.000216427	13	0	6.8355	9.62214e-06
2	1	0	1	0	1	187.257	0.422823	0.422567	0.0282568	10	0.000225736	13	0	7.185	1.19404e-05
2	1	0	1	0	1	187.606	0.426318	0.426085	0.0322463	10	0.000235022	13	0	7.5345	1.37397e-05
2	1	0	1	0	1	187.956	0.429814	0.429585	0.030244	10	0.000244259	13	0	7.884	1.29924e-05
2	1	0	1	0	1	188.305	0.433309	0.433063	0.024269	10	0.000253395	13	0	8.2336	1.051e-05
2	1	0	1	0	1	188.655	0.436804	0.436562	0.0199591	10	0.0002624	13	0	8.583	8.71338e-06
2	1	0	1	0	1	189.004	0.440299	0.440085	0.0220016	10	0.000271324	13	0	8.9326	9.68256e-06
2	1	0	1	0	1	189.354	0.443795	0.443612	0.0280934	10	0.000280229	13	0	9.2821	1.24625e-05
2	1	0	1	0	1	189.703	0.44729	0.447069	0.0310108	10	0.000289132	13	0	9.6316	1.3864e-05
2	1	0	1	0	1	190	0.449737	0.449539	0.00306997	10	0.000295925	13	0	9.9279	1.38007e-06
2	0	0	1	0	1	190.409	0.445642	0.445344	-0.020066	10	0.000287469	13	0	0.3446	-8.93628e-06
2	0	0	1	0	1	190.759	0.442146	0.441834	-0.0266028	10	0.000279812	13	0	0.6941	-1.1754e-05
2	0	0	1	0	1	191.108	0.438652	0.438384	-0.0288552	10	0.000271864	13	0	1.0436	-1.26496e-05
2	0	0	1	0	1	191.458	0.435156	0.434945	-0.026105	10	0.00026369	13	0	1.3931	-1.13542e-05
2	0	0	1	0	1	191.807	0.431661	0.431412	-0.020792	10	0.000255388	13	0	1.7426	-8.96993e-06
2	0	0	1	0	1	192.157	0.428166	0.427932	-0.0185747	10	0.000246963	13	0	2.0922	-7.9487e-06
2	0	0	1	0	1	192.506	0.424671	0.424389	-0.0207276	10	0.000238408	13	0	2.4416	-8.79657e-06
2	0	0	1	0	1	192.856	0.421176	0.420856	-0.0272584	10	0.000229668	13	0	2.7912	-1.14719e-05
2	0	0	1	0	1	193.205	0.41768	0.417375	-0.0313654	10	0.000220734	13	0	3.1407	-1.30912e-05
2	0	0	1	0	1	193.555	0.414185	0.413938	-0.030558	10	0.00021164	13	0	3.4902	-1.26491e-05
2	0	0	1	0	1	193.904	0.41069	0.410495	-0.0254799	10	0.000202428	13	0	3.8397	-1.04594e-05
2	0	0	1	0	1	194.254	0.407195	0.406966	-0.0211848	10	0.000193137	13	0	4.1892	-8.62152e-06
2	0	0	1	0	1	194.603	0.4037	0.403419	-0.0227335	10	0.000183656	13	0	4.5388	-9.17111e-06
2	0	0	1	0	1	194.953	0.400205	0.399895	-0.0294381	10	0.000174067	13	0	4.8882	-1.17722e-05
2	0	0	1	0	1	195.302	0.39671	0.396451	-0.0337817	10	0.00016425	13	0	5.2378	-1.33928e-05
2	0	0	1	0	1	195.652	0.393214	0.392931	-0.0334261	10	0.000154264	13	0	5.5873	-1.31341e-05
2	0	0	1	0	1	196.001	0.389719	0.389406	-0.0278959	10	0.000144132	13	0	5.9368	-1.08629e-05
2	0	0	1	0	1	196.351	0.386225	0.385943	-0.0237514	10	0.000133898	13	0	6.2863	-9.16667e-06
2	0	0	1	0	1	196.7	0.382729	0.382438	-0.0257323	10	0.000123509	13	0	6.6358	-9.84103e-06
2	0	0	1	0	1	197.05	0.379234	0.378947	-0.0313106	10	0.000112919	13	0	6.9854	-1.18651e-05
2	0	0	1	0	1	197.399	0.375739	0.375467	-0.0368702	10	0.000102081	13	0	7.3348	-1.38436e-05
2	0	0	1	0	1	197.749	0.372244	0.371973	-0.03712	10	9.10205e-05	13	0	7.6844	-1.38076e-05
2	0	0	1	0	1	198.098	0.368748	0.368528	-0.0315522	10	7.97581e-05	13	0	8.0339	-1.16278e-05
2	0	0	1	0	1	198.448	0.365253	0.365008	-0.0271814	10	6.83637e-05	13	0	8.3834	-9.92143e-06
2	0	0	1	0	1	198.797	0.361759	0.361469	-0.0293344	10	5.67665e-05	13	0	8.7329	-1.06035e-05
2	0	0	1	0	1	199.147	0.358263	0.357956	-0.0348463	10	4.49189e-05	13	0	9.0824	-1.24734e-05
2	0	0	1	0	1	199.496	0.354768	0.354505	-0.0406246	10	3.2772e-05	13	0	9.432	-1.44016e-05
2	0	0	1	0	1	199.846	0.351272	0.351009	-0.041156	10	2.0355e-05	13	0	9.7815	-1.44462e-05
2	0	0	1	0	1	199.971	0.35	0.349724	-0.0309294	10	1.60285e-05	13	0	9.9063	-1.08167e-05