File: ACS_Catal_2026/Figures_Na_K/main_figures/data/EC/20251112_2-148_alpha_reproducibility/20251112_2-148_005_gamma_reproducibility_Na2_02_PEIS_C01.mpt
EC-Lab ASCII FILE
Nb header lines : 63

Potentio Electrochemical Impedance Spectroscopy

Run on channel : 1 (SN 69187)
User :
CE vs. WE compliance from -10 V to 10 V
Electrode connection : standard
Potential control : Ewe
Ewe ctrl range : min = -1.00 V, max = 1.00 V
Safety Limits :
	Do not start on E overload
Acquisition started on : 11/12/2025 20:57:12.203
Loaded Setting File :  C:\Users\User\Documents\EC-Lab\Data\Yatsuzuka\20251030_2-147_gamma_reproducibility\20251030_2-147_001_gamma1_K_1.mps
Saved on :
	File : 20251112_2-148_005_gamma_reproducibility_Na2_02_PEIS_C01.mpr
	Directory : C:\Users\User\Documents\EC-Lab\Data\Yatsuzuka\20251112_2-148_alpha_reproducibility\
	Host : 192.109.209.127
Device : SP-150e (SN .003883)
Address : 192.109.209.128
EC-Lab for windows v11.52 (software)
Internet server v11.52 (firmware)
Command interpretor v11.50 (firmware)
Electrode material :
Initial state :
Electrolyte :
Comments :
Electrode surface area : 0.001 cm2
Characteristic mass : 0.001 g
Equivalent Weight : 0.000 g/eq.
Density : 0.000 g/cm3
Volume (V) : 0.001 cm3
Cycle Definition : Charge/Discharge alternance
Mode                Single sine
E (V)               0.4500
vs.                 Ref
tE (h:m:s)          0:00:0.0000
record              0
dI                  0.000
unit dI             mA
dt (s)              0.000
fi                  500.000
unit fi             kHz
ff                  1.000
unit ff             Hz
Nd                  6
Points              per decade
spacing             Logarithmic
Va (mV)             10.0
pw                  0.10
Na                  2
corr                0
E range min (V)     -1.000
E range max (V)     1.000
I Range             Auto
Bandwidth           5
nc cycles           0
goto Ns'            0
nr cycles           0
inc. cycle          0

freq/Hz	Re(Z)/Ohm	-Im(Z)/Ohm	|Z|/Ohm	Phase(Z)/deg	time/s	<Ewe>/V	<I>/mA	Cs/uF	Cp/uF	cycle number	I Range	|Ewe|/V	|I|/A	Ns	(Q-Qo)/mA.h	Re(Y)/Ohm-1	Im(Y)/Ohm-1	|Y|/Ohm-1	Phase(Y)/deg	Re(C)/nF	Im(C)/nF	|C|/nF	Phase(C)/deg	Re(M)	Im(M)	|M|	Phase(M)/deg	Re(Permittivity)	Im(Permittivity)	|Permittivity|	Phase(Permittivity)/deg	Re(Resistivity)/Ohm.cm	Im(Resistivity)/Ohm.cm	|Resistivity|/Ohm.cm	Phase(Resistivity)/deg	Re(Conductivity)/mS/cm	Im(Conductivity)/mS/cm	|Conductivity|/mS/cm	Phase(Conductivity)/deg	Tan(Delta)	Loss Angle(Delta)/deg	dq/mA.h
500019	22.4023	-1.78261	22.4731	4.54959	202.106	0.450099	0.0101403	-0.178557	-0.00112348	1	10	0.00701354	0.000312086	0	1.24393e-05	0.0443574	-0.00352963	0.0444976	-4.54959	-1.12348	14.1189	14.1635	-94.5496	0.0000000E+000	0.0000000E+000	0.0000000E+000	94.5496	0.0000000E+000	0.0000000E+000	0.0000000E+000	-94.5496	0.0000000E+000	0.0000000E+000	0.0000000E+000	4.54959	0.0000000E+000	0.0000000E+000	0.0000000E+000	-4.54959	12.5671	85.4504	1.24393e-05
339899	16.8911	-1.29756	16.9409	4.39278	202.528	0.449919	0.0101702	-0.360864	-0.00211702	1	10	0.0101068	0.000596593	0	1.34932e-05	0.0588555	-0.00452122	0.0590289	-4.39278	-2.11702	27.5586	27.6398	-94.3928	0.0000000E+000	0.0000000E+000	0.0000000E+000	94.3928	0.0000000E+000	0.0000000E+000	0.0000000E+000	-94.3928	0.0000000E+000	0.0000000E+000	0.0000000E+000	4.39278	0.0000000E+000	0.0000000E+000	0.0000000E+000	-4.39278	13.0176	85.6072	1.05394e-06
231063	14.7943	-0.810076	14.8165	3.13415	202.951	0.449765	0.0111746	-0.850286	-0.00254172	1	10	0.0108492	0.000732242	0	1.32866e-05	0.0673915	-0.00369009	0.0674925	-3.13415	-2.54172	46.419	46.4885	-93.1342	0.0000000E+000	0.0000000E+000	0.0000000E+000	93.1342	0.0000000E+000	0.0000000E+000	0.0000000E+000	-93.1342	0.0000000E+000	0.0000000E+000	0.0000000E+000	3.13415	0.0000000E+000	0.0000000E+000	0.0000000E+000	-3.13415	18.2629	86.8658	-2.0664e-07
157076	13.977	-0.416053	13.9832	1.70502	203.509	0.449744	0.0107292	-2.43536	-0.00215599	1	10	0.0101161	0.000723447	0	1.39815e-05	0.0714827	-0.00212782	0.0715144	-1.70502	-2.15599	72.4289	72.461	-91.705	0.0000000E+000	0.0000000E+000	0.0000000E+000	91.705	0.0000000E+000	0.0000000E+000	0.0000000E+000	-91.705	0.0000000E+000	0.0000000E+000	0.0000000E+000	1.70502	0.0000000E+000	0.0000000E+000	0.0000000E+000	-1.70502	33.5943	88.295	6.94885e-07
106786	13.6848	-0.164418	13.6858	0.688353	203.931	0.449739	0.0110683	-9.06473	-0.00130831	1	10	0.0107594	0.000786168	0	1.69352e-05	0.073063	-0.000877823	0.0730682	-0.688353	-1.30831	108.893	108.901	-90.6884	0.0000000E+000	0.0000000E+000	0.0000000E+000	90.6884	0.0000000E+000	0.0000000E+000	0.0000000E+000	-90.6884	0.0000000E+000	0.0000000E+000	0.0000000E+000	0.688353	0.0000000E+000	0.0000000E+000	0.0000000E+000	-0.688353	83.232	89.3116	2.95371e-06
72595	13.5893	-0.0427818	13.5893	0.180378	204.353	0.449741	0.0110758	-51.2453	-0.000507898	1	10	0.0106892	0.000786586	0	1.75439e-05	0.0735868	-0.000231667	0.0735872	-0.180378	-0.507908	161.329	161.33	-90.1804	0.0000000E+000	0.0000000E+000	0.0000000E+000	90.1804	0.0000000E+000	0.0000000E+000	0.0000000E+000	-90.1804	0.0000000E+000	0.0000000E+000	0.0000000E+000	0.180378	0.0000000E+000	0.0000000E+000	0.0000000E+000	-0.180378	317.641	89.8196	6.08721e-07
49352.4	13.5536	0.0403377	13.5537	-0.170521	204.775	0.449739	0.0109025	79.9467	0.000708123	1	10	0.010567	0.000779639	0	1.94816e-05	0.0737803	0.000219582	0.0737807	0.170521	0.708139	237.932	237.933	-89.8295	0.0000000E+000	0.0000000E+000	0.0000000E+000	89.8295	0.0000000E+000	0.0000000E+000	0.0000000E+000	-89.8295	0.0000000E+000	0.0000000E+000	0.0000000E+000	-0.170521	0.0000000E+000	0.0000000E+000	0.0000000E+000	0.170521	336.004	89.8295	1.93774e-06
33551.1	13.5464	0.0953276	13.5467	-0.403191	205.197	0.449737	0.0113311	49.7617	0.00246414	1	10	0.0104742	0.00077319	0	1.94079e-05	0.0738169	0.000519459	0.0738187	0.403191	2.46413	350.162	350.171	-89.5968	0.0000000E+000	0.0000000E+000	0.0000000E+000	89.5968	0.0000000E+000	0.0000000E+000	0.0000000E+000	-89.5968	0.0000000E+000	0.0000000E+000	0.0000000E+000	-0.403191	0.0000000E+000	0.0000000E+000	0.0000000E+000	0.403191	142.103	89.5968	-7.37148e-08
22806.6	13.5431	0.126757	13.5437	-0.536245	205.619	0.449742	0.0109491	55.054	0.00482234	1	10	0.0104178	0.0007692	0	2.02969e-05	0.0738319	0.000691031	0.0738352	0.536245	4.82236	515.234	515.257	-89.4638	0.0000000E+000	0.0000000E+000	0.0000000E+000	89.4638	0.0000000E+000	0.0000000E+000	0.0000000E+000	-89.4638	0.0000000E+000	0.0000000E+000	0.0000000E+000	-0.536245	0.0000000E+000	0.0000000E+000	0.0000000E+000	0.536245	106.843	89.4638	8.88932e-07
15504.4	13.559	0.171748	13.5601	-0.725709	206.042	0.449745	0.0111652	59.7687	0.00958805	1	10	0.0102505	0.000755929	0	2.13967e-05	0.0737397	0.000934038	0.0737456	0.725709	9.58804	756.95	757.011	-89.2743	0.0000000E+000	0.0000000E+000	0.0000000E+000	89.2743	0.0000000E+000	0.0000000E+000	0.0000000E+000	-89.2743	0.0000000E+000	0.0000000E+000	0.0000000E+000	-0.725709	0.0000000E+000	0.0000000E+000	0.0000000E+000	0.725709	78.9473	89.2743	1.09988e-06
10540.4	13.5951	0.243818	13.5973	-1.02744	206.464	0.449742	0.0113423	61.9296	0.0199124	1	10	0.010253	0.000754045	0	2.29194e-05	0.0735322	0.00131874	0.073544	1.02744	19.9124	1110.3	1110.48	-88.9726	0.0000000E+000	0.0000000E+000	0.0000000E+000	88.9726	0.0000000E+000	0.0000000E+000	0.0000000E+000	-88.9726	0.0000000E+000	0.0000000E+000	0.0000000E+000	-1.02744	0.0000000E+000	0.0000000E+000	0.0000000E+000	1.02744	55.7593	88.9726	1.52265e-06
7163.78	13.6103	0.355741	13.6149	-1.49724	206.987	0.449723	0.0100602	62.4516	0.0426364	1	10	0.0100879	0.000740945	0	2.4986e-05	0.0734236	0.00191912	0.0734487	1.49724	42.6364	1631.22	1631.78	-88.5028	0.0000000E+000	0.0000000E+000	0.0000000E+000	88.5028	0.0000000E+000	0.0000000E+000	0.0000000E+000	-88.5028	0.0000000E+000	0.0000000E+000	0.0000000E+000	-1.49724	0.0000000E+000	0.0000000E+000	0.0000000E+000	1.49724	38.259	88.5028	2.06665e-06
4871.56	13.6275	0.479232	13.6359	-2.01407	207.455	0.449761	0.0119926	68.172	0.0842033	1	10	0.0105279	0.000772069	0	2.678e-05	0.0732904	0.00257737	0.0733357	2.01407	84.2035	2394.41	2395.89	-87.9859	0.0000000E+000	0.0000000E+000	0.0000000E+000	87.9859	0.0000000E+000	0.0000000E+000	0.0000000E+000	-87.9859	0.0000000E+000	0.0000000E+000	0.0000000E+000	-2.01407	0.0000000E+000	0.0000000E+000	0.0000000E+000	2.01407	28.4361	87.9859	1.79392e-06
3311.06	13.6432	0.681226	13.6602	-2.8585	207.92	0.449752	0.0122814	70.5606	0.175482	1	10	0.0107473	0.000786759	0	2.78078e-05	0.0731145	0.00365072	0.0732055	2.8585	175.482	3514.44	3518.82	-87.1415	0.0000000E+000	0.0000000E+000	0.0000000E+000	87.1415	0.0000000E+000	0.0000000E+000	0.0000000E+000	-87.1415	0.0000000E+000	0.0000000E+000	0.0000000E+000	-2.8585	0.0000000E+000	0.0000000E+000	0.0000000E+000	2.8585	20.0274	87.1415	1.02789e-06
2250.72	13.6778	0.947957	13.7106	-3.96462	208.385	0.449752	0.0123038	74.595	0.356595	1	10	0.0108531	0.000791584	0	2.98854e-05	0.0727618	0.00504286	0.0729363	3.96462	356.595	5145.2	5157.54	-86.0354	0.0000000E+000	0.0000000E+000	0.0000000E+000	86.0354	0.0000000E+000	0.0000000E+000	0.0000000E+000	-86.0354	0.0000000E+000	0.0000000E+000	0.0000000E+000	-3.96462	0.0000000E+000	0.0000000E+000	0.0000000E+000	3.96462	14.4287	86.0354	2.07752e-06
1530.49	13.733	1.35222	13.7994	-5.62349	208.85	0.44975	0.012246	76.9028	0.738438	1	10	0.0109117	0.000790736	0	3.20956e-05	0.0721179	0.00710108	0.0724667	5.62349	738.438	7499.51	7535.78	-84.3765	0.0000000E+000	0.0000000E+000	0.0000000E+000	84.3765	0.0000000E+000	0.0000000E+000	0.0000000E+000	-84.3765	0.0000000E+000	0.0000000E+000	0.0000000E+000	-5.62349	0.0000000E+000	0.0000000E+000	0.0000000E+000	5.62349	10.1559	84.3765	2.2102e-06
1040.33	13.7931	1.92392	13.9266	-7.94065	209.315	0.449758	0.0123429	79.517	1.51755	1	10	0.0109368	0.000785316	0	3.31689e-05	0.0711164	0.00991965	0.0718049	7.94065	1517.55	10879.7	10985.1	-82.0593	0.0000000E+000	0.0000000E+000	0.0000000E+000	82.0593	0.0000000E+000	0.0000000E+000	0.0000000E+000	-82.0593	0.0000000E+000	0.0000000E+000	0.0000000E+000	-7.94065	0.0000000E+000	0.0000000E+000	0.0000000E+000	7.94065	7.16925	82.0593	1.07335e-06
707.036	13.8759	2.74688	14.1452	-11.1975	209.78	0.44976	0.0116479	81.948	3.09031	1	10	0.0109465	0.000773865	0	3.51582e-05	0.0693497	0.0137285	0.0706955	11.1975	3090.31	15610.7	15913.7	-78.8025	0.0000000E+000	0.0000000E+000	0.0000000E+000	78.8025	0.0000000E+000	0.0000000E+000	0.0000000E+000	-78.8025	0.0000000E+000	0.0000000E+000	0.0000000E+000	-11.1975	0.0000000E+000	0.0000000E+000	0.0000000E+000	11.1975	5.05151	78.8025	1.98928e-06
480.769	13.9696	3.93706	14.5138	-15.7394	210.245	0.449761	0.0115286	84.0836	6.18718	1	10	0.0109416	0.000753877	0	3.69272e-05	0.0663165	0.01869	0.0688999	15.7394	6187.18	21953.6	22808.8	-74.2606	0.0000000E+000	0.0000000E+000	0.0000000E+000	74.2606	0.0000000E+000	0.0000000E+000	0.0000000E+000	-74.2606	0.0000000E+000	0.0000000E+000	0.0000000E+000	-15.7394	0.0000000E+000	0.0000000E+000	0.0000000E+000	15.7394	3.54823	74.2606	1.76902e-06
326.778	14.1252	5.64203	15.2103	-21.7732	210.708	0.449748	0.011851	86.3242	11.8775	1	10	0.0109391	0.000719186	0	3.87941e-05	0.0610546	0.024387	0.0657448	21.7732	11877.5	29736.2	32020.6	-68.2268	0.0000000E+000	0.0000000E+000	0.0000000E+000	68.2268	0.0000000E+000	0.0000000E+000	0.0000000E+000	-68.2268	0.0000000E+000	0.0000000E+000	0.0000000E+000	-21.7732	0.0000000E+000	0.0000000E+000	0.0000000E+000	21.7732	2.50357	68.2268	1.86689e-06
222.061	14.3338	8.11516	16.4716	-29.5166	211.169	0.449752	0.0119199	88.3185	21.4375	1	10	0.0109486	0.000664694	0	3.96242e-05	0.0528311	0.0299106	0.0607105	29.5166	21437.5	37865	43512.3	-60.4834	0.0000000E+000	0.0000000E+000	0.0000000E+000	60.4834	0.0000000E+000	0.0000000E+000	0.0000000E+000	-60.4834	0.0000000E+000	0.0000000E+000	0.0000000E+000	-29.5166	0.0000000E+000	0.0000000E+000	0.0000000E+000	29.5166	1.7663	60.4834	8.30105e-07
151.015	14.5811	11.68	18.6823	-38.6962	211.631	0.449755	0.0113721	90.2312	35.268	1	10	0.0109341	0.000585266	0	4.129e-05	0.0417759	0.0334642	0.0535265	38.6962	35268	44027.8	56411.7	-51.3038	0.0000000E+000	0.0000000E+000	0.0000000E+000	51.3038	0.0000000E+000	0.0000000E+000	0.0000000E+000	-51.3038	0.0000000E+000	0.0000000E+000	0.0000000E+000	-38.6962	0.0000000E+000	0.0000000E+000	0.0000000E+000	38.6962	1.24838	51.3038	1.66577e-06
102.667	14.9715	16.8645	22.5512	-48.4029	212.364	0.449747	0.000663614	91.921	51.407	1	11	0.0109833	0.000487038	0	4.24085e-05	0.0294392	0.0331616	0.0443436	48.4029	51407	45636.6	68741.4	-41.5971	0.0000000E+000	0.0000000E+000	0.0000000E+000	41.5971	0.0000000E+000	0.0000000E+000	0.0000000E+000	-41.5971	0.0000000E+000	0.0000000E+000	0.0000000E+000	-48.4029	0.0000000E+000	0.0000000E+000	0.0000000E+000	48.4029	0.88775	41.5971	1.11851e-06
69.7545	15.5021	24.386	28.8962	-57.5559	212.831	0.449747	0.00044258	93.5638	66.6355	1	11	0.0109601	0.000379292	0	4.25285e-05	0.0185656	0.029205	0.0346066	57.5559	66635.5	42360.1	78959.9	-32.4441	0.0000000E+000	0.0000000E+000	0.0000000E+000	32.4441	0.0000000E+000	0.0000000E+000	0.0000000E+000	-32.4441	0.0000000E+000	0.0000000E+000	0.0000000E+000	-57.5559	0.0000000E+000	0.0000000E+000	0.0000000E+000	57.5559	0.635699	32.4441	1.2006e-07
47.4443	16.1849	35.2667	38.8032	-65.3482	213.276	0.449743	0.000491777	95.1199	78.5714	1	11	0.0109491	0.00028217	0	4.25402e-05	0.0107492	0.0234223	0.0257711	65.3482	78571.4	36058.8	86450.6	-24.6518	0.0000000E+000	0.0000000E+000	0.0000000E+000	24.6518	0.0000000E+000	0.0000000E+000	0.0000000E+000	-24.6518	0.0000000E+000	0.0000000E+000	0.0000000E+000	-65.3482	0.0000000E+000	0.0000000E+000	0.0000000E+000	65.3482	0.45893	24.6518	1.16553e-08
32.2387	17.2767	51.0303	53.8755	-71.2961	213.713	0.449744	0.000362996	96.742	86.7936	1	11	0.0109374	0.000203012	0	4.25005e-05	0.0059522	0.017581	0.0185613	71.2961	86793.6	29384.7	91632.9	-18.7039	0.0000000E+000	0.0000000E+000	0.0000000E+000	18.7039	0.0000000E+000	0.0000000E+000	0.0000000E+000	-18.7039	0.0000000E+000	0.0000000E+000	0.0000000E+000	-71.2961	0.0000000E+000	0.0000000E+000	0.0000000E+000	71.2961	0.338558	18.7039	-3.97008e-08
21.9144	18.6736	73.8415	76.166	-75.8081	214.144	0.449744	0.000205886	98.3534	92.4416	1	11	0.010925	0.000143436	0	4.2297e-05	0.00321888	0.0127285	0.0131292	75.8081	92441.6	23377.3	95351.7	-14.1919	0.0000000E+000	0.0000000E+000	0.0000000E+000	14.1919	0.0000000E+000	0.0000000E+000	0.0000000E+000	-14.1919	0.0000000E+000	0.0000000E+000	0.0000000E+000	-75.8081	0.0000000E+000	0.0000000E+000	0.0000000E+000	75.8081	0.252888	14.1919	-2.0353e-07
14.9093	20.8833	106.648	108.673	-78.9208	214.611	0.44975	0.000447418	100.094	96.3981	1	11	0.0109161	0.000100449	0	4.25214e-05	0.00176829	0.0090304	0.0092019	78.9208	96398.1	18876.2	98228.8	-11.0792	0.0000000E+000	0.0000000E+000	0.0000000E+000	11.0792	0.0000000E+000	0.0000000E+000	0.0000000E+000	-11.0792	0.0000000E+000	0.0000000E+000	0.0000000E+000	-78.9208	0.0000000E+000	0.0000000E+000	0.0000000E+000	78.9208	0.195815	11.0792	2.2447e-07
10.1329	22.9557	154.397	156.094	-81.5433	215.321	0.44977	0.000104214	101.729	99.5289	1	12	0.0109283	7.00109e-05	0	4.24645e-05	0.000942139	0.00633672	0.00640638	81.5433	99528.9	14797.9	100623	-8.45674	0.0000000E+000	0.0000000E+000	0.0000000E+000	8.45674	0.0000000E+000	0.0000000E+000	0.0000000E+000	-8.45674	0.0000000E+000	0.0000000E+000	0.0000000E+000	-81.5433	0.0000000E+000	0.0000000E+000	0.0000000E+000	81.5433	0.148679	8.45674	-5.69697e-08
6.88933	27.5712	223.011	224.709	-82.9522	215.674	0.449752	-0.000119193	103.59	102.03	1	12	0.0109331	4.86543e-05	0	4.29646e-05	0.000546028	0.00441657	0.0044502	82.9522	102030	12614.2	102807	-7.04781	0.0000000E+000	0.0000000E+000	0.0000000E+000	7.04781	0.0000000E+000	0.0000000E+000	0.0000000E+000	-7.04781	0.0000000E+000	0.0000000E+000	0.0000000E+000	-82.9522	0.0000000E+000	0.0000000E+000	0.0000000E+000	82.9522	0.123632	7.04781	5.00095e-07
4.68375	33.3069	326.674	328.367	-84.1784	216.172	0.449758	0.00029	104.019	102.949	1	12	0.0109197	3.32546e-05	0	4.249e-05	0.000308897	0.00302966	0.00304537	84.1784	102949	10496.4	103482	-5.82162	0.0000000E+000	0.0000000E+000	0.0000000E+000	5.82162	0.0000000E+000	0.0000000E+000	0.0000000E+000	-5.82162	0.0000000E+000	0.0000000E+000	0.0000000E+000	-84.1784	0.0000000E+000	0.0000000E+000	0.0000000E+000	84.1784	0.101958	5.82162	-4.74518e-07
3.18099	42.6419	472.012	473.934	-84.8379	216.874	0.449755	1.81332e-05	106	105.142	1	12	0.0109191	2.30393e-05	0	4.25111e-05	0.000189846	0.00210144	0.00211	84.8379	105142	9498.61	105570	-5.16214	0.0000000E+000	0.0000000E+000	0.0000000E+000	5.16214	0.0000000E+000	0.0000000E+000	0.0000000E+000	-5.16214	0.0000000E+000	0.0000000E+000	0.0000000E+000	-84.8379	0.0000000E+000	0.0000000E+000	0.0000000E+000	84.8379	0.0903409	5.16214	2.10194e-08
2.16533	51.3941	683.947	685.875	-85.7027	218.397	0.449767	3.61367e-05	107.467	106.863	1	13	0.0109212	1.5923e-05	0	4.29096e-05	0.00010925	0.00145389	0.00145799	85.7027	106863	8030.06	107165	-4.29732	0.0000000E+000	0.0000000E+000	0.0000000E+000	4.29732	0.0000000E+000	0.0000000E+000	0.0000000E+000	-4.29732	0.0000000E+000	0.0000000E+000	0.0000000E+000	-85.7027	0.0000000E+000	0.0000000E+000	0.0000000E+000	85.7027	0.0751433	4.29732	3.98571e-07
1.46962	69.2187	993.162	995.571	-86.0132	219.867	0.449761	5.86042e-05	109.042	108.515	1	13	0.0109227	1.09712e-05	0	4.28886e-05	6.9836e-05	0.00100202	0.00100445	86.0132	108515	7563	108778	-3.9868	0.0000000E+000	0.0000000E+000	0.0000000E+000	3.9868	0.0000000E+000	0.0000000E+000	0.0000000E+000	-3.9868	0.0000000E+000	0.0000000E+000	0.0000000E+000	-86.0132	0.0000000E+000	0.0000000E+000	0.0000000E+000	86.0132	0.0696953	3.9868	-2.1014e-08
1.00006	90.0015	1440.88	1443.69	-86.4258	222.006	0.449761	5.81168e-05	110.45	110.02	1	13	0.0109225	7.56572e-06	0	4.26794e-05	4.31821e-05	0.000691323	0.00069267	86.4258	110020	6872.2	110235	-3.57422	0.0000000E+000	0.0000000E+000	0.0000000E+000	3.57422	0.0000000E+000	0.0000000E+000	0.0000000E+000	-3.57422	0.0000000E+000	0.0000000E+000	0.0000000E+000	-86.4258	0.0000000E+000	0.0000000E+000	0.0000000E+000	86.4258	0.0624629	3.57422	-2.09166e-07