File: ACS_Catal_2026/Figures_Na_K/main_figures/data/EC/20251112_2-148_alpha_reproducibility/20251112_2-148_005_gamma_reproducibility_K1_02_PEIS_C01.mpt
EC-Lab ASCII FILE
Nb header lines : 63

Potentio Electrochemical Impedance Spectroscopy

Run on channel : 1 (SN 69187)
User :
CE vs. WE compliance from -10 V to 10 V
Electrode connection : standard
Potential control : Ewe
Ewe ctrl range : min = -1.00 V, max = 1.00 V
Safety Limits :
	Do not start on E overload
Acquisition started on : 11/12/2025 19:09:25.688
Loaded Setting File :  C:\Users\User\Documents\EC-Lab\Data\Yatsuzuka\20251030_2-147_gamma_reproducibility\20251030_2-147_001_gamma1_K_1.mps
Saved on :
	File : 20251112_2-148_005_gamma_reproducibility_K1_02_PEIS_C01.mpr
	Directory : C:\Users\User\Documents\EC-Lab\Data\Yatsuzuka\20251112_2-148_alpha_reproducibility\
	Host : 192.109.209.127
Device : SP-150e (SN .003883)
Address : 192.109.209.128
EC-Lab for windows v11.52 (software)
Internet server v11.52 (firmware)
Command interpretor v11.50 (firmware)
Electrode material :
Initial state :
Electrolyte :
Comments :
Electrode surface area : 0.001 cm2
Characteristic mass : 0.001 g
Equivalent Weight : 0.000 g/eq.
Density : 0.000 g/cm3
Volume (V) : 0.001 cm3
Cycle Definition : Charge/Discharge alternance
Mode                Single sine
E (V)               0.4500
vs.                 Ref
tE (h:m:s)          0:00:0.0000
record              0
dI                  0.000
unit dI             mA
dt (s)              0.000
fi                  500.000
unit fi             kHz
ff                  1.000
unit ff             Hz
Nd                  6
Points              per decade
spacing             Logarithmic
Va (mV)             10.0
pw                  0.10
Na                  2
corr                0
E range min (V)     -1.000
E range max (V)     1.000
I Range             Auto
Bandwidth           5
nc cycles           0
goto Ns'            0
nr cycles           0
inc. cycle          0

freq/Hz	Re(Z)/Ohm	-Im(Z)/Ohm	|Z|/Ohm	Phase(Z)/deg	time/s	<Ewe>/V	<I>/mA	Cs/uF	Cp/uF	cycle number	I Range	|Ewe|/V	|I|/A	Ns	(Q-Qo)/mA.h	Re(Y)/Ohm-1	Im(Y)/Ohm-1	|Y|/Ohm-1	Phase(Y)/deg	Re(C)/nF	Im(C)/nF	|C|/nF	Phase(C)/deg	Re(M)	Im(M)	|M|	Phase(M)/deg	Re(Permittivity)	Im(Permittivity)	|Permittivity|	Phase(Permittivity)/deg	Re(Resistivity)/Ohm.cm	Im(Resistivity)/Ohm.cm	|Resistivity|/Ohm.cm	Phase(Resistivity)/deg	Re(Conductivity)/mS/cm	Im(Conductivity)/mS/cm	|Conductivity|/mS/cm	Phase(Conductivity)/deg	Tan(Delta)	Loss Angle(Delta)/deg	dq/mA.h
500019	16.4449	-2.005	16.5667	6.95133	202.074	0.450117	0.00935955	-0.158752	-0.00232529	1	10	0.005471	0.000330241	0	1.72519e-05	0.0599184	-0.0073054	0.0603621	-6.95133	-2.32529	19.0719	19.2131	-96.9513	0.0000000E+000	0.0000000E+000	0.0000000E+000	96.9513	0.0000000E+000	0.0000000E+000	0.0000000E+000	-96.9513	0.0000000E+000	0.0000000E+000	0.0000000E+000	6.95133	0.0000000E+000	0.0000000E+000	0.0000000E+000	-6.95133	8.20194	83.0487	1.72519e-05
339899	11.5535	-1.37958	11.6355	6.80937	202.496	0.449988	0.00879308	-0.339408	-0.00477139	1	10	0.00886828	0.000762172	0	1.76218e-05	0.0853374	-0.01019	0.0859437	-6.80937	-4.77139	39.9585	40.2424	-96.8094	0.0000000E+000	0.0000000E+000	0.0000000E+000	96.8094	0.0000000E+000	0.0000000E+000	0.0000000E+000	-96.8094	0.0000000E+000	0.0000000E+000	0.0000000E+000	6.80937	0.0000000E+000	0.0000000E+000	0.0000000E+000	-6.80937	8.37461	83.1906	3.69879e-07
231063	9.75463	-0.821299	9.78914	4.81271	202.918	0.449812	0.0104516	-0.838666	-0.0059034	1	10	0.0104656	0.0010691	0	1.74931e-05	0.101794	-0.00857062	0.102154	-4.81271	-5.9034	70.1152	70.3633	-94.8127	0.0000000E+000	0.0000000E+000	0.0000000E+000	94.8127	0.0000000E+000	0.0000000E+000	0.0000000E+000	-94.8127	0.0000000E+000	0.0000000E+000	0.0000000E+000	4.81271	0.0000000E+000	0.0000000E+000	0.0000000E+000	-4.81271	11.8771	85.1873	-1.2872e-07
157076	9.04564	-0.423743	9.05556	2.68206	203.477	0.449764	0.0102522	-2.39116	-0.00523579	1	10	0.0100917	0.00111442	0	1.8218e-05	0.110308	-0.00516739	0.110429	-2.68206	-5.2358	111.769	111.891	-92.6821	0.0000000E+000	0.0000000E+000	0.0000000E+000	92.6821	0.0000000E+000	0.0000000E+000	0.0000000E+000	-92.6821	0.0000000E+000	0.0000000E+000	0.0000000E+000	2.68206	0.0000000E+000	0.0000000E+000	0.0000000E+000	-2.68206	21.347	87.3179	7.24935e-07
106786	8.81649	-0.186401	8.81846	1.21119	203.899	0.449759	0.01121	-7.9957	-0.00357246	1	10	0.010821	0.00122709	0	2.01194e-05	0.113373	-0.00239697	0.113398	-1.21119	-3.57245	168.972	169.01	-91.2112	0.0000000E+000	0.0000000E+000	0.0000000E+000	91.2112	0.0000000E+000	0.0000000E+000	0.0000000E+000	-91.2112	0.0000000E+000	0.0000000E+000	0.0000000E+000	1.21119	0.0000000E+000	0.0000000E+000	0.0000000E+000	-1.21119	47.2985	88.7888	1.90142e-06
72595	8.74085	-0.0677529	8.74112	0.444107	204.321	0.449757	0.0106752	-32.3583	-0.00194405	1	10	0.0107344	0.00122804	0	2.24417e-05	0.114398	-0.000886736	0.114402	-0.444107	-1.94405	250.803	250.811	-90.4441	0.0000000E+000	0.0000000E+000	0.0000000E+000	90.4441	0.0000000E+000	0.0000000E+000	0.0000000E+000	-90.4441	0.0000000E+000	0.0000000E+000	0.0000000E+000	0.444107	0.0000000E+000	0.0000000E+000	0.0000000E+000	-0.444107	129.011	89.5559	2.32226e-06
49352.4	8.71927	-0.00514616	8.71927	0.0338163	204.744	0.449758	0.0109808	-626.656	-0.000218291	1	10	0.0105761	0.00121295	0	2.41641e-05	0.114689	-6.76898e-05	0.114689	-0.0338163	-0.218273	369.856	369.856	-90.0338	0.0000000E+000	0.0000000E+000	0.0000000E+000	90.0338	0.0000000E+000	0.0000000E+000	0.0000000E+000	-90.0338	0.0000000E+000	0.0000000E+000	0.0000000E+000	0.0338163	0.0000000E+000	0.0000000E+000	0.0000000E+000	-0.0338163	1694.33	89.9662	1.72243e-06
33551.1	8.70904	0.0395508	8.70913	-0.260199	205.166	0.44975	0.0114914	119.938	0.00247355	1	10	0.0105266	0.00120868	0	2.32821e-05	0.114821	0.000521442	0.114822	0.260199	2.47356	544.671	544.677	-89.7398	0.0000000E+000	0.0000000E+000	0.0000000E+000	89.7398	0.0000000E+000	0.0000000E+000	0.0000000E+000	-89.7398	0.0000000E+000	0.0000000E+000	0.0000000E+000	-0.260199	0.0000000E+000	0.0000000E+000	0.0000000E+000	0.260199	220.199	89.7398	-8.81992e-07
22806.6	8.71266	0.0837665	8.71306	-0.550844	205.588	0.449747	0.0108392	83.3086	0.00769997	1	10	0.0104661	0.00120119	0	2.31682e-05	0.114765	0.00110339	0.11477	0.550844	7.69994	800.884	800.921	-89.4492	0.0000000E+000	0.0000000E+000	0.0000000E+000	89.4492	0.0000000E+000	0.0000000E+000	0.0000000E+000	-89.4492	0.0000000E+000	0.0000000E+000	0.0000000E+000	-0.550844	0.0000000E+000	0.0000000E+000	0.0000000E+000	0.550844	104.011	89.4492	-1.13943e-07
15504.4	8.72458	0.127838	8.72552	-0.839472	206.01	0.449745	0.0112715	80.2983	0.0172362	1	10	0.0103614	0.00118748	0	2.3312e-05	0.114594	0.0016791	0.114606	0.839472	17.2362	1176.33	1176.45	-89.1605	0.0000000E+000	0.0000000E+000	0.0000000E+000	89.1605	0.0000000E+000	0.0000000E+000	0.0000000E+000	-89.1605	0.0000000E+000	0.0000000E+000	0.0000000E+000	-0.839472	0.0000000E+000	0.0000000E+000	0.0000000E+000	0.839472	68.2473	89.1605	1.43792e-07
10540.4	8.73344	0.177166	8.73524	-1.16214	206.432	0.449756	0.0109435	85.2281	0.0350586	1	10	0.0102336	0.00117154	0	2.41277e-05	0.114455	0.00232183	0.114479	1.16214	35.0586	1728.22	1728.58	-88.8379	0.0000000E+000	0.0000000E+000	0.0000000E+000	88.8379	0.0000000E+000	0.0000000E+000	0.0000000E+000	-88.8379	0.0000000E+000	0.0000000E+000	0.0000000E+000	-1.16214	0.0000000E+000	0.0000000E+000	0.0000000E+000	1.16214	49.2952	88.8379	8.1566e-07
7163.78	8.747	0.265895	8.75104	-1.74116	206.955	0.449731	0.0089403	83.5542	0.0771379	1	10	0.0101411	0.00115885	0	2.36096e-05	0.114219	0.00347208	0.114272	1.74116	77.138	2537.57	2538.74	-88.2588	0.0000000E+000	0.0000000E+000	0.0000000E+000	88.2588	0.0000000E+000	0.0000000E+000	0.0000000E+000	-88.2588	0.0000000E+000	0.0000000E+000	0.0000000E+000	-1.74116	0.0000000E+000	0.0000000E+000	0.0000000E+000	1.74116	32.8965	88.2588	-5.18016e-07
4871.56	8.77509	0.361372	8.78253	-2.3582	207.424	0.449763	0.0114615	90.406	0.153062	1	10	0.0108586	0.00123639	0	2.51426e-05	0.113766	0.00468507	0.113862	2.3582	153.062	3716.76	3719.91	-87.6418	0.0000000E+000	0.0000000E+000	0.0000000E+000	87.6418	0.0000000E+000	0.0000000E+000	0.0000000E+000	-87.6418	0.0000000E+000	0.0000000E+000	0.0000000E+000	-2.3582	0.0000000E+000	0.0000000E+000	0.0000000E+000	2.3582	24.2827	87.6418	1.53296e-06
3311.06	8.80201	0.498742	8.81612	-3.24305	208.11	0.449759	0.0115957	96.3778	0.308442	1	10	0.0101516	0.00115148	0	2.71978e-05	0.113247	0.00641683	0.113429	3.24305	308.442	5443.51	5452.25	-86.757	0.0000000E+000	0.0000000E+000	0.0000000E+000	86.757	0.0000000E+000	0.0000000E+000	0.0000000E+000	-86.757	0.0000000E+000	0.0000000E+000	0.0000000E+000	-3.24305	0.0000000E+000	0.0000000E+000	0.0000000E+000	3.24305	17.6484	86.757	2.05521e-06
2250.72	8.84488	0.701712	8.87267	-4.53608	208.575	0.449757	0.0118585	100.772	0.630302	1	10	0.0103225	0.0011634	0	2.77718e-05	0.112353	0.00891354	0.112706	4.53608	630.302	7944.78	7969.74	-85.4639	0.0000000E+000	0.0000000E+000	0.0000000E+000	85.4639	0.0000000E+000	0.0000000E+000	0.0000000E+000	-85.4639	0.0000000E+000	0.0000000E+000	0.0000000E+000	-4.53608	0.0000000E+000	0.0000000E+000	0.0000000E+000	4.53608	12.6047	85.4639	5.7397e-07
1530.49	8.89798	0.972473	8.95096	-6.23718	209.04	0.449756	0.0111541	106.933	1.2622	1	10	0.0104039	0.00116232	0	2.84437e-05	0.111059	0.0121377	0.11172	6.23718	1262.2	11548.9	11617.7	-83.7628	0.0000000E+000	0.0000000E+000	0.0000000E+000	83.7628	0.0000000E+000	0.0000000E+000	0.0000000E+000	-83.7628	0.0000000E+000	0.0000000E+000	0.0000000E+000	-6.23718	0.0000000E+000	0.0000000E+000	0.0000000E+000	6.23718	9.14985	83.7628	6.71884e-07
1040.33	8.9595	1.37411	9.06426	-8.71948	209.505	0.449762	0.0118603	111.333	2.55862	1	10	0.0104374	0.00115149	0	3.09445e-05	0.109048	0.0167247	0.110323	8.71948	2558.62	16682.7	16877.8	-81.2805	0.0000000E+000	0.0000000E+000	0.0000000E+000	81.2805	0.0000000E+000	0.0000000E+000	0.0000000E+000	-81.2805	0.0000000E+000	0.0000000E+000	0.0000000E+000	-8.71948	0.0000000E+000	0.0000000E+000	0.0000000E+000	8.71948	6.5202	81.2805	2.50086e-06
707.036	9.05378	1.92439	9.25604	-11.9997	209.97	0.449762	0.0120392	116.973	5.05616	1	10	0.0104593	0.00113	0	3.19095e-05	0.105677	0.0224617	0.108038	11.9997	5056.16	23788	24319.4	-78.0003	0.0000000E+000	0.0000000E+000	0.0000000E+000	78.0003	0.0000000E+000	0.0000000E+000	0.0000000E+000	-78.0003	0.0000000E+000	0.0000000E+000	0.0000000E+000	-11.9997	0.0000000E+000	0.0000000E+000	0.0000000E+000	11.9997	4.70476	78.0003	9.64931e-07
480.769	9.15265	2.71109	9.54573	-16.4998	210.435	0.44976	0.0107795	122.107	9.8494	1	10	0.0104557	0.00109533	0	3.26983e-05	0.100445	0.0297527	0.104759	16.4998	9849.4	33251.5	34679.6	-73.5002	0.0000000E+000	0.0000000E+000	0.0000000E+000	73.5002	0.0000000E+000	0.0000000E+000	0.0000000E+000	-73.5002	0.0000000E+000	0.0000000E+000	0.0000000E+000	-16.4998	0.0000000E+000	0.0000000E+000	0.0000000E+000	16.4998	3.376	73.5002	7.88867e-07
326.778	9.27417	3.82658	10.0326	-22.4214	210.898	0.449754	0.0106416	127.279	18.5162	1	10	0.0104582	0.00104243	0	3.36231e-05	0.0921401	0.0380176	0.0996751	22.4214	18516.2	44876.2	48546.1	-67.5786	0.0000000E+000	0.0000000E+000	0.0000000E+000	67.5786	0.0000000E+000	0.0000000E+000	0.0000000E+000	-67.5786	0.0000000E+000	0.0000000E+000	0.0000000E+000	-22.4214	0.0000000E+000	0.0000000E+000	0.0000000E+000	22.4214	2.42362	67.5786	9.24786e-07
222.061	9.40548	5.44531	10.868	-30.0687	211.359	0.449764	0.0112994	131.621	33.0421	1	10	0.0104453	0.000961099	0	3.53942e-05	0.0796302	0.046102	0.0920129	30.0687	33042.1	57072.4	65947.3	-59.9313	0.0000000E+000	0.0000000E+000	0.0000000E+000	59.9313	0.0000000E+000	0.0000000E+000	0.0000000E+000	-59.9313	0.0000000E+000	0.0000000E+000	0.0000000E+000	-30.0687	0.0000000E+000	0.0000000E+000	0.0000000E+000	30.0687	1.72726	59.9313	1.77105e-06
151.015	9.56974	7.8009	12.3464	-39.1856	211.821	0.449755	0.0108727	135.1	53.9341	1	10	0.0104467	0.000846131	0	3.67693e-05	0.0627796	0.0511756	0.0809952	39.1856	53934.1	66163.6	85361	-50.8144	0.0000000E+000	0.0000000E+000	0.0000000E+000	50.8144	0.0000000E+000	0.0000000E+000	0.0000000E+000	-50.8144	0.0000000E+000	0.0000000E+000	0.0000000E+000	-39.1856	0.0000000E+000	0.0000000E+000	0.0000000E+000	39.1856	1.22675	50.8144	1.3751e-06
102.667	9.77807	11.2504	14.9058	-49.0051	212.296	0.449758	0.0114	137.79	78.4958	1	10	0.0104414	0.000700492	0	3.85589e-05	0.0440092	0.0506359	0.067088	49.0051	78495.8	68223	104000	-40.9949	0.0000000E+000	0.0000000E+000	0.0000000E+000	40.9949	0.0000000E+000	0.0000000E+000	0.0000000E+000	-40.9949	0.0000000E+000	0.0000000E+000	0.0000000E+000	-49.0051	0.0000000E+000	0.0000000E+000	0.0000000E+000	49.0051	0.86913	40.9949	1.78959e-06
69.7545	10.0241	16.2585	19.1003	-58.3443	212.763	0.449758	0.010854	140.335	101.683	1	10	0.0104285	0.000545985	0	4.0266e-05	0.0274767	0.0445656	0.0523552	58.3443	101683	62692.1	119456	-31.6557	0.0000000E+000	0.0000000E+000	0.0000000E+000	31.6557	0.0000000E+000	0.0000000E+000	0.0000000E+000	-31.6557	0.0000000E+000	0.0000000E+000	0.0000000E+000	-58.3443	0.0000000E+000	0.0000000E+000	0.0000000E+000	58.3443	0.616544	31.6557	1.70716e-06
47.4443	10.4054	23.6098	25.8011	-66.2157	213.451	0.449756	0.00052421	142.083	118.974	1	11	0.0104583	0.000405345	0	4.08646e-05	0.0156309	0.0354664	0.0387581	66.2157	118974	52434.9	130016	-23.7843	0.0000000E+000	0.0000000E+000	0.0000000E+000	23.7843	0.0000000E+000	0.0000000E+000	0.0000000E+000	-23.7843	0.0000000E+000	0.0000000E+000	0.0000000E+000	-66.2157	0.0000000E+000	0.0000000E+000	0.0000000E+000	66.2157	0.440725	23.7843	5.98576e-07
32.2387	10.8739	34.3137	35.9954	-72.4168	213.888	0.449749	0.000102454	143.872	130.742	1	11	0.010444	0.000290148	0	4.10502e-05	0.00839248	0.0264833	0.0277813	72.4168	130742	41431.8	137150	-17.5832	0.0000000E+000	0.0000000E+000	0.0000000E+000	17.5832	0.0000000E+000	0.0000000E+000	0.0000000E+000	-17.5832	0.0000000E+000	0.0000000E+000	0.0000000E+000	-72.4168	0.0000000E+000	0.0000000E+000	0.0000000E+000	72.4168	0.316897	17.5832	1.85615e-07
21.9144	11.5584	49.8047	51.1283	-76.9344	214.319	0.449752	0.000248939	145.821	138.368	1	11	0.0104279	0.000203955	0	4.11882e-05	0.00442153	0.0190523	0.0195586	76.9344	138368	32111.7	142046	-13.0656	0.0000000E+000	0.0000000E+000	0.0000000E+000	13.0656	0.0000000E+000	0.0000000E+000	0.0000000E+000	-13.0656	0.0000000E+000	0.0000000E+000	0.0000000E+000	-76.9344	0.0000000E+000	0.0000000E+000	0.0000000E+000	76.9344	0.232073	13.0656	1.38013e-07
14.9093	12.5327	72.4566	73.5325	-80.1867	214.786	0.44976	0.000602849	147.327	143.048	1	11	0.0104265	0.000141794	0	4.10213e-05	0.00231785	0.0134004	0.0135994	80.1867	143048	24742.7	145172	-9.81326	0.0000000E+000	0.0000000E+000	0.0000000E+000	9.81326	0.0000000E+000	0.0000000E+000	0.0000000E+000	-9.81326	0.0000000E+000	0.0000000E+000	0.0000000E+000	-80.1867	0.0000000E+000	0.0000000E+000	0.0000000E+000	80.1867	0.172968	9.81326	-1.66884e-07
10.1329	13.8414	105.525	106.429	-82.5273	215.246	0.449755	0.000360943	148.843	146.326	1	11	0.0104275	9.79762e-05	0	4.04594e-05	0.00122197	0.00931614	0.00939594	82.5273	146326	19193.1	147579	-7.47266	0.0000000E+000	0.0000000E+000	0.0000000E+000	7.47266	0.0000000E+000	0.0000000E+000	0.0000000E+000	-7.47266	0.0000000E+000	0.0000000E+000	0.0000000E+000	-82.5273	0.0000000E+000	0.0000000E+000	0.0000000E+000	82.5273	0.131167	7.47266	-5.61916e-07
6.88933	15.6655	154.174	154.968	-84.1981	215.799	0.449745	0.000429165	149.841	148.31	1	12	0.01043	6.73044e-05	0	4.03932e-05	0.000652319	0.00641989	0.00645294	84.1981	148310	15069.6	149074	-5.80186	0.0000000E+000	0.0000000E+000	0.0000000E+000	5.80186	0.0000000E+000	0.0000000E+000	0.0000000E+000	-5.80186	0.0000000E+000	0.0000000E+000	0.0000000E+000	-84.1981	0.0000000E+000	0.0000000E+000	0.0000000E+000	84.1981	0.101609	5.80185	-6.62107e-08
4.68375	17.5109	223.712	224.396	-85.5243	216.296	0.449772	0.000146252	151.893	150.968	1	12	0.0104268	4.6466e-05	0	4.043e-05	0.000347758	0.00444282	0.0044564	85.5243	150968	11816.9	151430	-4.47565	0.0000000E+000	0.0000000E+000	0.0000000E+000	4.47565	0.0000000E+000	0.0000000E+000	0.0000000E+000	-4.47565	0.0000000E+000	0.0000000E+000	0.0000000E+000	-85.5243	0.0000000E+000	0.0000000E+000	0.0000000E+000	85.5243	0.0782742	4.47565	3.67495e-08
3.18099	22.1957	326.672	327.425	-86.113	216.998	0.449762	0.000118679	153.16	152.457	1	12	0.0104245	3.18377e-05	0	4.1017e-05	0.000207036	0.00304711	0.00305413	86.113	152457	10358.7	152808	-3.88699	0.0000000E+000	0.0000000E+000	0.0000000E+000	3.88699	0.0000000E+000	0.0000000E+000	0.0000000E+000	-3.88699	0.0000000E+000	0.0000000E+000	0.0000000E+000	-86.113	0.0000000E+000	0.0000000E+000	0.0000000E+000	86.113	0.0679449	3.88699	5.87025e-07
2.16533	27.5422	474.991	475.789	-86.6814	218.009	0.449771	0.000225475	154.743	154.224	1	12	0.0104204	2.19014e-05	0	4.10253e-05	0.000121666	0.00209825	0.00210177	86.6814	154224	8942.65	154484	-3.31856	0.0000000E+000	0.0000000E+000	0.0000000E+000	3.31856	0.0000000E+000	0.0000000E+000	0.0000000E+000	-3.31856	0.0000000E+000	0.0000000E+000	0.0000000E+000	-86.6814	0.0000000E+000	0.0000000E+000	0.0000000E+000	86.6814	0.0579846	3.31856	8.36461e-09
1.46962	37.0117	694.191	695.177	-86.9481	220.209	0.449771	0.000147957	156.004	155.562	1	13	0.0104286	1.50014e-05	0	4.06994e-05	7.65859e-05	0.00143644	0.00143848	86.9481	155562	8293.99	155783	-3.05191	0.0000000E+000	0.0000000E+000	0.0000000E+000	3.05191	0.0000000E+000	0.0000000E+000	0.0000000E+000	-3.05191	0.0000000E+000	0.0000000E+000	0.0000000E+000	-86.9481	0.0000000E+000	0.0000000E+000	0.0000000E+000	86.9481	0.0533163	3.05191	-3.25927e-07
1.00006	50.2404	1012.81	1014.05	-87.1602	222.349	0.449769	0.000169065	157.132	156.747	1	13	0.0104249	1.02804e-05	0	4.06506e-05	4.88576e-05	0.000984931	0.000986142	87.1602	156747	7775.44	156939	-2.83984	0.0000000E+000	0.0000000E+000	0.0000000E+000	2.83984	0.0000000E+000	0.0000000E+000	0.0000000E+000	-2.83984	0.0000000E+000	0.0000000E+000	0.0000000E+000	-87.1602	0.0000000E+000	0.0000000E+000	0.0000000E+000	87.1602	0.0496051	2.83984	-4.87724e-08