File: ACS_Catal_2026/Figures_Na_K/main_figures/data/EC/20251112_2-148_alpha_reproducibility/20251112_2-148_006_gamma_reproducibility_2_K2_stopped_01_CVA_C02.mpt
EC-Lab ASCII FILE
Nb header lines : 66

Cyclic Voltammetry Advanced

Run on channel : 2 (SN 69290)
User :
CE vs. WE compliance from -10 V to 10 V
Electrode connection : standard
Potential control : Ewe
Ewe ctrl range : min = -1.00 V, max = 1.00 V
Safety Limits :
	Do not start on E overload
Acquisition started on : 11/12/2025 20:20:55.800
Loaded Setting File :  C:\Users\User\Documents\EC-Lab\Data\Yatsuzuka\20251112_2-148_alpha_reproducibility\20251112_2-148_002_alpha_reproducibility_2_K1.mps
Saved on :
	File : 20251112_2-148_006_gamma_reproducibility_2_K2_01_CVA_C02.mpr
	Directory : C:\Users\User\Documents\EC-Lab\Data\Yatsuzuka\20251112_2-148_alpha_reproducibility\
	Host : 192.109.209.127
Device : SP-150e (SN .003883)
Address : 192.109.209.128
EC-Lab for windows v11.52 (software)
Internet server v11.52 (firmware)
Command interpretor v11.50 (firmware)
Electrode material :
Initial state :
Electrolyte :
Comments :
Electrode surface area : 0.001 cm2
Characteristic mass : 0.001 g
Equivalent Weight : 0.000 g/eq.
Density : 0.000 g/cm3
Volume (V) : 0.001 cm3
Cycle Definition : Charge/Discharge alternance
Ei (V)              0.350
vs.                 Ref
ti (h:m:s)          0:00:10.0000
dti (s)             0.0000
dE/dt               10.000
dE/dt unit          mV/s
E1 (V)              0.450
vs.                 Ref
t1 (h:m:s)          0:00:0.0000
dt1 (s)             0.1000
Step percent        50
N                   10
E range min (V)     -1.000
E range max (V)     1.000
I Range             Auto
I Range min         Unset
I Range max         Unset
I Range init        Unset
Bandwidth           5
E2 (V)              0.350
vs.                 Ref
t2 (h:m:s)          0:00:0.0000
dt2 (s)             0.1000
nc cycles           9
nr                  1
Reverse Scan        0
Ef (V)              0.000
vs.                 Eoc
tf (h:m:s)          0:00:0.0000
dtf (s)             0.1000

mode	ox/red	error	control changes	Ns changes	counter inc.	time/s	control/V	Ewe/V	<I>/mA	cycle number	(Q-Qo)/C	I Range	Ns	step time/s	P/W
2	0	0	0	0	0	0.000000000000000E+000	0.349989	0.348847	-74.8065	1	0.0000000E+000	9	0	0.000000000000000E+000	-0.026096
2	1	0	1	0	0	0.0275	0.350264	0.350061	3.5385	1	6.39579e-05	9	0	0.000000000000000E+000	0.00123869
2	0	0	1	0	0	0.0775	0.350763	0.351342	-1.59217	1	0.000194232	9	0	0.05	-0.000559396
2	1	0	1	0	0	0.1275	0.351263	0.352165	3.58695	1	0.000155962	9	0	0.000000000000000E+000	0.0012632
2	0	0	1	0	0	0.1774	0.351763	0.351645	-1.50704	1	0.00027973	9	0	0.000000000000000E+000	-0.000529942
2	1	0	1	0	0	0.2273	0.352261	0.351865	3.59052	1	0.000237853	9	0	0.000000000000000E+000	0.00126338
2	0	0	1	0	0	0.2773	0.352761	0.351577	-1.70424	1	0.000364711	9	0	0.000000000000000E+000	-0.00059917
2	1	0	1	0	0	0.3272	0.35326	0.352331	3.57735	1	0.000327149	9	0	0.000000000000000E+000	0.00126041
2	0	0	1	0	0	0.3771	0.35376	0.35312	-1.66748	1	0.000463649	9	0	0.000000000000000E+000	-0.000588821
2	1	0	1	0	0	0.4271	0.354259	0.353146	3.78101	1	0.000415556	9	0	0.000000000000000E+000	0.00133525
2	0	0	1	0	0	0.4771	0.354758	0.354025	-1.73062	1	0.000555368	9	0	0.000000000000000E+000	-0.000612681
2	1	0	1	0	0	0.5269	0.355258	0.354984	3.53873	1	0.000498496	9	0	0.000000000000000E+000	0.00125619
2	0	0	1	0	0	0.5769	0.355757	0.356207	-1.59071	1	0.000652635	9	0	0.000000000000000E+000	-0.000566623
2	1	0	1	0	0	0.6269	0.356257	0.356661	3.39321	1	0.000585098	9	0	0.000000000000000E+000	0.00121023
2	0	0	1	0	0	0.6768	0.356756	0.356673	-1.40754	1	0.000745623	9	0	0.000000000000000E+000	-0.000502031
2	1	0	1	0	0	0.7267	0.357255	0.357576	3.11527	1	0.000671221	9	0	0.000000000000000E+000	0.00111395
2	0	0	1	0	0	0.7767	0.357755	0.357537	-1.12732	1	0.000837299	9	0	0.000000000000000E+000	-0.000403057
2	1	0	1	0	0	0.8266	0.358254	0.357677	2.96246	1	0.000771676	9	0	0.000000000000000E+000	0.00105961
2	0	0	1	0	0	0.8765	0.358754	0.358816	-1.02887	1	0.000941787	9	0	0.000000000000000E+000	-0.000369176
2	1	0	1	0	0	0.9265	0.359253	0.358565	2.55141	1	0.000860053	9	0	0.000000000000000E+000	0.000914849
2	0	0	1	0	0	0.9765	0.359752	0.359855	-1.25564	1	0.0010094	9	0	0.000000000000000E+000	-0.000451849
2	1	0	1	0	0	1.0264	0.360253	0.360164	3.88856	1	0.000962036	9	0	0.000000000000000E+000	0.00140052
2	0	0	1	0	0	1.0763	0.360751	0.361101	-0.851968	1	0.00114779	9	0	0.000000000000000E+000	-0.000307647
2	1	0	1	0	0	1.1263	0.361251	0.360953	3.69881	1	0.00110063	9	0	0.000000000000000E+000	0.0013351
2	0	0	1	0	0	1.1762	0.36175	0.360935	-1.29444	1	0.00128061	9	0	0.000000000000000E+000	-0.000467209
2	1	0	1	0	0	1.2261	0.362249	0.360632	3.17754	1	0.00120307	9	0	0.000000000000000E+000	0.00114592
2	0	0	1	0	0	1.2761	0.362749	0.361866	-1.07056	1	0.00138938	9	0	0.000000000000000E+000	-0.0003874
2	1	0	1	0	0	1.326	0.363247	0.361851	3.21356	1	0.00131036	9	0	0.000000000000000E+000	0.00116283
2	0	0	1	0	0	1.3759	0.363748	0.363141	-0.815644	1	0.00151019	9	0	0.000000000000000E+000	-0.000296193
2	1	0	1	0	0	1.4259	0.364247	0.363478	2.9826	1	0.00142538	9	0	0.000000000000000E+000	0.00108411
2	0	0	1	0	0	1.4759	0.364747	0.364877	-0.690375	1	0.00162743	9	0	0.000000000000000E+000	-0.000251902
2	1	0	1	0	0	1.5258	0.365247	0.365238	2.55082	1	0.00154353	9	0	0.000000000000000E+000	0.000931654
2	0	0	1	0	0	1.5757	0.365745	0.366679	-0.709744	1	0.00174292	9	0	0.000000000000000E+000	-0.000260249
2	1	0	1	0	0	1.6257	0.366245	0.36652	2.56099	1	0.00164965	9	0	0.000000000000000E+000	0.000938655
2	0	0	1	0	0	1.6756	0.366744	0.366954	-0.606072	1	0.00184569	9	0	0.000000000000000E+000	-0.0002224
2	1	0	1	0	0	1.7255	0.367244	0.366096	2.68008	1	0.0017553	9	0	0.000000000000000E+000	0.000981167
2	0	0	1	0	0	1.7755	0.367743	0.367608	-0.659124	1	0.0019578	9	0	0.000000000000000E+000	-0.000242299
2	1	0	1	0	0	1.8255	0.368242	0.367985	2.62472	1	0.00187075	9	0	0.000000000000000E+000	0.000965859
2	0	0	1	0	0	1.8753	0.368742	0.36854	-0.934436	1	0.00205902	9	0	0.000000000000000E+000	-0.000344377
2	1	0	1	0	0	1.9253	0.369241	0.368239	2.96487	1	0.0019688	9	0	0.000000000000000E+000	0.00109178
2	0	0	1	0	0	1.9753	0.369741	0.369812	-0.710883	1	0.00218017	9	0	0.000000000000000E+000	-0.000262893
2	1	0	1	0	0	2.0252	0.37024	0.369372	2.87156	1	0.00209239	9	0	0.000000000000000E+000	0.00106068
2	0	0	1	0	0	2.0751	0.370739	0.370056	-0.461191	1	0.00231823	9	0	0.000000000000000E+000	-0.000170666
2	1	0	1	0	0	2.1251	0.371239	0.370077	2.68182	1	0.00222075	9	0	0.000000000000000E+000	0.000992479
2	0	0	1	0	0	2.175	0.371738	0.371729	0.0279297	1	0.00245275	9	0	0.000000000000000E+000	1.03823e-05
2	1	0	1	0	0	2.2249	0.372238	0.37178	2.47452	1	0.00235181	9	0	0.000000000000000E+000	0.000919978
2	0	0	1	0	0	2.2749	0.372737	0.372431	-0.124784	1	0.00258614	9	0	0.000000000000000E+000	-4.64734e-05
2	1	0	1	0	0	2.3249	0.373236	0.373359	2.68334	1	0.00250037	9	0	0.000000000000000E+000	0.00100185
2	0	0	1	0	0	2.3748	0.373737	0.373522	-0.382641	1	0.00272541	9	0	0.000000000000000E+000	-0.000142925
2	1	0	1	0	0	2.4247	0.374235	0.373258	2.52814	1	0.00263242	9	0	0.000000000000000E+000	0.000943648
2	0	0	1	0	0	2.4747	0.374735	0.374171	-0.578174	1	0.00284729	9	0	0.000000000000000E+000	-0.000216336
2	1	0	1	0	0	2.5246	0.375234	0.374819	2.77914	1	0.00274729	9	0	0.000000000000000E+000	0.00104167
2	0	0	1	0	0	2.5745	0.375733	0.37545	-0.539266	1	0.00297096	9	0	0.000000000000000E+000	-0.000202468
2	1	0	1	0	0	2.6245	0.376233	0.375968	2.52825	1	0.0028613	9	0	0.000000000000000E+000	0.00095054
2	0	0	1	0	0	2.6744	0.376731	0.376475	-0.422743	1	0.00309476	9	0	0.000000000000000E+000	-0.000159152
2	1	0	1	0	0	2.7243	0.377232	0.377034	2.09241	1	0.00296924	9	0	0.000000000000000E+000	0.000788911
2	0	0	1	0	0	2.7743	0.377731	0.377994	-0.543355	1	0.00319955	9	0	0.000000000000000E+000	-0.000205385
2	1	0	1	0	0	2.8243	0.378231	0.37791	1.23636	1	0.0030484	9	0	0.000000000000000E+000	0.000467235
2	0	0	1	0	0	2.8742	0.37873	0.378132	-0.256436	1	0.0032572	9	0	0.000000000000000E+000	-9.69667e-05
2	1	0	1	0	0	2.9241	0.379229	0.378345	2.14629	1	0.00313125	9	0	0.000000000000000E+000	0.000812039
2	0	0	1	0	0	2.9741	0.379729	0.378433	0.268099	1	0.00337772	9	0	0.000000000000000E+000	0.000101457
2	1	0	1	0	0	3.024	0.380228	0.379963	2.3519	1	0.00328881	9	0	0.000000000000000E+000	0.000893633
2	0	0	1	0	0	3.0739	0.380728	0.379968	-0.0989586	1	0.00353022	9	0	0.000000000000000E+000	-3.76011e-05
2	1	0	1	0	0	3.1239	0.381227	0.381113	2.29789	1	0.00342115	9	0	0.000000000000000E+000	0.000875758
2	0	0	1	0	0	3.1739	0.381726	0.381127	0.273572	1	0.00366767	9	0	0.000000000000000E+000	0.000104266
2	1	0	1	0	0	3.2237	0.382226	0.381737	4.33208	1	0.0036196	9	0	0.000000000000000E+000	0.00165372
2	0	0	1	0	0	3.2737	0.382725	0.382949	0.238047	1	0.00391315	9	0	0.000000000000000E+000	9.11599e-05
2	1	0	1	0	0	3.3237	0.383225	0.38291	0.516838	1	0.00375972	9	0	0.000000000000000E+000	0.000197902
2	0	0	1	0	0	3.3736	0.383724	0.384465	-0.438331	1	0.00396789	9	0	0.000000000000000E+000	-0.000168523
2	1	0	1	0	0	3.4235	0.384223	0.384206	0.119895	1	0.00377875	9	0	0.000000000000000E+000	4.60644e-05
2	0	0	1	0	0	3.4735	0.384723	0.38472	-0.559726	1	0.00398079	9	0	0.000000000000000E+000	-0.000215338
2	1	0	1	0	0	3.5234	0.385222	0.385016	1.44139	1	0.00382583	9	0	0.000000000000000E+000	0.000554956
2	0	0	1	0	0	3.5733	0.385722	0.385566	-0.256678	1	0.00405078	9	0	0.000000000000000E+000	-9.89665e-05
2	1	0	1	0	0	3.6233	0.386221	0.384847	3.02904	1	0.00395155	9	0	0.000000000000000E+000	0.00116572
2	0	0	1	0	0	3.6733	0.38672	0.386151	1.71744	1	0.00425447	9	0	0.000000000000000E+000	0.000663192
2	1	0	1	0	0	3.7232	0.387221	0.386295	2.00605	1	0.00418623	9	0	0.000000000000000E+000	0.000774928
2	0	0	1	0	0	3.7731	0.387719	0.387014	-0.541449	1	0.00441873	9	0	0.000000000000000E+000	-0.000209548
2	1	0	1	0	0	3.8231	0.388219	0.387436	3.39095	1	0.00429456	9	0	0.000000000000000E+000	0.00131378
2	0	0	1	0	0	3.873	0.388718	0.388302	1.78009	1	0.00462146	9	0	0.000000000000000E+000	0.000691213
2	1	0	1	0	0	3.9229	0.389218	0.389073	6.66389	1	0.00467316	9	0	0.0499	0.00259274
2	1	0	1	0	0	3.9729	0.389717	0.389478	0.553501	1	0.00503726	9	0	0.0999	0.000215577
2	1	0	1	0	0	4.0228	0.390215	0.390562	4.15223	1	0.00497467	9	0	0.000000000000000E+000	0.0016217
2	0	0	1	0	0	4.0727	0.390716	0.390745	-0.265302	1	0.00525687	9	0	0.000000000000000E+000	-0.000103665
2	1	0	1	0	0	4.1227	0.391215	0.391098	1.5732	1	0.00511003	9	0	0.000000000000000E+000	0.000615276
2	0	0	1	0	0	4.1727	0.391715	0.391428	-1.1926	1	0.00531531	9	0	0.000000000000000E+000	-0.000466818
2	1	0	1	0	0	4.2226	0.392214	0.39172	1.60299	1	0.00513841	9	0	0.000000000000000E+000	0.000627924
2	1	0	1	0	0	4.2725	0.392713	0.393264	-0.717322	1	0.00538434	9	0	0.000000000000000E+000	-0.000282097
2	1	0	1	0	0	4.3225	0.393213	0.392817	2.38289	1	0.00524941	9	0	0.000000000000000E+000	0.000936039
2	0	0	1	0	0	4.3724	0.393712	0.393377	0.0991709	1	0.0054935	9	0	0.000000000000000E+000	3.90116e-05
2	1	0	1	0	0	4.4223	0.394212	0.393599	3.86193	1	0.00542181	9	0	0.000000000000000E+000	0.00152005
2	1	0	1	0	0	4.4723	0.394711	0.395596	3.19705	1	0.00579113	9	0	0.000000000000000E+000	0.00126474
2	1	0	1	0	0	4.5223	0.39521	0.394989	6.26378	1	0.00586452	9	0	0.05	0.00247413
2	1	0	1	0	0	4.5721	0.39571	0.394358	-0.0955632	1	0.00618947	9	0	0.0998	-3.76861e-05
2	1	0	1	0	0	4.6221	0.396209	0.394497	1.84829	1	0.00605418	9	0	0.000000000000000E+000	0.000729144
2	0	0	1	0	0	4.6721	0.396709	0.396105	0.600232	1	0.00631637	9	0	0.000000000000000E+000	0.000237755
2	1	0	1	0	0	4.722	0.397208	0.3969	1.73474	1	0.00620055	9	0	0.000000000000000E+000	0.000688519
2	0	0	1	0	0	4.7719	0.397707	0.39837	0.695755	1	0.00646363	9	0	0.000000000000000E+000	0.000277168
2	1	0	1	0	0	4.8219	0.398207	0.398799	1.61094	1	0.00634583	9	0	0.000000000000000E+000	0.000642442
2	0	0	1	0	0	4.8718	0.398706	0.398501	0.527843	1	0.00659784	9	0	0.000000000000000E+000	0.000210346
2	1	0	1	0	0	4.9217	0.399206	0.398277	1.68055	1	0.00648208	9	0	0.000000000000000E+000	0.000669323
2	0	0	1	0	0	4.9717	0.399705	0.399995	0.41947	1	0.00672836	9	0	0.000000000000000E+000	0.000167786
2	1	0	1	0	0	5.0217	0.400205	0.39983	2.10127	1	0.00662373	9	0	0.000000000000000E+000	0.00084015
2	0	0	1	0	0	5.0716	0.400705	0.400513	0.229362	1	0.0068685	9	0	0.000000000000000E+000	9.18623e-05
2	1	0	1	0	0	5.1215	0.401203	0.400334	1.88947	1	0.00674899	9	0	0.000000000000000E+000	0.00075642
2	0	0	1	0	0	5.1715	0.401703	0.401239	0.350387	1	0.00700325	9	0	0.000000000000000E+000	0.000140589
2	1	0	1	0	0	5.2214	0.402202	0.402063	1.99076	1	0.00688023	9	0	0.000000000000000E+000	0.000800413
2	1	0	1	0	0	5.2713	0.402702	0.402466	0.691758	1	0.00714956	9	0	0.000000000000000E+000	0.000278409
2	1	0	1	0	0	5.3213	0.403201	0.401855	1.72499	1	0.00702746	9	0	0.000000000000000E+000	0.000693195
2	0	0	1	0	0	5.3712	0.403699	0.403205	0.761934	1	0.00729646	9	0	0.000000000000000E+000	0.000307216
2	1	0	1	0	0	5.4211	0.4042	0.402362	1.65787	1	0.00717648	9	0	0.000000000000000E+000	0.000667064
2	0	0	1	0	0	5.4711	0.404699	0.403222	0.811924	1	0.00744533	9	0	0.000000000000000E+000	0.000327386
2	1	0	1	0	0	5.5211	0.405199	0.403724	1.95571	1	0.00733911	9	0	0.000000000000000E+000	0.000789568
2	0	0	1	0	0	5.571	0.405698	0.404898	0.773995	1	0.00759759	9	0	0.000000000000000E+000	0.000313389
2	1	0	1	0	0	5.6209	0.406197	0.405968	2.01826	1	0.00748868	9	0	0.000000000000000E+000	0.000819349
2	0	0	1	0	0	5.6709	0.406697	0.407237	0.503295	1	0.00774882	9	0	0.000000000000000E+000	0.00020496
2	1	0	1	0	0	5.7208	0.407196	0.406503	1.86545	1	0.00763677	9	0	0.000000000000000E+000	0.00075831
2	1	0	1	0	0	5.7707	0.407696	0.407561	0.683795	1	0.00790727	9	0	0.000000000000000E+000	0.000278688
2	1	0	1	0	0	5.8207	0.408195	0.407099	1.90586	1	0.00779118	9	0	0.000000000000000E+000	0.000775873
2	0	0	1	0	0	5.8707	0.408694	0.407662	0.726884	1	0.00806163	9	0	0.000000000000000E+000	0.000296323
2	1	0	1	0	0	5.9206	0.409195	0.408206	1.9636	1	0.00794326	9	0	0.000000000000000E+000	0.000801552
2	1	0	1	0	0	5.9705	0.409693	0.409651	0.970657	1	0.00822117	9	0	0.000000000000000E+000	0.000397631
2	1	0	1	0	0	6.0205	0.410193	0.408905	1.74118	1	0.00810782	9	0	0.000000000000000E+000	0.000711975
2	0	0	1	0	0	6.0704	0.410692	0.409819	0.822169	1	0.00837763	9	0	0.000000000000000E+000	0.000336941
2	0	0	1	0	0	6.1203	0.411191	0.410611	1.58527	1	0.00826491	9	0	0.000000000000000E+000	0.00065093
2	0	0	1	0	0	6.1703	0.411691	0.412179	0.848048	1	0.0085272	9	0	0.000000000000000E+000	0.000349547
2	1	0	1	0	0	6.2202	0.412189	0.411195	1.9369	1	0.00842129	9	0	0.000000000000000E+000	0.000796445
2	1	0	1	0	0	6.2701	0.41269	0.410235	0.873489	1	0.0086886	9	0	0.000000000000000E+000	0.000358336
2	1	0	1	0	0	6.3201	0.413189	0.411529	2.10052	1	0.0085857	9	0	0.000000000000000E+000	0.000864424
2	0	0	1	0	0	6.3701	0.413688	0.41324	0.733048	1	0.00885748	9	0	0.000000000000000E+000	0.000302924
2	1	0	1	0	0	6.42	0.414188	0.413592	1.82899	1	0.00874709	9	0	0.000000000000000E+000	0.000756454
2	1	0	1	0	0	6.4599	0.414587	0.414267	0.52488	1	0.00901971	9	0	0.000000000000000E+000	0.000217441
2	0	0	1	0	0	6.4758	0.414762	0.413441	-60.2552	1	0.00875186	9	0	0.000000000000000E+000	-0.024912