File: ACS_Catal_2026/Figures_Na_K/main_figures/data/EC/20251112_2-148_alpha_reproducibility/20251112_2-148_006_gamma_reproducibility_2_K1_02_PEIS_C02.mpt
EC-Lab ASCII FILE
Nb header lines : 63

Potentio Electrochemical Impedance Spectroscopy

Run on channel : 2 (SN 69290)
User :
CE vs. WE compliance from -10 V to 10 V
Electrode connection : standard
Potential control : Ewe
Ewe ctrl range : min = -1.00 V, max = 1.00 V
Safety Limits :
	Do not start on E overload
Acquisition started on : 11/12/2025 19:12:40.101
Loaded Setting File :  C:\Users\User\Documents\EC-Lab\Data\Yatsuzuka\20251112_2-148_alpha_reproducibility\20251112_2-148_002_alpha_reproducibility_2_K1.mps
Saved on :
	File : 20251112_2-148_006_gamma_reproducibility_2_K1_02_PEIS_C02.mpr
	Directory : C:\Users\User\Documents\EC-Lab\Data\Yatsuzuka\20251112_2-148_alpha_reproducibility\
	Host : 192.109.209.127
Device : SP-150e (SN .003883)
Address : 192.109.209.128
EC-Lab for windows v11.52 (software)
Internet server v11.52 (firmware)
Command interpretor v11.50 (firmware)
Electrode material :
Initial state :
Electrolyte :
Comments :
Electrode surface area : 0.001 cm2
Characteristic mass : 0.001 g
Equivalent Weight : 0.000 g/eq.
Density : 0.000 g/cm3
Volume (V) : 0.001 cm3
Cycle Definition : Charge/Discharge alternance
Mode                Single sine
E (V)               0.4500
vs.                 Ref
tE (h:m:s)          0:00:0.0000
record              0
dI                  0.000
unit dI             mA
dt (s)              0.000
fi                  500.000
unit fi             kHz
ff                  1.000
unit ff             Hz
Nd                  6
Points              per decade
spacing             Logarithmic
Va (mV)             10.0
pw                  0.10
Na                  2
corr                0
E range min (V)     -1.000
E range max (V)     1.000
I Range             Auto
Bandwidth           5
nc cycles           0
goto Ns'            0
nr cycles           0
inc. cycle          0

freq/Hz	Re(Z)/Ohm	-Im(Z)/Ohm	|Z|/Ohm	Phase(Z)/deg	time/s	<Ewe>/V	<I>/mA	Cs/uF	Cp/uF	cycle number	I Range	|Ewe|/V	|I|/A	Ns	(Q-Qo)/mA.h	Re(Y)/Ohm-1	Im(Y)/Ohm-1	|Y|/Ohm-1	Phase(Y)/deg	Re(C)/nF	Im(C)/nF	|C|/nF	Phase(C)/deg	Re(M)	Im(M)	|M|	Phase(M)/deg	Re(Permittivity)	Im(Permittivity)	|Permittivity|	Phase(Permittivity)/deg	Re(Resistivity)/Ohm.cm	Im(Resistivity)/Ohm.cm	|Resistivity|/Ohm.cm	Phase(Resistivity)/deg	Re(Conductivity)/mS/cm	Im(Conductivity)/mS/cm	|Conductivity|/mS/cm	Phase(Conductivity)/deg	Tan(Delta)	Loss Angle(Delta)/deg	dq/mA.h
500019	14.4898	-2.02807	14.6311	7.96764	202.275	0.449778	0.0167177	-0.156946	-0.00301553	1	10	0.00506646	0.00034628	0	2.93022e-05	0.0676879	-0.00947393	0.0683477	-7.96764	-3.01553	21.5449	21.7549	-97.9676	0.0000000E+000	0.0000000E+000	0.0000000E+000	97.9676	0.0000000E+000	0.0000000E+000	0.0000000E+000	-97.9676	0.0000000E+000	0.0000000E+000	0.0000000E+000	7.96764	0.0000000E+000	0.0000000E+000	0.0000000E+000	-7.96764	7.14465	82.0324	2.93022e-05
339899	9.95711	-1.25273	10.0356	7.17086	202.697	0.449692	0.0167121	-0.373777	-0.00582425	1	10	0.00800347	0.000797507	0	3.14258e-05	0.0988658	-0.0124386	0.0996452	-7.17086	-5.82425	46.2931	46.658	-97.1709	0.0000000E+000	0.0000000E+000	0.0000000E+000	97.1709	0.0000000E+000	0.0000000E+000	0.0000000E+000	-97.1709	0.0000000E+000	0.0000000E+000	0.0000000E+000	7.17086	0.0000000E+000	0.0000000E+000	0.0000000E+000	-7.17086	7.94833	82.8291	2.12367e-06
231063	8.31545	-0.641234	8.34014	4.40955	203.119	0.449549	0.0176984	-1.07417	-0.00634981	1	10	0.0103366	0.00123938	0	3.36644e-05	0.119547	-0.00921871	0.119902	-4.40955	-6.34981	82.3436	82.5881	-94.4096	0.0000000E+000	0.0000000E+000	0.0000000E+000	94.4096	0.0000000E+000	0.0000000E+000	0.0000000E+000	-94.4096	0.0000000E+000	0.0000000E+000	0.0000000E+000	4.40955	0.0000000E+000	0.0000000E+000	0.0000000E+000	-4.40955	12.9679	85.5904	2.23859e-06
157076	7.75328	-0.219086	7.75638	1.61859	203.677	0.449536	0.0180154	-4.62483	-0.00368984	1	10	0.0100981	0.00130191	0	3.16124e-05	0.128875	-0.00364164	0.128926	-1.61859	-3.68985	130.581	130.633	-91.6186	0.0000000E+000	0.0000000E+000	0.0000000E+000	91.6186	0.0000000E+000	0.0000000E+000	0.0000000E+000	-91.6186	0.0000000E+000	0.0000000E+000	0.0000000E+000	1.61859	0.0000000E+000	0.0000000E+000	0.0000000E+000	-1.61859	35.3892	88.3814	-2.05203e-06
106786	7.61639	-0.0127623	7.6164	0.0960068	204.099	0.44954	0.0179912	-116.782	-0.000327895	1	10	0.0108909	0.00142993	0	3.10758e-05	0.131296	-0.000220004	0.131296	-0.0960068	-0.3279	195.684	195.684	-90.096	0.0000000E+000	0.0000000E+000	0.0000000E+000	90.096	0.0000000E+000	0.0000000E+000	0.0000000E+000	-90.096	0.0000000E+000	0.0000000E+000	0.0000000E+000	0.0960068	0.0000000E+000	0.0000000E+000	0.0000000E+000	-0.0960068	596.788	89.904	-5.36629e-07
72595	7.60454	0.0674928	7.60484	-0.508505	204.521	0.449543	0.0181907	32.483	0.00255853	1	10	0.0107912	0.00141899	0	3.29329e-05	0.13149	0.00116702	0.131495	0.508505	2.55854	288.274	288.286	-89.4915	0.0000000E+000	0.0000000E+000	0.0000000E+000	89.4915	0.0000000E+000	0.0000000E+000	0.0000000E+000	-89.4915	0.0000000E+000	0.0000000E+000	0.0000000E+000	-0.508505	0.0000000E+000	0.0000000E+000	0.0000000E+000	0.508505	112.672	89.4915	1.85715e-06
49352.4	7.61596	0.0979237	7.61659	-0.736651	204.943	0.449547	0.0178588	32.9325	0.00544351	1	10	0.0106338	0.00139614	0	3.60112e-05	0.131282	0.00168798	0.131292	0.736651	5.44349	423.366	423.401	-89.2634	0.0000000E+000	0.0000000E+000	0.0000000E+000	89.2634	0.0000000E+000	0.0000000E+000	0.0000000E+000	-89.2634	0.0000000E+000	0.0000000E+000	0.0000000E+000	-0.736651	0.0000000E+000	0.0000000E+000	0.0000000E+000	0.736651	77.7745	89.2634	3.07831e-06
33551.1	7.62924	0.111546	7.63005	-0.837657	205.365	0.449552	0.0177674	42.5264	0.00908896	1	10	0.0105598	0.00138397	0	3.90927e-05	0.131047	0.00191602	0.131061	0.837657	9.08893	621.641	621.708	-89.1623	0.0000000E+000	0.0000000E+000	0.0000000E+000	89.1623	0.0000000E+000	0.0000000E+000	0.0000000E+000	-89.1623	0.0000000E+000	0.0000000E+000	0.0000000E+000	-0.837657	0.0000000E+000	0.0000000E+000	0.0000000E+000	0.837657	68.3952	89.1623	3.08148e-06
22806.6	7.64493	0.12068	7.64588	-0.904375	205.787	0.449552	0.018062	57.8262	0.0144059	1	10	0.0104181	0.00136258	0	4.0891e-05	0.130773	0.00206434	0.130789	0.904375	14.4059	912.596	912.71	-89.0956	0.0000000E+000	0.0000000E+000	0.0000000E+000	89.0956	0.0000000E+000	0.0000000E+000	0.0000000E+000	-89.0956	0.0000000E+000	0.0000000E+000	0.0000000E+000	-0.904375	0.0000000E+000	0.0000000E+000	0.0000000E+000	0.904375	63.3487	89.0956	1.79831e-06
15504.4	7.65332	0.144314	7.65468	-1.08026	206.209	0.449556	0.0179464	71.1308	0.0252825	1	10	0.0103661	0.00135421	0	4.10428e-05	0.130616	0.00246294	0.130639	1.08026	25.2825	1340.79	1341.03	-88.9197	0.0000000E+000	0.0000000E+000	0.0000000E+000	88.9197	0.0000000E+000	0.0000000E+000	0.0000000E+000	-88.9197	0.0000000E+000	0.0000000E+000	0.0000000E+000	-1.08026	0.0000000E+000	0.0000000E+000	0.0000000E+000	1.08026	53.0325	88.9197	1.51808e-07
10540.4	7.66832	0.169739	7.67019	-1.26804	206.631	0.449563	0.0185412	88.9574	0.0435645	1	10	0.0102174	0.00133209	0	4.34526e-05	0.130343	0.00288515	0.130375	1.26804	43.5646	1968.12	1968.6	-88.732	0.0000000E+000	0.0000000E+000	0.0000000E+000	88.732	0.0000000E+000	0.0000000E+000	0.0000000E+000	-88.732	0.0000000E+000	0.0000000E+000	0.0000000E+000	-1.26804	0.0000000E+000	0.0000000E+000	0.0000000E+000	1.26804	45.1771	88.732	2.40975e-06
7163.78	7.69269	0.221901	7.69589	-1.65228	207.156	0.449532	0.0156214	100.12	0.0832375	1	10	0.0102195	0.00132792	0	4.65656e-05	0.129885	0.00374663	0.129939	1.65228	83.2374	2885.61	2886.81	-88.3477	0.0000000E+000	0.0000000E+000	0.0000000E+000	88.3477	0.0000000E+000	0.0000000E+000	0.0000000E+000	-88.3477	0.0000000E+000	0.0000000E+000	0.0000000E+000	-1.65228	0.0000000E+000	0.0000000E+000	0.0000000E+000	1.65228	34.6672	88.3477	3.11305e-06
4871.56	7.70629	0.294501	7.71191	-2.18853	207.623	0.449553	0.0186699	110.934	0.161776	1	10	0.0109111	0.00141484	0	4.77843e-05	0.129575	0.00495179	0.12967	2.18853	161.776	4233.24	4236.33	-87.8115	0.0000000E+000	0.0000000E+000	0.0000000E+000	87.8115	0.0000000E+000	0.0000000E+000	0.0000000E+000	-87.8115	0.0000000E+000	0.0000000E+000	0.0000000E+000	-2.18853	0.0000000E+000	0.0000000E+000	0.0000000E+000	2.18853	26.1673	87.8115	1.21871e-06
3311.06	7.74028	0.393961	7.75029	-2.9137	208.31	0.449559	0.0183324	122.011	0.315261	1	10	0.0100851	0.00130125	0	4.96916e-05	0.128861	0.00655869	0.129027	2.9137	315.261	6194.03	6202.04	-87.0863	0.0000000E+000	0.0000000E+000	0.0000000E+000	87.0863	0.0000000E+000	0.0000000E+000	0.0000000E+000	-87.0863	0.0000000E+000	0.0000000E+000	0.0000000E+000	-2.9137	0.0000000E+000	0.0000000E+000	0.0000000E+000	2.9137	19.6473	87.0863	1.90723e-06
2250.72	7.79121	0.541766	7.81002	-3.97769	208.775	0.449552	0.0189309	130.523	0.628067	1	10	0.0102556	0.00131314	0	5.1093e-05	0.127732	0.00888193	0.128041	3.97769	628.067	9032.31	9054.12	-86.0223	0.0000000E+000	0.0000000E+000	0.0000000E+000	86.0223	0.0000000E+000	0.0000000E+000	0.0000000E+000	-86.0223	0.0000000E+000	0.0000000E+000	0.0000000E+000	-3.97769	0.0000000E+000	0.0000000E+000	0.0000000E+000	3.97769	14.3811	86.0223	1.40145e-06
1530.49	7.84527	0.731962	7.87935	-5.33025	209.24	0.449554	0.0178196	142.07	1.22602	1	10	0.0103192	0.00130965	0	5.3072e-05	0.126365	0.0117898	0.126914	5.33025	1226.02	13140.7	13197.7	-84.6698	0.0000000E+000	0.0000000E+000	0.0000000E+000	84.6698	0.0000000E+000	0.0000000E+000	0.0000000E+000	-84.6698	0.0000000E+000	0.0000000E+000	0.0000000E+000	-5.33025	0.0000000E+000	0.0000000E+000	0.0000000E+000	5.33025	10.7181	84.6698	1.97899e-06
1040.33	7.93489	1.00041	7.99771	-7.18581	209.705	0.449558	0.018461	152.921	2.39274	1	10	0.0103545	0.00129468	0	5.6386e-05	0.124054	0.0156404	0.125036	7.18581	2392.74	18978.3	19128.6	-82.8142	0.0000000E+000	0.0000000E+000	0.0000000E+000	82.8142	0.0000000E+000	0.0000000E+000	0.0000000E+000	-82.8142	0.0000000E+000	0.0000000E+000	0.0000000E+000	-7.18581	0.0000000E+000	0.0000000E+000	0.0000000E+000	7.18581	7.93161	82.8142	3.31398e-06
707.036	8.03979	1.34712	8.15187	-9.51192	210.17	0.449559	0.0178606	167.098	4.5632	1	10	0.0103621	0.00127113	0	5.81471e-05	0.120985	0.0202718	0.122671	9.51192	4563.2	27233.8	27613.5	-80.4881	0.0000000E+000	0.0000000E+000	0.0000000E+000	80.4881	0.0000000E+000	0.0000000E+000	0.0000000E+000	-80.4881	0.0000000E+000	0.0000000E+000	0.0000000E+000	-9.51192	0.0000000E+000	0.0000000E+000	0.0000000E+000	9.51192	5.96814	80.4881	1.76116e-06
480.769	8.16737	1.83722	8.37145	-12.6774	210.635	0.449551	0.0184386	180.187	8.67845	1	10	0.0103666	0.00123833	0	5.98483e-05	0.116541	0.0262155	0.119454	12.6774	8678.45	38580.1	39544.2	-77.3226	0.0000000E+000	0.0000000E+000	0.0000000E+000	77.3226	0.0000000E+000	0.0000000E+000	0.0000000E+000	-77.3226	0.0000000E+000	0.0000000E+000	0.0000000E+000	-12.6774	0.0000000E+000	0.0000000E+000	0.0000000E+000	12.6774	4.44551	77.3226	1.70111e-06
326.778	8.31128	2.50921	8.68179	-16.7993	211.098	0.44955	0.0176686	194.102	16.2138	1	10	0.0103617	0.00119349	0	6.19641e-05	0.110268	0.0332903	0.115184	16.7993	16213.8	53705.3	56099.4	-73.2007	0.0000000E+000	0.0000000E+000	0.0000000E+000	73.2007	0.0000000E+000	0.0000000E+000	0.0000000E+000	-73.2007	0.0000000E+000	0.0000000E+000	0.0000000E+000	-16.7993	0.0000000E+000	0.0000000E+000	0.0000000E+000	16.7993	3.31231	73.2007	2.11586e-06
222.061	8.47009	3.47	9.15332	-22.2778	211.559	0.449553	0.0180807	206.547	29.6839	1	10	0.0103533	0.0011311	0	6.42053e-05	0.101095	0.0414164	0.10925	22.2778	29683.9	72456.7	78301.4	-67.7222	0.0000000E+000	0.0000000E+000	0.0000000E+000	67.7222	0.0000000E+000	0.0000000E+000	0.0000000E+000	-67.7222	0.0000000E+000	0.0000000E+000	0.0000000E+000	-22.2778	0.0000000E+000	0.0000000E+000	0.0000000E+000	22.2778	2.44095	67.7222	2.24118e-06
151.015	8.65599	4.8571	9.9256	-29.2979	212.021	0.449549	0.0175493	216.982	51.9594	1	10	0.0103494	0.00104269	0	6.66255e-05	0.0878624	0.0493019	0.10075	29.2979	51959.4	92598.4	106180	-60.7021	0.0000000E+000	0.0000000E+000	0.0000000E+000	60.7021	0.0000000E+000	0.0000000E+000	0.0000000E+000	-60.7021	0.0000000E+000	0.0000000E+000	0.0000000E+000	-29.2979	0.0000000E+000	0.0000000E+000	0.0000000E+000	29.2979	1.78213	60.7021	2.42024e-06
102.667	8.85591	6.88027	11.2145	-37.8441	212.496	0.449557	0.0190465	225.311	84.8072	1	10	0.0103468	0.000922624	0	6.98046e-05	0.0704162	0.0547072	0.0891702	37.8441	84807.2	109159	138232	-52.1559	0.0000000E+000	0.0000000E+000	0.0000000E+000	52.1559	0.0000000E+000	0.0000000E+000	0.0000000E+000	-52.1559	0.0000000E+000	0.0000000E+000	0.0000000E+000	-37.8441	0.0000000E+000	0.0000000E+000	0.0000000E+000	37.8441	1.28715	52.1559	3.17909e-06
69.7545	9.13898	9.84638	13.434	-47.1339	212.963	0.44955	0.0178774	231.724	124.484	1	10	0.0103482	0.000770301	0	7.26513e-05	0.0506393	0.054559	0.074438	47.1339	124484	115541	169841	-42.8661	0.0000000E+000	0.0000000E+000	0.0000000E+000	42.8661	0.0000000E+000	0.0000000E+000	0.0000000E+000	-42.8661	0.0000000E+000	0.0000000E+000	0.0000000E+000	-47.1339	0.0000000E+000	0.0000000E+000	0.0000000E+000	47.1339	0.928157	42.8661	2.84663e-06
47.4443	9.49014	14.1157	17.0093	-56.0866	213.407	0.449545	0.0168538	237.648	163.669	1	10	0.0103335	0.000607524	0	7.51378e-05	0.0328021	0.04879	0.0587915	56.0866	163669	110037	197220	-33.9134	0.0000000E+000	0.0000000E+000	0.0000000E+000	33.9134	0.0000000E+000	0.0000000E+000	0.0000000E+000	-33.9134	0.0000000E+000	0.0000000E+000	0.0000000E+000	-56.0866	0.0000000E+000	0.0000000E+000	0.0000000E+000	56.0866	0.672312	33.9134	2.48657e-06
32.2387	9.96249	20.3074	22.6195	-63.8682	214.083	0.449537	0.000658474	243.102	195.944	1	11	0.0103544	0.000457765	0	7.68556e-05	0.0194716	0.0396906	0.0442096	63.8682	195944	96126.8	218253	-26.1318	0.0000000E+000	0.0000000E+000	0.0000000E+000	26.1318	0.0000000E+000	0.0000000E+000	0.0000000E+000	-26.1318	0.0000000E+000	0.0000000E+000	0.0000000E+000	-63.8682	0.0000000E+000	0.0000000E+000	0.0000000E+000	63.8682	0.490584	26.1318	1.71774e-06
21.9144	10.6257	29.2816	31.1499	-70.0552	214.514	0.449545	0.000592162	248.025	219.164	1	11	0.0103427	0.00033203	0	7.756e-05	0.0109508	0.0301773	0.0321028	70.0552	219164	79530.5	233148	-19.9448	0.0000000E+000	0.0000000E+000	0.0000000E+000	19.9448	0.0000000E+000	0.0000000E+000	0.0000000E+000	-19.9448	0.0000000E+000	0.0000000E+000	0.0000000E+000	-70.0552	0.0000000E+000	0.0000000E+000	0.0000000E+000	70.0552	0.36288	19.9449	7.04418e-07
14.9093	11.9598	41.9392	43.6111	-74.0835	214.983	0.44956	0.0016298	254.532	235.389	1	11	0.0103332	0.00023694	0	7.74257e-05	0.00628823	0.0220509	0.0229299	74.0835	235389	67125.9	244773	-15.9165	0.0000000E+000	0.0000000E+000	0.0000000E+000	15.9165	0.0000000E+000	0.0000000E+000	0.0000000E+000	-15.9165	0.0000000E+000	0.0000000E+000	0.0000000E+000	-74.0835	0.0000000E+000	0.0000000E+000	0.0000000E+000	74.0835	0.285169	15.9165	-1.34322e-07
10.1329	13.0019	60.6771	62.0545	-77.9055	215.442	0.449548	0.00100956	258.857	247.493	1	11	0.0103309	0.000166481	0	7.63389e-05	0.00337645	0.0157572	0.0161149	77.9055	247493	53032.8	253111	-12.0945	0.0000000E+000	0.0000000E+000	0.0000000E+000	12.0945	0.0000000E+000	0.0000000E+000	0.0000000E+000	-12.0945	0.0000000E+000	0.0000000E+000	0.0000000E+000	-77.9055	0.0000000E+000	0.0000000E+000	0.0000000E+000	77.9055	0.21428	12.0945	-1.08679e-06
6.88933	14.9417	88.3307	89.5856	-80.3989	215.795	0.449544	0.000493439	261.536	254.261	1	11	0.0103277	0.000115283	0	7.76795e-05	0.00186176	0.0110062	0.0111625	80.3989	254261	43009.8	257873	-9.60105	0.0000000E+000	0.0000000E+000	0.0000000E+000	9.60105	0.0000000E+000	0.0000000E+000	0.0000000E+000	-9.60105	0.0000000E+000	0.0000000E+000	0.0000000E+000	-80.3989	0.0000000E+000	0.0000000E+000	0.0000000E+000	80.3989	0.169156	9.60104	1.34058e-06
4.68375	17.9726	127.394	128.656	-81.9698	216.558	0.449563	0.000670955	266.732	261.527	1	12	0.010336	8.03386e-05	0	7.71244e-05	0.00108581	0.00769645	0.00777267	81.9698	261527	36895.9	264117	-8.03022	0.0000000E+000	0.0000000E+000	0.0000000E+000	8.03022	0.0000000E+000	0.0000000E+000	0.0000000E+000	-8.03022	0.0000000E+000	0.0000000E+000	0.0000000E+000	-81.9698	0.0000000E+000	0.0000000E+000	0.0000000E+000	81.9698	0.141079	8.03021	-5.55099e-07
3.18099	22.1559	184.978	186.3	-83.1699	217.26	0.449564	0.000760121	270.483	266.657	1	12	0.0103337	5.54681e-05	0	7.82542e-05	0.000638358	0.0053296	0.00536769	83.1699	266657	31939.1	268563	-6.83012	0.0000000E+000	0.0000000E+000	0.0000000E+000	6.83012	0.0000000E+000	0.0000000E+000	0.0000000E+000	-6.83012	0.0000000E+000	0.0000000E+000	0.0000000E+000	-83.1699	0.0000000E+000	0.0000000E+000	0.0000000E+000	83.1699	0.119776	6.83011	1.12986e-06
2.16533	27.8658	266.258	267.712	-84.0253	218.271	0.44957	0.000803693	276.054	273.063	1	12	0.0103301	3.85866e-05	0	7.86278e-05	0.000388808	0.00371506	0.00373535	84.0253	273063	28578	274554	-5.97466	0.0000000E+000	0.0000000E+000	0.0000000E+000	5.97466	0.0000000E+000	0.0000000E+000	0.0000000E+000	-5.97466	0.0000000E+000	0.0000000E+000	0.0000000E+000	-84.0253	0.0000000E+000	0.0000000E+000	0.0000000E+000	84.0253	0.104657	5.97467	3.73602e-07
1.46962	38.1879	384.841	386.731	-84.3331	220.471	0.449568	0.000606809	281.406	278.662	1	13	0.0103391	2.67346e-05	0	7.83048e-05	0.000255333	0.00257314	0.00258577	84.3331	278662	27651.8	280031	-5.66693	0.0000000E+000	0.0000000E+000	0.0000000E+000	5.66693	0.0000000E+000	0.0000000E+000	0.0000000E+000	-5.66693	0.0000000E+000	0.0000000E+000	0.0000000E+000	-84.3331	0.0000000E+000	0.0000000E+000	0.0000000E+000	84.3331	0.0992304	5.66693	-3.23e-07
1.00006	53.5295	557.512	560.075	-84.5156	222.611	0.449567	0.000611894	285.456	282.848	1	13	0.0103331	1.84495e-05	0	7.82077e-05	0.000170648	0.0017773	0.00178547	84.5156	282848	27157.7	284149	-5.48444	0.0000000E+000	0.0000000E+000	0.0000000E+000	5.48444	0.0000000E+000	0.0000000E+000	0.0000000E+000	-5.48444	0.0000000E+000	0.0000000E+000	0.0000000E+000	-84.5156	0.0000000E+000	0.0000000E+000	0.0000000E+000	84.5156	0.096015	5.48444	-9.70864e-08