File: ACS_Catal_2026/Figures_Na_K/main_figures/data/EC/20251112_2-148_alpha_reproducibility/20251112_2-148_005_gamma_reproducibility_K2_03_CVA_C01.mpt
EC-Lab ASCII FILE
Nb header lines : 66

Cyclic Voltammetry Advanced

Run on channel : 1 (SN 69187)
User :
CE vs. WE compliance from -10 V to 10 V
Electrode connection : standard
Potential control : Ewe
Ewe ctrl range : min = -1.00 V, max = 1.00 V
Safety Limits :
	Do not start on E overload
Acquisition started on : 11/12/2025 20:19:02.947
Loaded Setting File :  C:\Users\User\Documents\EC-Lab\Data\Yatsuzuka\20251030_2-147_gamma_reproducibility\20251030_2-147_001_gamma1_K_1.mps
Saved on :
	File : 20251112_2-148_005_gamma_reproducibility_K2_03_CVA_C01.mpr
	Directory : C:\Users\User\Documents\EC-Lab\Data\Yatsuzuka\20251112_2-148_alpha_reproducibility\
	Host : 192.109.209.127
Device : SP-150e (SN .003883)
Address : 192.109.209.128
EC-Lab for windows v11.52 (software)
Internet server v11.52 (firmware)
Command interpretor v11.50 (firmware)
Electrode material :
Initial state :
Electrolyte :
Comments :
Electrode surface area : 0.001 cm2
Characteristic mass : 0.001 g
Equivalent Weight : 0.000 g/eq.
Density : 0.000 g/cm3
Volume (V) : 0.001 cm3
Cycle Definition : Charge/Discharge alternance
Ei (V)              0.450
vs.                 Ref
ti (h:m:s)          0:00:10.0000
dti (s)             0.0000
dE/dt               5.000
dE/dt unit          mV/s
E1 (V)              0.700
vs.                 Ref
t1 (h:m:s)          0:00:0.0000
dt1 (s)             0.1000
Step percent        50
N                   10
E range min (V)     -1.000
E range max (V)     1.000
I Range             10 mA
I Range min         Unset
I Range max         Unset
I Range init        Unset
Bandwidth           5
E2 (V)              0.450
vs.                 Ref
t2 (h:m:s)          0:00:0.0000
dt2 (s)             0.1000
nc cycles           14
nr                  1
Reverse Scan        0
Ef (V)              0.000
vs.                 Eoc
tf (h:m:s)          0:00:0.0000
dtf (s)             0.1000

mode	ox/red	error	control changes	Ns changes	counter inc.	time/s	control/V	Ewe/V	<I>/mA	cycle number	(Q-Qo)/C	I Range	Ns	step time/s	P/W
2	0	0	0	0	0	232.362	0.449961	0.449735	-0.00572341	1	0.0000000E+000	11	0	0.000000000000000E+000	-2.57402e-06
2	1	0	1	0	0	235.014	0.463217	0.462915	0.00153862	1	4.48745e-06	11	0	2.5963	7.12252e-07
2	1	0	1	0	0	237.71	0.476699	0.476479	0.00157501	1	9.07809e-06	11	0	5.2926	7.50458e-07
2	1	0	1	0	0	240.406	0.49018	0.489945	0.00153756	1	1.36473e-05	11	0	7.9888	7.5332e-07
2	1	0	1	0	0	243.102	0.503661	0.503391	0.00149775	1	1.80026e-05	11	0	10.6851	7.53954e-07
2	1	0	1	0	0	245.799	0.517143	0.516932	0.00150514	1	2.22773e-05	11	0	13.3814	7.78054e-07
2	1	0	1	0	0	248.495	0.530624	0.530409	0.00141714	1	2.6639e-05	11	0	16.0776	7.51666e-07
2	1	0	1	0	0	251.191	0.544105	0.543847	0.0015177	1	3.11097e-05	11	0	18.7739	8.25398e-07
2	0	0	1	0	0	253.887	0.557587	0.557354	0.0015478	1	3.56565e-05	11	0	21.4702	8.62675e-07
2	1	0	1	0	0	256.584	0.571067	0.570848	0.00171752	1	4.04506e-05	11	0	24.1664	9.80443e-07
2	1	0	1	0	0	259.28	0.584549	0.584287	0.00188805	1	4.56394e-05	11	0	26.8627	1.10316e-06
2	0	0	1	0	0	261.976	0.598031	0.597825	0.00242661	1	5.17866e-05	11	0	29.559	1.45069e-06
2	1	0	1	0	0	264.672	0.611512	0.611271	0.00387463	1	6.02751e-05	11	0	32.2552	2.36845e-06
2	1	0	1	0	0	267.369	0.624993	0.624802	0.00772981	1	7.55091e-05	11	0	34.9515	4.8296e-06
2	1	0	1	0	0	270.065	0.638475	0.63829	0.017075	1	0.000107788	11	0	37.6478	1.08988e-05
2	1	0	1	0	0	272.761	0.651956	0.651751	0.0353925	1	0.000176246	11	0	40.344	2.30671e-05
2	1	0	1	0	0	275.458	0.665437	0.665259	0.066336	1	0.000310563	11	0	43.0403	4.41306e-05
2	1	0	0	0	0	278.154	0.678918	0.678676	0.113211	1	0.000549893	11	0	45.7365	7.68337e-05
2	1	0	1	0	0	280.85	0.6924	0.692188	0.176706	1	0.00093758	11	0	48.4328	0.000122314
2	1	0	1	0	0	283.329	0.695196	0.694987	0.193282	1	0.00143636	11	0	50.9116	0.000134329
2	1	0	1	0	0	286.025	0.681715	0.681509	0.131518	1	0.00186996	11	0	53.6078	8.96305e-05
2	1	0	0	0	0	288.721	0.668233	0.668011	0.0836433	1	0.00215645	11	0	56.3041	5.58746e-05
2	1	0	1	0	0	291.418	0.654751	0.654502	0.0487621	1	0.00233155	11	0	59.0004	3.19149e-05
2	1	0	1	0	0	294.114	0.641271	0.641048	0.0249882	1	0.00242792	11	0	61.6966	1.60186e-05
2	1	0	0	0	0	296.81	0.627789	0.627533	0.0112234	1	0.00247415	11	0	64.3929	7.04305e-06
2	1	0	1	0	0	299.506	0.614307	0.614096	0.00443062	1	0.00249364	11	0	67.0892	2.72083e-06
2	1	0	1	0	0	302.203	0.600827	0.60056	0.00181693	1	0.00250116	11	0	69.7854	1.09118e-06
2	1	0	0	0	0	304.899	0.587345	0.587067	0.000987369	1	0.00250423	11	0	72.4817	5.79652e-07
2	1	0	1	0	0	307.595	0.573864	0.57363	0.000519467	1	0.00250577	11	0	75.1779	2.97982e-07
2	0	0	1	0	0	310.291	0.560382	0.560133	0.000465563	1	0.00250665	11	0	77.8742	2.60777e-07
2	0	0	1	0	0	312.988	0.546902	0.546669	0.00029246	1	0.00250732	11	0	80.5704	1.59879e-07
2	0	0	1	0	0	315.684	0.53342	0.533201	0.000289241	1	0.00250778	11	0	83.2667	1.54223e-07
2	1	0	1	0	0	318.38	0.519939	0.519726	0.000314125	1	0.00250811	11	0	0.7989	1.63259e-07
2	1	0	1	0	0	321.076	0.506458	0.506204	0.000252461	1	0.0025083	11	0	0.000000000000000E+000	1.27797e-07
2	0	0	1	0	0	323.773	0.492976	0.492717	0.000151485	1	0.00250845	11	0	0.2996	7.46392e-08
2	1	0	1	0	0	326.469	0.479494	0.47926	0.000141268	1	0.0025085	11	0	0.000000000000000E+000	6.77043e-08
2	1	0	1	0	0	329.165	0.466014	0.465733	6.16331e-05	1	0.00250851	11	0	0.000000000000000E+000	2.87046e-08
2	1	0	1	0	0	331.862	0.452532	0.452258	0.000114524	1	0.00250844	11	0	0.000000000000000E+000	5.17945e-08
2	1	0	1	0	1	334.415	0.460272	0.459973	0.00120623	2	0.00251104	11	0	2.0794	5.54833e-07
2	0	0	1	0	1	337.111	0.473753	0.473497	0.00112707	2	0.00251459	11	0	4.7756	5.33664e-07
2	0	0	1	0	1	339.808	0.487234	0.486993	0.00117468	2	0.00251819	11	0	7.4719	5.72059e-07
2	1	0	0	0	1	342.504	0.500715	0.500483	0.00122278	2	0.00252174	11	0	10.1681	6.11982e-07
2	1	0	1	0	1	345.2	0.514197	0.513961	0.00120789	2	0.00252532	11	0	12.8644	6.20807e-07
2	1	0	1	0	1	347.896	0.527678	0.527436	0.00119745	2	0.00252895	11	0	15.5606	6.31576e-07
2	1	0	0	0	1	350.593	0.541159	0.540891	0.00124138	2	0.00253268	11	0	18.2569	6.71452e-07
2	1	0	1	0	1	353.289	0.554641	0.554415	0.00130969	2	0.00253647	11	0	20.9532	7.26112e-07
2	1	0	1	0	1	355.985	0.568122	0.567907	0.00138793	2	0.00254043	11	0	23.6494	7.88218e-07
2	1	0	0	0	1	358.682	0.581603	0.581348	0.001468	2	0.0025447	11	0	26.3457	8.53421e-07
2	0	0	1	0	1	361.378	0.595085	0.594841	0.00203389	2	0.00254978	11	0	29.042	1.20984e-06
2	1	0	1	0	1	364.074	0.608565	0.608358	0.00334273	2	0.00255706	11	0	31.7382	2.03358e-06
2	1	0	0	0	1	366.77	0.622047	0.621829	0.00672562	2	0.00257018	11	0	34.4345	4.18218e-06
2	1	0	1	0	1	369.467	0.635529	0.635281	0.015051	2	0.00259849	11	0	37.1308	9.56158e-06
2	1	0	1	0	1	372.163	0.64901	0.648781	0.0320357	2	0.00265997	11	0	39.827	2.07841e-05
2	1	0	0	0	1	374.859	0.662491	0.662262	0.0615627	2	0.00278348	11	0	42.5233	4.07707e-05
2	1	0	1	0	1	377.555	0.675973	0.675785	0.106107	2	0.00300641	11	0	45.2196	7.17053e-05
2	1	0	1	0	1	380.252	0.689454	0.689216	0.167393	2	0.00337194	11	0	47.9158	0.00011537
2	1	0	1	0	1	382.72	0.698192	0.697943	0.216511	2	0.00386726	11	0	50.3846	0.000151112
2	1	0	0	0	1	385.417	0.68471	0.68448	0.148286	2	0.00435459	11	0	53.0809	0.000101499
2	1	0	1	0	1	388.113	0.671229	0.671006	0.096222	2	0.00468042	11	0	55.7771	6.45655e-05
2	1	0	1	0	1	390.809	0.657748	0.657553	0.0570347	2	0.00488368	11	0	58.4734	3.75033e-05
2	1	0	1	0	1	393.505	0.644267	0.644055	0.0299526	2	0.00499778	11	0	61.1696	1.92911e-05
2	1	0	1	0	1	396.202	0.630785	0.63051	0.0138311	2	0.00505425	11	0	63.8659	8.72065e-06
2	1	0	1	0	1	398.898	0.617303	0.617069	0.00565297	2	0.00507861	11	0	66.5622	3.48828e-06
2	1	0	1	0	1	401.594	0.603823	0.603582	0.00227049	2	0.00508804	11	0	69.2584	1.37043e-06
2	1	0	1	0	1	404.291	0.590341	0.590076	0.000990094	2	0.0050917	11	0	71.9547	5.84231e-07
2	1	0	1	0	1	406.987	0.576859	0.576582	0.000570814	2	0.00509336	11	0	74.651	3.29121e-07
2	1	0	1	0	1	409.683	0.563379	0.563096	0.000434605	2	0.00509423	11	0	77.3472	2.44724e-07
2	0	0	1	0	1	412.379	0.549897	0.549646	0.000361469	2	0.0050948	11	0	80.0435	1.9868e-07
2	1	0	1	0	1	415.076	0.536415	0.53618	0.000262848	2	0.00509523	11	0	82.7398	1.40934e-07
2	1	0	1	0	1	417.772	0.522935	0.522661	0.000233796	2	0.00509558	11	0	85.436	1.22196e-07
2	1	0	1	0	1	420.468	0.509453	0.509211	0.000204349	2	0.00509578	11	0	0.0999	1.04057e-07
2	0	0	0	0	1	423.164	0.495972	0.495733	0.000133179	2	0.00509587	11	0	0.0998	6.60211e-08
2	0	0	1	0	1	425.861	0.482491	0.482184	0.000143345	2	0.00509594	11	0	0.000000000000000E+000	6.91186e-08
2	1	0	1	0	1	428.557	0.46901	0.46874	8.32654e-05	2	0.00509588	11	0	0.1997	3.90298e-08
2	1	0	0	0	1	431.253	0.455528	0.455282	0.000105616	2	0.00509574	11	0	0.2996	4.80848e-08
2	1	0	1	0	0	433.807	0.457276	0.457023	0.00115615	3	0.00509752	11	0	1.4802	5.28388e-07
2	1	0	1	0	0	436.503	0.470756	0.470463	0.00116282	3	0.00510104	11	0	4.1764	5.47064e-07
2	0	0	0	0	0	439.199	0.484238	0.484	0.00120258	3	0.00510464	11	0	6.8727	5.82049e-07
2	1	0	1	0	0	441.896	0.49772	0.497441	0.00124236	3	0.00510827	11	0	9.569	6.17999e-07
2	1	0	1	0	0	444.592	0.511201	0.510956	0.00120795	3	0.00511193	11	0	12.2652	6.17207e-07
2	1	0	0	0	0	447.288	0.524682	0.524465	0.00117092	3	0.00511554	11	0	14.9615	6.14107e-07
2	0	0	1	0	0	449.984	0.538164	0.537879	0.00121338	3	0.00511919	11	0	17.6578	6.52652e-07
2	1	0	1	0	0	452.681	0.551645	0.551412	0.00131587	3	0.00512291	11	0	20.354	7.25587e-07
2	1	0	0	0	0	455.377	0.565126	0.564935	0.00134564	3	0.00512669	11	0	23.0503	7.60197e-07
2	1	0	1	0	0	458.073	0.578607	0.578343	0.00149465	3	0.00513084	11	0	25.7465	8.64418e-07
2	1	0	1	0	0	460.769	0.592089	0.591873	0.00192293	3	0.00513578	11	0	28.4428	1.13813e-06
2	1	0	1	0	0	463.466	0.60557	0.605348	0.00300108	3	0.0051425	11	0	31.139	1.8167e-06
2	1	0	1	0	0	466.162	0.619051	0.618791	0.00567552	3	0.00515398	11	0	33.8353	3.51196e-06
2	1	0	1	0	0	468.858	0.632533	0.632278	0.0127528	3	0.00517803	11	0	36.5316	8.06329e-06
2	1	0	1	0	0	471.554	0.646014	0.645826	0.02765	3	0.00523065	11	0	39.2278	1.78571e-05
2	1	0	1	0	0	474.251	0.659495	0.659295	0.0545684	3	0.00533897	11	0	41.9241	3.59766e-05
2	1	0	1	0	0	476.947	0.672977	0.672718	0.0963825	3	0.00553937	11	0	44.6204	6.48383e-05
2	1	0	1	0	0	479.643	0.686457	0.686289	0.154602	3	0.00587421	11	0	47.3166	0.000106101
2	1	0	1	0	0	482.32	0.699839	0.699566	0.231734	3	0.00638767	11	0	49.9929	0.000162114
2	1	0	1	0	0	484.808	0.687706	0.687457	0.165578	3	0.00687839	11	0	52.4817	0.000113828
2	1	0	1	0	0	487.505	0.674224	0.674014	0.108771	3	0.00724487	11	0	55.178	7.33129e-05
2	1	0	1	0	0	490.201	0.660744	0.660499	0.0655002	3	0.00747628	11	0	57.8742	4.32628e-05
2	1	0	1	0	0	492.897	0.647262	0.647049	0.0355715	3	0.00760926	11	0	60.5705	2.30165e-05
2	1	0	1	0	0	495.593	0.63378	0.633564	0.0165361	3	0.00767674	11	0	63.2668	1.04767e-05
2	1	0	1	0	0	498.29	0.6203	0.62002	0.00685068	3	0.00770639	11	0	65.963	4.24756e-06
2	1	0	1	0	0	500.986	0.606818	0.606632	0.00270228	3	0.00771797	11	0	68.6593	1.63929e-06
2	1	0	0	0	0	503.682	0.593337	0.593112	0.0011284	3	0.00772232	11	0	71.3555	6.69267e-07
2	0	0	1	0	0	506.378	0.579856	0.579537	0.000583599	3	0.00772419	11	0	74.0518	3.38218e-07
2	1	0	1	0	0	509.075	0.566375	0.566173	0.000373476	3	0.00772512	11	0	76.748	2.11452e-07
2	0	0	0	0	0	511.771	0.552893	0.552633	0.000276356	3	0.00772566	11	0	79.4443	1.52723e-07
2	1	0	1	0	0	514.467	0.539411	0.539173	0.000210638	3	0.007726	11	0	82.1406	1.1357e-07
2	0	0	1	0	0	517.163	0.525931	0.525732	0.000242988	3	0.0077262	11	0	0.0998	1.27746e-07
2	1	0	0	0	0	519.86	0.512449	0.51217	0.000177034	3	0.00772631	11	0	0.1997	9.06712e-08
2	1	0	1	0	0	522.556	0.498968	0.498706	6.79334e-05	3	0.00772635	11	0	0.000000000000000E+000	3.38788e-08
2	1	0	1	0	0	525.252	0.485487	0.48524	0.000140533	3	0.00772628	11	0	0.000000000000000E+000	6.81925e-08
2	1	0	0	0	0	527.949	0.472005	0.471786	0.000153031	3	0.00772622	11	0	0.1997	7.2198e-08
2	0	0	1	0	0	530.645	0.458523	0.458282	4.62729e-06	3	0.00772607	11	0	0.1998	2.1206e-09
2	1	0	1	0	1	533.198	0.45428	0.454064	0.00120041	4	0.00772701	11	0	0.881	5.45064e-07
2	1	0	0	0	1	535.895	0.467761	0.467468	0.00121812	4	0.00773048	11	0	3.5773	5.6943e-07
2	1	0	1	0	1	538.591	0.481243	0.481036	0.0011335	4	0.00773398	11	0	6.2736	5.45252e-07
2	0	0	1	0	1	541.287	0.494724	0.494456	0.00109576	4	0.00773746	11	0	8.9698	5.41807e-07
2	1	0	0	0	1	543.984	0.508205	0.507929	0.00122239	4	0.00774102	11	0	11.6661	6.20885e-07
2	1	0	1	0	1	546.68	0.521686	0.521446	0.00123255	4	0.00774463	11	0	14.3623	6.42707e-07
2	1	0	1	0	1	549.376	0.535168	0.53492	0.00125343	4	0.00774825	11	0	17.0586	6.70487e-07
2	0	0	1	0	1	552.072	0.548649	0.548462	0.00131906	4	0.00775199	11	0	19.7548	7.23455e-07
2	1	0	1	0	1	554.769	0.56213	0.561889	0.00139106	4	0.00775587	11	0	22.4511	7.81625e-07
2	0	0	1	0	1	557.465	0.575612	0.575342	0.00145583	4	0.00776003	11	0	25.1474	8.37602e-07
2	1	0	1	0	1	560.161	0.589093	0.588864	0.00175676	4	0.0077647	11	0	27.8436	1.03449e-06
2	1	0	1	0	1	562.857	0.602574	0.602351	0.00262232	4	0.00777085	11	0	30.5399	1.57956e-06
2	1	0	1	0	1	565.554	0.616056	0.615813	0.00484863	4	0.00778081	11	0	33.2362	2.98585e-06
2	1	0	1	0	1	568.25	0.629537	0.629371	0.0106798	4	0.00780096	11	0	35.9324	6.72154e-06
2	1	0	1	0	1	570.946	0.643018	0.64282	0.0235116	4	0.00784526	11	0	38.6287	1.51137e-05
2	1	0	0	0	1	573.642	0.656499	0.656239	0.0474906	4	0.0079384	11	0	41.3249	3.11652e-05
2	1	0	1	0	1	576.339	0.669981	0.669716	0.085859	4	0.00811534	11	0	44.0212	5.75012e-05
2	1	0	1	0	1	579.035	0.683461	0.683315	0.140887	4	0.00841771	11	0	46.7174	9.62703e-05
2	1	0	0	0	1	581.731	0.696943	0.696667	0.213538	4	0.00889234	11	0	49.4137	0.000148765
2	1	0	0	0	1	584.2	0.690702	0.690495	0.179628	4	0.00940854	11	0	51.8825	0.000124032
2	1	0	1	0	1	586.896	0.677221	0.67696	0.119618	4	0.00980836	11	0	54.5788	8.09769e-05
2	1	0	1	0	1	589.592	0.66374	0.663497	0.0741925	4	0.0100656	11	0	57.275	4.92265e-05
2	1	0	0	0	1	592.289	0.650258	0.650032	0.0411646	4	0.0102182	11	0	59.9713	2.67583e-05
2	1	0	1	0	1	594.985	0.636777	0.636546	0.0198184	4	0.0102975	11	0	62.6676	1.26153e-05
2	1	0	1	0	1	597.681	0.623296	0.623053	0.00837604	4	0.0103332	11	0	65.3638	5.21872e-06
2	1	0	0	0	1	600.378	0.609814	0.609617	0.00322349	4	0.0103475	11	0	68.0601	1.96509e-06
2	1	0	1	0	1	603.074	0.596332	0.596119	0.00143305	4	0.010353	11	0	70.7564	8.54266e-07
2	0	0	1	0	1	605.77	0.582852	0.582586	0.000717816	4	0.0103553	11	0	73.4526	4.18189e-07
2	1	0	0	0	1	608.466	0.56937	0.569144	0.000485235	4	0.0103565	11	0	76.1489	2.76168e-07
2	1	0	1	0	1	611.163	0.555888	0.555657	0.000392407	4	0.0103573	11	0	78.8452	2.18044e-07
2	0	0	1	0	1	613.859	0.542408	0.542176	0.000316661	4	0.0103578	11	0	81.5414	1.71686e-07
2	0	0	0	0	1	616.555	0.528926	0.52875	0.000301315	4	0.0103582	11	0	84.2377	1.59321e-07
2	0	0	1	0	1	619.251	0.515445	0.515239	0.000162639	4	0.0103584	11	0	0.000000000000000E+000	8.37978e-08
2	0	0	1	0	1	621.948	0.501964	0.501693	0.000161308	4	0.0103586	11	0	0.000000000000000E+000	8.0927e-08
2	1	0	1	0	1	624.644	0.488483	0.488291	0.000145341	4	0.0103587	11	0	0.0998	7.09687e-08
2	0	0	1	0	1	627.34	0.475001	0.474774	0.000186163	4	0.0103588	11	0	0.0999	8.83854e-08
2	1	0	1	0	1	630.036	0.461519	0.46125	0.00012292	4	0.0103588	11	0	0.0999	5.66968e-08
2	1	0	1	0	0	632.59	0.451284	0.451047	0.0011556	5	0.010359	11	0	0.1997	5.2123e-07
2	0	0	1	0	0	635.286	0.464765	0.464522	0.00117203	5	0.0103626	11	0	2.896	5.44432e-07
2	1	0	1	0	0	637.983	0.478247	0.478035	0.00119164	5	0.0103663	11	0	5.5923	5.69643e-07
2	1	0	1	0	0	640.679	0.491728	0.491484	0.00125972	5	0.0103699	11	0	8.2885	6.19134e-07
2	1	0	1	0	0	643.375	0.505209	0.504905	0.00124985	5	0.0103735	11	0	10.9848	6.31055e-07
2	0	0	1	0	0	646.071	0.518691	0.518495	0.00121056	5	0.0103771	11	0	13.6811	6.27668e-07
2	1	0	1	0	0	648.768	0.532172	0.531952	0.00127466	5	0.0103808	11	0	16.3773	6.78058e-07
2	1	0	1	0	0	651.464	0.545653	0.545438	0.00117961	5	0.0103845	11	0	19.0736	6.43404e-07
2	1	0	1	0	0	654.16	0.559135	0.55893	0.0012451	5	0.0103883	11	0	21.7699	6.95926e-07
2	1	0	1	0	0	656.856	0.572616	0.572416	0.00148316	5	0.0103924	11	0	24.4661	8.48986e-07
2	1	0	1	0	0	659.553	0.586097	0.5859	0.00169345	5	0.0103969	11	0	27.1623	9.92192e-07
2	1	0	0	0	0	662.249	0.599578	0.599344	0.00234748	5	0.0104025	11	0	29.8586	1.40695e-06
2	1	0	1	0	0	664.945	0.61306	0.612822	0.00410394	5	0.0104111	11	0	32.5549	2.51498e-06
2	1	0	1	0	0	667.641	0.626541	0.626313	0.0088568	5	0.010428	11	0	35.2511	5.54713e-06
2	1	0	0	0	0	670.338	0.640022	0.639794	0.0197274	5	0.0104652	11	0	37.9474	1.26215e-05
2	1	0	1	0	0	673.034	0.653504	0.653212	0.0410893	5	0.0105448	11	0	40.6437	2.684e-05
2	1	0	1	0	0	675.73	0.666985	0.666763	0.0763849	5	0.0107002	11	0	43.3399	5.09306e-05
2	1	0	0	0	0	678.427	0.680466	0.680215	0.128275	5	0.0109729	11	0	46.0362	8.72543e-05
2	1	0	1	0	0	681.123	0.693948	0.693685	0.197554	5	0.011409	11	0	48.7325	0.00013704
2	1	0	1	0	0	683.592	0.693698	0.69344	0.197907	5	0.0119412	11	0	51.2013	0.000137237
2	1	0	1	0	0	686.288	0.680217	0.679979	0.132555	5	0.0123823	11	0	53.8975	9.01348e-05
2	1	0	0	0	0	688.984	0.666735	0.666521	0.0835632	5	0.0126697	11	0	56.5938	5.56967e-05
2	1	0	1	0	0	691.68	0.653253	0.65301	0.0474964	5	0.0128427	11	0	59.2901	3.10156e-05
2	1	0	1	0	0	694.377	0.639773	0.639576	0.0236524	5	0.0129355	11	0	61.9863	1.51275e-05
2	1	0	0	0	0	697.073	0.626291	0.626073	0.0102131	5	0.0129787	11	0	64.6826	6.39414e-06
2	1	0	1	0	0	699.769	0.61281	0.612604	0.00394274	5	0.0129964	11	0	67.3788	2.41534e-06
2	0	0	1	0	0	702.465	0.599329	0.599063	0.00166173	5	0.013003	11	0	70.0751	9.95482e-07
2	1	0	1	0	0	705.162	0.585848	0.585632	0.000751546	5	0.0130058	11	0	72.7713	4.4013e-07
2	1	0	1	0	0	707.858	0.572366	0.572116	0.000561807	5	0.0130071	11	0	75.4676	3.21419e-07
2	0	0	1	0	0	710.554	0.558885	0.558639	0.000348589	5	0.0130079	11	0	78.1639	1.94736e-07
2	0	0	1	0	0	713.25	0.545404	0.545223	0.00026858	5	0.0130084	11	0	80.8601	1.46436e-07
2	0	0	1	0	0	715.947	0.531922	0.531712	0.000269141	5	0.0130088	11	0	0.9986	1.43105e-07
2	1	0	1	0	0	718.643	0.51844	0.518177	0.000222657	5	0.0130092	11	0	0.8988	1.15376e-07
2	1	0	1	0	0	721.339	0.50496	0.504696	0.000314364	5	0.0130094	11	0	0.1997	1.58658e-07
2	1	0	1	0	0	724.036	0.491478	0.491272	0.000174309	5	0.0130095	11	0	0.1997	8.56333e-08
2	1	0	1	0	0	726.732	0.477996	0.477761	5.84579e-05	5	0.0130095	11	0	0.1998	2.79289e-08
2	1	0	1	0	0	729.428	0.464516	0.464236	0.000102388	5	0.0130094	11	0	0.0998	4.7532e-08
2	1	0	1	0	0	732.124	0.451034	0.450834	4.17075e-05	5	0.0130093	11	0	0.2996	1.88032e-08
2	1	0	1	0	1	734.678	0.46177	0.461493	0.00120268	6	0.0130124	11	0	2.2969	5.5503e-07
2	1	0	1	0	1	737.374	0.475251	0.475009	0.00114505	6	0.0130159	11	0	4.9931	5.43912e-07
2	0	0	1	0	1	740.07	0.488732	0.488495	0.00118039	6	0.0130195	11	0	7.6893	5.76615e-07
2	0	0	0	0	1	742.767	0.502213	0.50196	0.00119766	6	0.0130231	11	0	10.3856	6.0118e-07
2	1	0	1	0	1	745.463	0.515695	0.515509	0.00125619	6	0.0130267	11	0	13.0819	6.47578e-07
2	1	0	1	0	1	748.159	0.529175	0.528943	0.00128045	6	0.0130303	11	0	15.7781	6.77283e-07
2	1	0	0	0	1	750.856	0.542657	0.542382	0.00128806	6	0.0130339	11	0	18.4744	6.98621e-07
2	0	0	1	0	1	753.552	0.556139	0.555897	0.00130343	6	0.0130377	11	0	21.1707	7.24572e-07
2	1	0	1	0	1	756.248	0.56962	0.569404	0.00136781	6	0.0130416	11	0	23.8669	7.78838e-07
2	0	0	0	0	1	758.944	0.583101	0.582863	0.00151579	6	0.0130459	11	0	26.5632	8.83498e-07
2	1	0	1	0	1	761.641	0.596583	0.59637	0.00221169	6	0.0130511	11	0	29.2595	1.31899e-06
2	1	0	1	0	1	764.337	0.610064	0.609851	0.00349066	6	0.0130588	11	0	31.9557	2.12878e-06
2	1	0	0	0	1	767.033	0.623545	0.623375	0.00734997	6	0.0130731	11	0	34.652	4.58179e-06
2	1	0	1	0	1	769.729	0.637026	0.636821	0.0165052	6	0.0131041	11	0	37.3482	1.05109e-05
2	1	0	1	0	1	772.426	0.650508	0.650335	0.0352063	6	0.0131716	11	0	40.0445	2.28959e-05
2	1	0	1	0	1	775.122	0.663989	0.663759	0.0673728	6	0.013307	11	0	42.7407	4.47193e-05
2	1	0	1	0	1	777.818	0.67747	0.677204	0.115543	6	0.0135504	11	0	45.437	7.82465e-05
2	1	0	1	0	1	780.514	0.690952	0.690709	0.180999	6	0.013947	11	0	48.1333	0.000125018
2	1	0	1	0	1	782.983	0.696693	0.696446	0.215301	6	0.0144713	11	0	50.6021	0.000149946
2	1	0	1	0	1	785.679	0.683213	0.683066	0.146512	6	0.0149545	11	0	53.2983	0.000100078
2	1	0	1	0	1	788.376	0.669731	0.669475	0.0935933	6	0.0152742	11	0	55.9946	6.26584e-05
2	1	0	1	0	1	791.072	0.65625	0.655992	0.054077	6	0.0154699	11	0	58.6909	3.54741e-05
2	1	0	1	0	1	793.768	0.642769	0.642528	0.0278247	6	0.0155773	11	0	61.3871	1.78781e-05
2	1	0	1	0	1	796.465	0.629287	0.629045	0.0123606	6	0.0156287	11	0	64.0834	7.7754e-06
2	1	0	1	0	1	799.161	0.615806	0.615579	0.00483903	6	0.0156501	11	0	66.7797	2.97881e-06
2	1	0	1	0	1	801.857	0.602325	0.602132	0.00196668	6	0.0156584	11	0	69.4759	1.1842e-06
2	1	0	1	0	1	804.553	0.588843	0.588627	0.000921547	6	0.0156616	11	0	72.1722	5.42448e-07
2	1	0	1	0	1	807.25	0.575361	0.575134	0.000595271	6	0.0156632	11	0	74.8685	3.4236e-07
2	1	0	1	0	1	809.946	0.561881	0.561635	0.000421332	6	0.0156641	11	0	77.5647	2.36635e-07
2	1	0	1	0	1	812.642	0.548399	0.548114	0.000377887	6	0.0156648	11	0	80.261	2.07126e-07
2	1	0	0	0	1	815.338	0.534918	0.534699	0.000236032	6	0.0156652	11	0	82.9572	1.26206e-07
2	1	0	1	0	1	818.035	0.521437	0.521185	0.000244217	6	0.0156656	11	0	0.000000000000000E+000	1.27282e-07
2	0	0	1	0	1	820.731	0.507956	0.507715	0.000198289	6	0.0156658	11	0	0.000000000000000E+000	1.00674e-07
2	0	0	0	0	1	823.427	0.494474	0.494258	0.000140662	6	0.015666	11	0	0.000000000000000E+000	6.95232e-08
2	0	0	1	0	1	826.123	0.480993	0.480748	0.000168312	6	0.0156661	11	0	0.000000000000000E+000	8.09156e-08
2	0	0	1	0	1	828.82	0.467512	0.467248	1.33892e-05	6	0.0156662	11	0	0.0998	6.25607e-09
2	0	0	0	0	1	831.516	0.45403	0.453807	0.000116586	6	0.0156662	11	0	0.1997	5.29076e-08
2	1	0	1	0	0	834.07	0.458774	0.458577	0.00119822	7	0.0156684	11	0	1.6977	5.49477e-07
2	1	0	1	0	0	836.766	0.472255	0.472017	0.00121253	7	0.0156719	11	0	4.3939	5.72335e-07
2	1	0	0	0	0	839.462	0.485736	0.485485	0.00120059	7	0.0156755	11	0	7.0902	5.82869e-07
2	1	0	1	0	0	842.158	0.499218	0.498997	0.00122966	7	0.0156791	11	0	9.7865	6.13595e-07
2	1	0	1	0	0	844.855	0.512699	0.512448	0.0012838	7	0.0156827	11	0	12.4827	6.57879e-07
2	1	0	0	0	0	847.551	0.52618	0.525978	0.00120192	7	0.0156863	11	0	15.179	6.32182e-07
2	0	0	1	0	0	850.247	0.539662	0.539415	0.00124594	7	0.0156899	11	0	17.8753	6.72081e-07
2	1	0	1	0	0	852.943	0.553143	0.552911	0.00129087	7	0.0156937	11	0	20.5715	7.13737e-07
2	1	0	0	0	0	855.64	0.566624	0.566441	0.00141926	7	0.0156975	11	0	23.2678	8.03929e-07
2	1	0	1	0	0	858.336	0.580105	0.579816	0.00157536	7	0.0157018	11	0	25.964	9.13418e-07
2	1	0	1	0	0	861.032	0.593587	0.593308	0.00194665	7	0.0157068	11	0	28.6603	1.15496e-06
2	1	0	1	0	0	863.728	0.607068	0.606836	0.00304393	7	0.0157138	11	0	31.3565	1.84717e-06
2	1	0	1	0	0	866.425	0.620549	0.620322	0.00614853	7	0.0157259	11	0	34.0528	3.81407e-06
2	1	0	1	0	0	869.121	0.634031	0.633815	0.0137847	7	0.0157517	11	0	36.7491	8.73693e-06
2	1	0	1	0	0	871.817	0.647512	0.647343	0.0299172	7	0.0158087	11	0	39.4453	1.93667e-05
2	1	0	1	0	0	874.514	0.660993	0.660732	0.0588241	7	0.0159256	11	0	42.1416	3.88669e-05
2	1	0	1	0	0	877.21	0.674475	0.674278	0.10372	7	0.0161416	11	0	44.8379	6.99361e-05
2	1	0	1	0	0	879.906	0.687956	0.68773	0.166084	7	0.0165017	11	0	47.5341	0.000114221
2	1	0	1	0	0	882.375	0.69969	0.699452	0.234313	7	0.0169986	11	0	50.0029	0.00016389
2	1	0	1	0	0	885.071	0.686208	0.686027	0.161395	7	0.0175278	11	0	52.6992	0.000110722
2	1	0	1	0	0	887.767	0.672726	0.672476	0.104506	7	0.0178824	11	0	55.3955	7.02775e-05
2	1	0	1	0	0	890.464	0.659246	0.658995	0.0622481	7	0.018104	11	0	58.0917	4.10212e-05
2	1	0	1	0	0	893.16	0.645764	0.645543	0.0326827	7	0.0182288	11	0	60.788	2.10981e-05
2	1	0	0	0	0	895.856	0.632283	0.632079	0.0149695	7	0.0182904	11	0	63.4842	9.46189e-06
2	1	0	1	0	0	898.552	0.618802	0.618558	0.00597891	7	0.0183166	11	0	66.1805	3.6983e-06
2	1	0	1	0	0	901.249	0.605321	0.605168	0.00231027	7	0.0183267	11	0	68.8767	1.3981e-06
2	1	0	0	0	0	903.945	0.591839	0.591611	0.00104576	7	0.0183306	11	0	71.573	6.18681e-07
2	0	0	1	0	0	906.641	0.578358	0.578114	0.000642589	7	0.0183324	11	0	74.2693	3.71489e-07
2	0	0	1	0	0	909.337	0.564877	0.564697	0.000454316	7	0.0183335	11	0	76.9655	2.56551e-07
2	0	0	0	0	0	912.034	0.551395	0.551155	0.000380906	7	0.0183342	11	0	79.6618	2.09938e-07
2	1	0	1	0	0	914.73	0.537913	0.537645	0.000311423	7	0.0183347	11	0	82.3581	1.67435e-07
2	1	0	1	0	0	917.426	0.524433	0.524186	0.000276712	7	0.018335	11	0	0.0998	1.45049e-07
2	1	0	0	0	0	920.123	0.510951	0.510728	0.000235788	7	0.0183352	11	0	0.1997	1.20423e-07
2	1	0	1	0	0	922.819	0.497469	0.497215	0.000173146	7	0.0183353	11	0	0.000000000000000E+000	8.60909e-08
2	1	0	1	0	0	925.515	0.483989	0.483733	0.000215147	7	0.0183354	11	0	0.000000000000000E+000	1.04074e-07
2	0	0	0	0	0	928.211	0.470507	0.47026	0.000106131	7	0.0183354	11	0	0.0999	4.99091e-08
2	0	0	1	0	0	930.908	0.457026	0.45677	7.76014e-05	7	0.0183354	11	0	0.000000000000000E+000	3.5446e-08
2	0	0	1	0	1	933.461	0.455778	0.455529	0.00119454	8	0.0183369	11	0	1.1806	5.44148e-07
2	1	0	1	0	1	936.157	0.469259	0.469014	0.00123598	8	0.0183405	11	0	3.8768	5.79691e-07
2	1	0	1	0	1	938.854	0.48274	0.482489	0.00127422	8	0.0183442	11	0	6.5731	6.14796e-07
2	1	0	1	0	1	941.55	0.496222	0.495987	0.00124461	8	0.0183478	11	0	9.2694	6.1731e-07
2	0	0	1	0	1	944.246	0.509702	0.509484	0.0012334	8	0.0183515	11	0	11.9656	6.284e-07
2	1	0	1	0	1	946.943	0.523184	0.523004	0.0011933	8	0.0183552	11	0	14.6619	6.24103e-07
2	1	0	1	0	1	949.639	0.536666	0.536427	0.00117394	8	0.0183589	11	0	17.3582	6.29735e-07
2	1	0	1	0	1	952.335	0.550147	0.549936	0.00137445	8	0.0183627	11	0	20.0544	7.55859e-07
2	1	0	1	0	1	955.031	0.563628	0.563412	0.00139961	8	0.0183666	11	0	22.7507	7.88555e-07
2	0	0	1	0	1	957.728	0.57711	0.576864	0.00151429	8	0.0183707	11	0	25.447	8.73541e-07
2	1	0	1	0	1	960.424	0.590591	0.590363	0.00184012	8	0.0183755	11	0	28.1432	1.08634e-06
2	1	0	1	0	1	963.12	0.604072	0.603885	0.00272238	8	0.0183819	11	0	30.8395	1.64401e-06
2	1	0	1	0	1	965.816	0.617554	0.617328	0.00522145	8	0.0183924	11	0	33.5358	3.22335e-06
2	1	0	1	0	1	968.513	0.631035	0.630802	0.011522	8	0.018414	11	0	36.232	7.26809e-06
2	1	0	1	0	1	971.209	0.644516	0.644361	0.0254674	8	0.018462	11	0	38.9283	1.64102e-05
2	1	0	0	0	1	973.905	0.657997	0.65772	0.0514521	8	0.0185629	11	0	41.6245	3.38411e-05
2	1	0	1	0	1	976.601	0.671479	0.671285	0.0928825	8	0.0187539	11	0	44.3208	6.23506e-05
2	1	0	1	0	1	979.298	0.68496	0.68475	0.151392	8	0.0190798	11	0	47.017	0.000103665
2	1	0	0	0	1	981.994	0.698441	0.69822	0.228755	8	0.019589	11	0	49.7133	0.000159721
2	1	0	0	0	1	984.463	0.689204	0.68901	0.177989	8	0.0201078	11	0	52.1821	0.000122636
2	1	0	1	0	1	987.159	0.675722	0.675521	0.117294	8	0.0205016	11	0	54.8784	7.92343e-05
2	1	0	1	0	1	989.855	0.662242	0.662008	0.0711348	8	0.0207518	11	0	57.5746	4.70918e-05
2	1	0	0	0	1	992.552	0.64876	0.648569	0.0383398	8	0.0208959	11	0	60.2709	2.4866e-05
2	1	0	1	0	1	995.248	0.635278	0.63506	0.0179842	8	0.0209689	11	0	62.9672	1.14211e-05
2	1	0	1	0	1	997.944	0.621798	0.621564	0.00736319	8	0.021001	11	0	65.6634	4.5767e-06
2	1	0	0	0	1	1000.64	0.608316	0.608109	0.00286367	8	0.0210135	11	0	68.3597	1.74143e-06
2	1	0	1	0	1	1003.34	0.594834	0.594593	0.00131755	8	0.0210182	11	0	71.056	7.83405e-07
2	1	0	1	0	1	1006.03	0.581354	0.58113	0.000725573	8	0.0210203	11	0	73.7522	4.21653e-07
2	1	0	0	0	1	1008.73	0.567872	0.567669	0.000468595	8	0.0210215	11	0	76.4485	2.66007e-07
2	1	0	1	0	1	1011.43	0.554391	0.554169	0.000338641	8	0.0210222	11	0	79.1447	1.87664e-07
2	0	0	1	0	1	1014.12	0.54091	0.540674	0.000189202	8	0.0210227	11	0	81.841	1.02296e-07
2	1	0	1	0	1	1016.82	0.527429	0.527217	0.000248058	8	0.0210231	11	0	84.5372	1.3078e-07
2	1	0	1	0	1	1019.51	0.513947	0.513703	0.000270981	8	0.0210233	11	0	0.0999	1.39204e-07
2	1	0	1	0	1	1022.21	0.500466	0.500218	0.000180367	8	0.0210235	11	0	0.000000000000000E+000	9.02228e-08
2	1	0	1	0	1	1024.91	0.486985	0.486762	0.000201633	8	0.0210235	11	0	0.000000000000000E+000	9.81474e-08
2	1	0	1	0	1	1027.6	0.473503	0.473272	0.000124979	8	0.0210235	11	0	0.1997	5.91493e-08
2	1	0	1	0	1	1030.3	0.460021	0.459726	5.68584e-05	8	0.0210234	11	0	0.1998	2.61393e-08
2	1	0	1	0	0	1032.85	0.452782	0.452549	0.00121869	9	0.0210241	11	0	0.4993	5.51517e-07
2	1	0	1	0	0	1035.55	0.466263	0.466004	0.00123262	9	0.0210276	11	0	3.1956	5.74406e-07
2	1	0	1	0	0	1038.25	0.479745	0.479542	0.00126304	9	0.0210313	11	0	5.8919	6.05683e-07
2	1	0	1	0	0	1040.94	0.493226	0.493014	0.00121449	9	0.0210349	11	0	8.5881	5.98761e-07
2	0	0	1	0	0	1043.64	0.506707	0.50646	0.00130485	9	0.0210385	11	0	11.2844	6.60853e-07
2	0	0	1	0	0	1046.33	0.520189	0.519949	0.00119407	9	0.0210421	11	0	13.9807	6.20856e-07
2	0	0	1	0	0	1049.03	0.53367	0.533507	0.00117389	9	0.0210458	11	0	16.6769	6.26281e-07
2	1	0	1	0	0	1051.73	0.547151	0.546927	0.00125861	9	0.0210495	11	0	19.3732	6.88368e-07
2	1	0	0	0	0	1054.42	0.560632	0.560437	0.00130059	9	0.0210533	11	0	22.0694	7.28897e-07
2	1	0	1	0	0	1057.12	0.574114	0.573876	0.00142818	9	0.0210573	11	0	24.7657	8.196e-07
2	1	0	1	0	0	1059.82	0.587594	0.587367	0.00171116	9	0.0210618	11	0	27.4619	1.00508e-06
2	1	0	0	0	0	1062.51	0.601076	0.600827	0.00249753	9	0.0210675	11	0	30.1582	1.50058e-06
2	1	0	1	0	0	1065.21	0.614558	0.614355	0.00442697	9	0.0210766	11	0	32.8545	2.71973e-06
2	1	0	1	0	0	1067.9	0.628039	0.627789	0.00955746	9	0.0210947	11	0	35.5507	6.00006e-06
2	1	0	0	0	0	1070.6	0.64152	0.641309	0.0215229	9	0.021135	11	0	38.247	1.38028e-05
2	1	0	1	0	0	1073.3	0.655002	0.654809	0.0446489	9	0.0212216	11	0	40.9433	2.92365e-05
2	1	0	1	0	0	1075.99	0.668483	0.668288	0.0827317	9	0.02139	11	0	43.6395	5.52887e-05
2	1	0	0	0	0	1078.69	0.681964	0.681719	0.137894	9	0.0216842	11	0	46.3358	9.40049e-05
2	1	0	1	0	0	1081.39	0.695445	0.695236	0.212011	9	0.0221527	11	0	49.032	0.000147398
2	1	0	1	0	0	1083.85	0.692199	0.691978	0.1944	9	0.0226966	11	0	51.5009	0.00013452
2	1	0	1	0	0	1086.55	0.678719	0.678532	0.13071	9	0.02313	11	0	54.1971	8.86907e-05
2	1	0	0	0	0	1089.25	0.665237	0.665043	0.0803215	9	0.0234107	11	0	56.8934	5.34172e-05
2	1	0	1	0	0	1091.94	0.651756	0.651559	0.0443655	9	0.023575	11	0	59.5896	2.89068e-05
2	1	0	1	0	0	1094.64	0.638274	0.638011	0.0215404	9	0.0236608	11	0	62.2859	1.3743e-05
2	1	0	1	0	0	1097.34	0.624794	0.624554	0.00909148	9	0.0236997	11	0	64.9821	5.67813e-06
2	1	0	1	0	0	1100.03	0.611312	0.611159	0.0034934	9	0.0237151	11	0	67.6784	2.13502e-06
2	1	0	1	0	0	1102.73	0.59783	0.5976	0.00142821	9	0.023721	11	0	70.3747	8.535e-07
2	0	0	1	0	0	1105.42	0.58435	0.584145	0.00069079	9	0.0237235	11	0	73.0709	4.03522e-07
2	1	0	1	0	0	1108.12	0.570868	0.570646	0.000507765	9	0.0237248	11	0	75.7672	2.89754e-07
2	1	0	1	0	0	1110.82	0.557387	0.557188	0.000470122	9	0.0237256	11	0	78.4635	2.61946e-07
2	1	0	1	0	0	1113.51	0.543906	0.543653	0.000287384	9	0.0237263	11	0	81.1597	1.56237e-07
2	0	0	1	0	0	1116.21	0.530424	0.530207	0.000317292	9	0.0237267	11	0	83.856	1.68231e-07
2	1	0	1	0	0	1118.91	0.516942	0.516706	0.000249723	9	0.023727	11	0	86.5523	1.29033e-07
2	0	0	1	0	0	1121.6	0.503462	0.503215	0.000178074	9	0.0237273	11	0	0.0998	8.96098e-08
2	1	0	1	0	0	1124.3	0.48998	0.489779	0.000152589	9	0.0237273	11	0	0.000000000000000E+000	7.4735e-08
2	1	0	0	0	0	1126.99	0.476499	0.476249	0.000208096	9	0.0237274	11	0	0.1997	9.91057e-08
2	1	0	1	0	0	1129.69	0.463018	0.462753	0.000109638	9	0.0237273	11	0	0.000000000000000E+000	5.07352e-08
2	1	0	0	0	1	1132.29	0.450011	0.449754	-0.0018748	9	0.0237272	11	0	0.000000000000000E+000	-8.43198e-07
2	0	0	0	0	1	1134.94	0.463267	0.463012	0.00113499	10	0.0237306	11	0	2.5964	5.25514e-07
2	1	0	1	0	1	1137.64	0.476749	0.476546	0.00118717	10	0.0237342	11	0	5.2927	5.65739e-07
2	1	0	1	0	1	1140.33	0.49023	0.490016	0.00113811	10	0.0237377	11	0	7.9889	5.57689e-07
2	1	0	0	0	1	1143.03	0.503711	0.503482	0.00125228	10	0.0237412	11	0	10.6852	6.305e-07
2	1	0	1	0	1	1145.73	0.517193	0.516963	0.00124058	10	0.0237447	11	0	13.3815	6.41334e-07
2	1	0	1	0	1	1148.42	0.530674	0.530469	0.00115981	10	0.0237483	11	0	16.0777	6.15242e-07
2	0	0	0	0	1	1151.12	0.544155	0.543881	0.00122467	10	0.023752	11	0	18.774	6.66074e-07
2	1	0	1	0	1	1153.81	0.557637	0.557424	0.00128613	10	0.0237557	11	0	21.4703	7.16921e-07
2	1	0	1	0	1	1156.51	0.571118	0.570922	0.00144309	10	0.0237596	11	0	24.1665	8.23895e-07
2	1	0	0	0	1	1159.21	0.584599	0.584373	0.00167018	10	0.023764	11	0	26.8628	9.7601e-07
2	1	0	1	0	1	1161.9	0.598081	0.597879	0.00214092	10	0.0237694	11	0	29.5591	1.28001e-06
2	1	0	1	0	1	1164.6	0.611562	0.611341	0.00366527	10	0.0237774	11	0	32.2553	2.24073e-06
2	1	0	0	0	1	1167.3	0.625043	0.624836	0.0079367	10	0.0237926	11	0	34.9516	4.95914e-06
2	1	0	1	0	1	1169.99	0.638524	0.638286	0.0179918	10	0.0238263	11	0	37.6478	1.14839e-05
2	1	0	1	0	1	1172.69	0.652006	0.651817	0.0383571	10	0.0238999	11	0	40.3441	2.50018e-05
2	1	0	1	0	1	1175.38	0.665486	0.665276	0.0732273	10	0.0240471	11	0	43.0403	4.87164e-05
2	1	0	1	0	1	1178.08	0.678968	0.678767	0.124773	10	0.0243105	11	0	45.7366	8.4692e-05
2	1	0	1	0	1	1180.78	0.69245	0.6922	0.194465	10	0.0247376	11	0	48.4329	0.000134609
2	1	0	1	0	1	1183.25	0.695196	0.694941	0.211706	10	0.0252829	11	0	50.9017	0.000147123
2	1	0	1	0	1	1185.94	0.681715	0.681495	0.143568	10	0.0257576	11	0	53.5979	9.78411e-05
2	1	0	1	0	1	1188.64	0.668233	0.667986	0.0908709	10	0.02607	11	0	56.2942	6.07005e-05
2	1	0	1	0	1	1191.33	0.654751	0.654498	0.0517045	10	0.0262586	11	0	58.9905	3.38405e-05
2	1	0	1	0	1	1194.03	0.641271	0.641032	0.0256773	10	0.0263597	11	0	61.6867	1.646e-05
2	1	0	1	0	1	1196.73	0.627789	0.627564	0.0110421	10	0.0264065	11	0	64.383	6.92965e-06
2	1	0	1	0	1	1199.42	0.614307	0.614055	0.0042435	10	0.0264253	11	0	67.0793	2.60574e-06
2	1	0	1	0	1	1202.12	0.600827	0.600595	0.00170279	10	0.0264324	11	0	69.7755	1.02269e-06
2	1	0	1	0	1	1204.82	0.587345	0.587102	0.000876856	10	0.0264352	11	0	72.4718	5.14804e-07
2	1	0	0	0	1	1207.51	0.573864	0.573619	0.000540148	10	0.0264365	11	0	75.168	3.09839e-07
2	1	0	1	0	1	1210.21	0.560382	0.560184	0.000398031	10	0.0264373	11	0	77.8643	2.22971e-07
2	1	0	1	0	1	1212.9	0.546902	0.546689	0.00031778	10	0.0264379	11	0	80.5605	1.73727e-07
2	1	0	0	0	1	1215.6	0.53342	0.533233	0.000248746	10	0.0264385	11	0	83.2568	1.3264e-07
2	0	0	1	0	1	1218.3	0.519939	0.519724	0.000280686	10	0.0264389	11	0	85.9531	1.45879e-07
2	0	0	1	0	1	1220.99	0.506458	0.506232	0.000285456	10	0.0264393	11	0	88.6493	1.44507e-07
2	0	0	0	0	1	1223.69	0.492976	0.492715	0.000183071	10	0.0264396	11	0	0.000000000000000E+000	9.02017e-08
2	0	0	1	0	1	1226.39	0.479494	0.47922	0.000195432	10	0.0264398	11	0	0.000000000000000E+000	9.36551e-08
2	1	0	1	0	1	1229.08	0.466014	0.46574	0.000185496	10	0.02644	11	0	0.2996	8.63929e-08
2	1	0	0	0	1	1231.78	0.452532	0.452331	8.46319e-05	10	0.02644	11	0	0.1997	3.82816e-08
2	0	0	1	0	0	1234.33	0.460272	0.460015	0.00115795	11	0.0264427	11	0	1.9973	5.32672e-07
2	0	0	1	0	0	1237.03	0.473753	0.473487	0.00121395	11	0.0264464	11	0	4.6935	5.74788e-07
2	1	0	0	0	0	1239.72	0.487234	0.487032	0.00123446	11	0.0264502	11	0	7.3898	6.01222e-07
2	1	0	1	0	0	1242.42	0.500715	0.500472	0.00125925	11	0.0264539	11	0	10.086	6.30219e-07
2	1	0	1	0	0	1245.12	0.514197	0.513956	0.00128489	11	0.0264577	11	0	12.7823	6.60378e-07
2	1	0	1	0	0	1247.81	0.527678	0.527475	0.00130696	11	0.0264614	11	0	15.4785	6.89391e-07
2	0	0	1	0	0	1250.51	0.541159	0.540924	0.00127105	11	0.0264652	11	0	18.1748	6.87543e-07
2	1	0	1	0	0	1253.21	0.554641	0.554442	0.00130801	11	0.026469	11	0	20.8711	7.25214e-07
2	1	0	1	0	0	1255.9	0.568122	0.567931	0.00143457	11	0.0264731	11	0	23.5673	8.14736e-07
2	1	0	1	0	0	1258.6	0.581603	0.581394	0.00164235	11	0.0264776	11	0	26.2636	9.54855e-07
2	1	0	1	0	0	1261.3	0.595085	0.594856	0.00215832	11	0.0264828	11	0	28.9599	1.28389e-06
2	1	0	1	0	0	1263.99	0.608565	0.608322	0.00336219	11	0.0264902	11	0	31.6561	2.0453e-06
2	1	0	1	0	0	1266.69	0.622047	0.621791	0.00672113	11	0.0265033	11	0	34.3524	4.17913e-06
2	1	0	1	0	0	1269.38	0.635529	0.635314	0.0150739	11	0.0265316	11	0	37.0487	9.57667e-06
2	1	0	1	0	0	1272.08	0.64901	0.648807	0.0327698	11	0.0265941	11	0	39.7449	2.12613e-05
2	1	0	1	0	0	1274.78	0.662491	0.662308	0.0642923	11	0.0267221	11	0	42.4412	4.25813e-05
2	1	0	1	0	0	1277.47	0.675973	0.675741	0.112709	11	0.0269576	11	0	45.1375	7.61619e-05
2	1	0	1	0	0	1280.17	0.689454	0.689225	0.179074	11	0.0273478	11	0	47.8337	0.000123422
2	1	0	1	0	0	1282.64	0.698192	0.697964	0.231554	11	0.0278772	11	0	50.3025	0.000161617
2	1	0	1	0	0	1285.33	0.68471	0.684503	0.159276	11	0.0283997	11	0	52.9988	0.000109025
2	1	0	0	0	0	1288.03	0.671229	0.671031	0.101967	11	0.0287475	11	0	55.695	6.84233e-05
2	1	0	1	0	0	1290.73	0.657748	0.657499	0.0595046	11	0.0289615	11	0	58.3913	3.91242e-05
2	1	0	1	0	0	1293.42	0.644267	0.644065	0.0303502	11	0.0290791	11	0	61.0875	1.95475e-05
2	1	0	0	0	0	1296.12	0.630785	0.630564	0.0135888	11	0.0291355	11	0	63.7838	8.56861e-06
2	1	0	1	0	0	1298.82	0.617303	0.61706	0.0053919	11	0.029159	11	0	66.4801	3.32713e-06
2	1	0	1	0	0	1301.51	0.603823	0.603608	0.00216921	11	0.029168	11	0	69.1763	1.30935e-06
2	1	0	0	0	0	1304.21	0.590341	0.590084	0.00105577	11	0.0291716	11	0	71.8726	6.22992e-07
2	1	0	1	0	0	1306.9	0.576859	0.576597	0.000583488	11	0.0291734	11	0	74.5689	3.36437e-07
2	1	0	1	0	0	1309.6	0.563379	0.563138	0.000493169	11	0.0291744	11	0	77.2651	2.77722e-07
2	0	0	0	0	0	1312.3	0.549897	0.549638	0.000380317	11	0.0291752	11	0	79.9614	2.09036e-07
2	0	0	1	0	0	1314.99	0.536415	0.536158	0.000337006	11	0.0291758	11	0	82.6577	1.80689e-07
2	1	0	1	0	0	1317.69	0.522935	0.522713	0.00029425	11	0.0291762	11	0	85.3539	1.53808e-07
2	1	0	0	0	0	1320.39	0.509453	0.509235	0.000289314	11	0.0291765	11	0	1.7975	1.47329e-07
2	1	0	1	0	0	1323.08	0.495972	0.495719	0.000241498	11	0.0291769	11	0	0.0998	1.19715e-07
2	1	0	1	0	0	1325.78	0.482491	0.482242	0.000239357	11	0.0291771	11	0	0.0999	1.15428e-07
2	1	0	1	0	0	1328.47	0.46901	0.46875	0.000123433	11	0.0291772	11	0	0.1997	5.78591e-08
2	0	0	1	0	0	1331.17	0.455528	0.455262	5.83472e-05	11	0.0291772	11	0	0.0999	2.65632e-08
2	1	0	1	0	1	1333.72	0.457276	0.457025	0.00121575	12	0.0291791	11	0	1.4527	5.55628e-07
2	1	0	1	0	1	1336.42	0.470756	0.470551	0.00126274	12	0.0291827	11	0	4.1489	5.94185e-07
2	1	0	1	0	1	1339.12	0.484238	0.483984	0.00122739	12	0.0291864	11	0	6.8452	5.94038e-07
2	0	0	1	0	1	1341.81	0.49772	0.497449	0.00121565	12	0.0291901	11	0	9.5415	6.04723e-07
2	1	0	1	0	1	1344.51	0.511201	0.510947	0.00119921	12	0.0291938	11	0	12.2377	6.12732e-07
2	1	0	1	0	1	1347.21	0.524682	0.524455	0.00127429	12	0.0291975	11	0	14.934	6.6831e-07
2	1	0	1	0	1	1349.9	0.538164	0.537888	0.00125365	12	0.0292012	11	0	17.6303	6.74324e-07
2	0	0	1	0	1	1352.6	0.551645	0.551398	0.00128256	12	0.029205	11	0	20.3265	7.07201e-07
2	1	0	1	0	1	1355.29	0.565126	0.564914	0.00139489	12	0.029209	11	0	23.0228	7.87995e-07
2	1	0	0	0	1	1357.99	0.578607	0.578338	0.0015765	12	0.0292133	11	0	25.719	9.11751e-07
2	1	0	1	0	1	1360.69	0.592089	0.591852	0.00195535	12	0.0292182	11	0	28.4153	1.15728e-06
2	1	0	1	0	1	1363.38	0.60557	0.605374	0.00281145	12	0.0292247	11	0	31.1115	1.70198e-06
2	1	0	0	0	1	1366.08	0.619051	0.618834	0.005624	12	0.0292359	11	0	33.8078	3.48032e-06
2	1	0	1	0	1	1368.78	0.632533	0.632254	0.0125938	12	0.0292596	11	0	36.5041	7.96247e-06
2	1	0	1	0	1	1371.47	0.646014	0.645823	0.0279563	12	0.0293124	11	0	39.2003	1.80548e-05
2	1	0	0	0	1	1374.17	0.659495	0.659245	0.0563117	12	0.0294232	11	0	41.8966	3.71232e-05
2	1	0	1	0	1	1376.86	0.672977	0.672751	0.101084	12	0.0296319	11	0	44.5929	6.8004e-05
2	1	0	1	0	1	1379.56	0.686457	0.686251	0.163958	12	0.0299854	11	0	47.2891	0.000112517
2	1	0	0	0	1	1382.24	0.699839	0.699574	0.245602	12	0.0305299	11	0	49.9654	0.000171817
2	1	0	0	0	1	1384.73	0.687706	0.687485	0.174336	12	0.0310493	11	0	52.4542	0.000119853
2	1	0	1	0	1	1387.42	0.674224	0.673979	0.11311	12	0.0314325	11	0	55.1505	7.62335e-05
2	1	0	1	0	1	1390.12	0.660744	0.6605	0.0682191	12	0.0316738	11	0	57.8467	4.50587e-05
2	1	0	0	0	1	1392.81	0.647262	0.647018	0.0360769	12	0.0318108	11	0	60.543	2.33424e-05
2	1	0	1	0	1	1395.51	0.63378	0.633575	0.0164004	12	0.0318785	11	0	63.2393	1.03909e-05
2	1	0	1	0	1	1398.21	0.6203	0.620092	0.00660673	12	0.0319073	11	0	65.9355	4.09678e-06
2	1	0	0	0	1	1400.9	0.606818	0.606599	0.00260554	12	0.0319184	11	0	68.6318	1.58052e-06
2	1	0	1	0	1	1403.6	0.593337	0.593073	0.00125008	12	0.0319228	11	0	71.328	7.41386e-07
2	1	0	1	0	1	1406.3	0.579856	0.579615	0.000634146	12	0.0319248	11	0	74.0243	3.6756e-07
2	0	0	1	0	1	1408.99	0.566375	0.566164	0.000492093	12	0.0319259	11	0	76.7205	2.78605e-07
2	1	0	1	0	1	1411.69	0.552893	0.552691	0.000337982	12	0.0319266	11	0	79.4168	1.86799e-07
2	0	0	1	0	1	1414.38	0.539411	0.539168	0.00033289	12	0.0319272	11	0	82.1131	1.79484e-07
2	1	0	1	0	1	1417.08	0.525931	0.525746	0.000358141	12	0.0319277	11	0	84.8093	1.88291e-07
2	1	0	1	0	1	1419.78	0.512449	0.512197	0.000322225	12	0.0319282	11	0	87.5056	1.65043e-07
2	1	0	1	0	1	1422.47	0.498968	0.498708	0.000321258	12	0.0319286	11	0	90.2019	1.60214e-07
2	1	0	1	0	1	1425.17	0.485487	0.485252	0.00026183	12	0.0319289	11	0	92.8981	1.27054e-07
2	1	0	1	0	1	1427.87	0.472005	0.471726	0.000165621	12	0.0319292	11	0	0.1997	7.81278e-08
2	1	0	1	0	1	1430.56	0.458523	0.458261	0.000229491	12	0.0319293	11	0	0.0999	1.05167e-07
2	1	0	1	0	0	1433.12	0.45428	0.454038	0.00124305	13	0.0319305	11	0	0.881	5.64393e-07
2	0	0	1	0	0	1435.81	0.467761	0.467546	0.00128195	13	0.0319343	11	0	3.5773	5.99371e-07
2	1	0	1	0	0	1438.51	0.481243	0.481015	0.0013453	13	0.0319381	11	0	6.2736	6.47111e-07
2	1	0	1	0	0	1441.2	0.494724	0.494503	0.00131912	13	0.0319419	11	0	8.9698	6.52311e-07
2	1	0	1	0	0	1443.9	0.508205	0.507986	0.00124219	13	0.0319456	11	0	11.6661	6.31016e-07
2	1	0	0	0	0	1446.6	0.521686	0.521434	0.0012768	13	0.0319493	11	0	14.3623	6.65764e-07
2	1	0	1	0	0	1449.29	0.535168	0.534922	0.00129537	13	0.0319531	11	0	17.0586	6.92924e-07
2	1	0	1	0	0	1451.99	0.548649	0.548456	0.00131322	13	0.031957	11	0	19.7548	7.20246e-07
2	0	0	0	0	0	1454.69	0.56213	0.561908	0.00140829	13	0.0319611	11	0	22.4511	7.91332e-07
2	1	0	1	0	0	1457.38	0.575612	0.575363	0.00149641	13	0.0319653	11	0	25.1474	8.60979e-07
2	1	0	1	0	0	1460.08	0.589093	0.588832	0.00177275	13	0.0319701	11	0	27.8436	1.04385e-06
2	1	0	0	0	0	1462.77	0.602574	0.602315	0.00254553	13	0.0319762	11	0	30.5399	1.53321e-06
2	1	0	1	0	0	1465.47	0.616056	0.615857	0.0047719	13	0.0319859	11	0	33.2362	2.93881e-06
2	1	0	1	0	0	1468.17	0.629537	0.629248	0.0105526	13	0.0320058	11	0	35.9324	6.64018e-06
2	1	0	0	0	0	1470.86	0.643018	0.642855	0.0236455	13	0.0320502	11	0	38.6287	1.52006e-05
2	1	0	1	0	0	1473.56	0.656499	0.656242	0.0488516	13	0.0321452	11	0	41.3249	3.20585e-05
2	1	0	1	0	0	1476.26	0.669981	0.669734	0.0899937	13	0.0323291	11	0	44.0212	6.02718e-05
2	1	0	1	0	0	1478.95	0.683461	0.683271	0.148833	13	0.0326474	11	0	46.7174	0.000101693
2	1	0	1	0	0	1481.65	0.696943	0.696687	0.227343	13	0.0331511	11	0	49.4137	0.000158387
2	1	0	1	0	0	1484.12	0.690702	0.690515	0.192812	13	0.0337031	11	0	51.8825	0.000133139
2	1	0	1	0	0	1486.81	0.677221	0.676991	0.127384	13	0.0341307	11	0	54.5788	8.62379e-05
2	1	0	1	0	0	1489.51	0.66374	0.66353	0.0780722	13	0.034404	11	0	57.275	5.18032e-05
2	1	0	1	0	0	1492.21	0.650258	0.650066	0.0422327	13	0.0345623	11	0	59.9713	2.7454e-05
2	1	0	1	0	0	1494.9	0.636777	0.63655	0.0197432	13	0.0346426	11	0	62.6676	1.25675e-05
2	1	0	1	0	0	1497.6	0.623296	0.623077	0.00809734	13	0.0346777	11	0	65.3638	5.04527e-06
2	1	0	1	0	0	1500.29	0.609814	0.609571	0.00312947	13	0.0346915	11	0	68.0601	1.90763e-06
2	1	0	1	0	0	1502.99	0.596332	0.596112	0.00138378	13	0.0346967	11	0	70.7564	8.24887e-07
2	1	0	1	0	0	1505.69	0.582852	0.582582	0.000745366	13	0.034699	11	0	73.4526	4.34237e-07
2	1	0	1	0	0	1508.38	0.56937	0.569161	0.00046484	13	0.0347003	11	0	76.1489	2.64569e-07
2	0	0	1	0	0	1511.08	0.555888	0.555697	0.000443798	13	0.0347012	11	0	78.8452	2.46617e-07
2	1	0	1	0	0	1513.78	0.542408	0.542145	0.000385553	13	0.0347018	11	0	81.5414	2.09026e-07
2	1	0	1	0	0	1516.47	0.528926	0.528671	0.000304776	13	0.0347023	11	0	84.2377	1.61126e-07
2	1	0	0	0	0	1519.17	0.515445	0.515188	0.000317742	13	0.0347027	11	0	86.9339	1.63697e-07
2	1	0	1	0	0	1521.86	0.501964	0.501659	0.000247037	13	0.0347029	11	0	0.0999	1.23929e-07
2	0	0	1	0	0	1524.56	0.488483	0.488303	0.000226362	13	0.0347031	11	0	0.000000000000000E+000	1.10533e-07
2	0	0	0	0	0	1527.26	0.475001	0.474768	9.70749e-05	13	0.0347032	11	0	0.0999	4.6088e-08
2	0	0	1	0	0	1529.95	0.461519	0.461245	6.77794e-05	13	0.0347031	11	0	0.0999	3.12629e-08
2	0	0	1	0	1	1532.51	0.451284	0.451065	0.00109421	14	0.0347033	11	0	0.2543	4.93559e-07
2	1	0	0	0	1	1535.2	0.464765	0.464523	0.00113543	14	0.0347068	11	0	2.9506	5.27435e-07
2	0	0	1	0	1	1537.9	0.478247	0.477993	0.0011347	14	0.0347103	11	0	5.6469	5.4238e-07
2	1	0	1	0	1	1540.6	0.491728	0.491486	0.0012492	14	0.0347139	11	0	8.3431	6.13966e-07
2	1	0	0	0	1	1543.29	0.505209	0.504943	0.00118454	14	0.0347175	11	0	11.0394	5.98126e-07
2	1	0	1	0	1	1545.99	0.518691	0.518413	0.00123016	14	0.0347211	11	0	13.7357	6.37731e-07
2	0	0	1	0	1	1548.68	0.532172	0.531925	0.00122439	14	0.0347247	11	0	16.4319	6.51286e-07
2	1	0	0	0	1	1551.38	0.545653	0.545399	0.00126988	14	0.0347284	11	0	19.1282	6.92589e-07
2	1	0	1	0	1	1554.08	0.559135	0.558962	0.00130459	14	0.0347322	11	0	21.8245	7.29215e-07
2	0	0	1	0	1	1556.77	0.572616	0.572386	0.00140849	14	0.0347362	11	0	24.5207	8.06202e-07
2	1	0	1	0	1	1559.47	0.586097	0.585869	0.00162102	14	0.0347405	11	0	27.2169	9.49704e-07
2	1	0	1	0	1	1562.17	0.599578	0.599364	0.00222754	14	0.034746	11	0	29.9132	1.33511e-06
2	1	0	1	0	1	1564.86	0.61306	0.612782	0.00397488	14	0.0347544	11	0	32.6095	2.43574e-06
2	1	0	1	0	1	1567.56	0.626541	0.626356	0.00875258	14	0.034771	11	0	35.3057	5.48223e-06
2	1	0	1	0	1	1570.25	0.640022	0.639847	0.0198081	14	0.0348081	11	0	38.002	1.26741e-05
2	1	0	1	0	1	1572.95	0.653504	0.653239	0.0421239	14	0.034889	11	0	40.6983	2.7517e-05
2	1	0	1	0	1	1575.65	0.666985	0.666757	0.079785	14	0.0350502	11	0	43.3945	5.31973e-05
2	1	0	1	0	1	1578.34	0.680466	0.680253	0.135498	14	0.0353368	11	0	46.0908	9.21729e-05
2	1	0	1	0	1	1581.04	0.693948	0.693726	0.209911	14	0.0357992	11	0	48.7871	0.000145621
2	1	0	1	0	1	1583.51	0.693698	0.69347	0.210318	14	0.0363648	11	0	51.2559	0.000145849
2	1	0	1	0	1	1586.21	0.680217	0.679993	0.141078	14	0.0368338	11	0	53.9521	9.5932e-05
2	1	0	1	0	1	1588.9	0.666735	0.666463	0.0880612	14	0.0371387	11	0	56.6484	5.86895e-05
2	1	0	1	0	1	1591.6	0.653253	0.653032	0.0488293	14	0.0373193	11	0	59.3447	3.18871e-05
2	1	0	1	0	1	1594.29	0.639773	0.639538	0.0237213	14	0.0374134	11	0	62.0409	1.51707e-05
2	1	0	1	0	1	1596.99	0.626291	0.626071	0.0100513	14	0.0374561	11	0	64.7372	6.2928e-06
2	1	0	0	0	1	1599.69	0.61281	0.612601	0.00372094	14	0.037473	11	0	67.4334	2.27945e-06
2	1	0	1	0	1	1602.38	0.599329	0.599124	0.00139703	14	0.0374792	11	0	70.1297	8.36995e-07
2	0	0	1	0	1	1605.08	0.585848	0.58563	0.000679946	14	0.0374816	11	0	72.8259	3.98197e-07
2	1	0	0	0	1	1607.78	0.572366	0.572132	0.000402552	14	0.0374827	11	0	75.5222	2.30313e-07
2	1	0	1	0	1	1610.47	0.558885	0.558651	0.00036797	14	0.0374833	11	0	78.2185	2.05567e-07
2	1	0	1	0	1	1613.17	0.545404	0.545182	0.000386077	14	0.0374838	11	0	80.9147	2.10482e-07
2	0	0	0	0	1	1615.86	0.531922	0.531665	0.000342105	14	0.0374842	11	0	83.611	1.81885e-07
2	0	0	1	0	1	1618.56	0.51844	0.518195	0.000300132	14	0.0374844	11	0	0.2996	1.55527e-07
2	0	0	1	0	1	1621.26	0.50496	0.504725	0.000116631	14	0.0374845	11	0	0.000000000000000E+000	5.88664e-08
2	0	0	0	0	1	1623.95	0.491478	0.491236	5.89362e-05	14	0.0374846	11	0	0.000000000000000E+000	2.89516e-08
2	0	0	1	0	1	1626.65	0.477996	0.477771	0.000182484	14	0.0374845	11	0	0.0999	8.71853e-08
2	1	0	1	0	1	1629.35	0.464516	0.464251	0.000124624	14	0.0374845	11	0	0.000000000000000E+000	5.78566e-08
2	1	0	0	0	1	1632.04	0.451034	0.450798	3.12525e-05	14	0.0374843	11	0	0.1997	1.40886e-08
2	0	0	1	0	0	1634.6	0.46177	0.461536	0.00125297	15	0.0374874	11	0	2.2969	5.78293e-07
2	1	0	1	0	0	1637.29	0.475251	0.474997	0.00117501	15	0.037491	11	0	4.9931	5.58125e-07
2	1	0	1	0	0	1639.99	0.488732	0.488496	0.00116974	15	0.0374945	11	0	7.6893	5.71412e-07
2	1	0	1	0	0	1642.68	0.502213	0.501957	0.00120064	15	0.0374982	11	0	10.3856	6.0267e-07
2	1	0	1	0	0	1645.38	0.515695	0.515444	0.00117988	15	0.0375018	11	0	13.0819	6.08164e-07
2	1	0	1	0	0	1648.08	0.529175	0.528964	0.00111485	15	0.0375054	11	0	15.7781	5.89715e-07
2	1	0	1	0	0	1650.77	0.542657	0.54238	0.00122459	15	0.037509	11	0	18.4744	6.64196e-07
2	0	0	1	0	0	1653.47	0.556139	0.555916	0.00125417	15	0.0375127	11	0	21.1707	6.97214e-07
2	1	0	1	0	0	1656.17	0.56962	0.569423	0.00131678	15	0.0375165	11	0	23.8669	7.49806e-07
2	0	0	1	0	0	1658.86	0.583101	0.582894	0.00156527	15	0.0375208	11	0	26.5632	9.12384e-07
2	0	0	1	0	0	1661.56	0.596583	0.596402	0.00203716	15	0.0375259	11	0	29.2595	1.21496e-06
2	1	0	1	0	0	1664.25	0.610064	0.609822	0.00340666	15	0.0375333	11	0	31.9557	2.07745e-06
2	1	0	1	0	0	1666.95	0.623545	0.623301	0.00730491	15	0.0375474	11	0	34.652	4.55316e-06
2	1	0	0	0	0	1669.65	0.637026	0.63681	0.0166564	15	0.0375783	11	0	37.3482	1.0607e-05
2	1	0	1	0	0	1672.34	0.650508	0.650331	0.0362336	15	0.0376471	11	0	40.0445	2.35638e-05
2	1	0	1	0	0	1675.04	0.663989	0.663774	0.0704921	15	0.0377877	11	0	42.7407	4.67908e-05
2	1	0	0	0	0	1677.74	0.67747	0.677226	0.12248	15	0.0380445	11	0	45.437	8.29464e-05
2	1	0	1	0	0	1680.43	0.690952	0.690718	0.193026	15	0.0384664	11	0	48.1333	0.000133327
2	1	0	1	0	0	1682.9	0.696693	0.696459	0.229983	15	0.0390259	11	0	50.6021	0.000160173
2	1	0	1	0	0	1685.6	0.683213	0.683056	0.156755	15	0.039542	11	0	53.2983	0.000107072
2	1	0	0	0	0	1688.29	0.669731	0.669484	0.0995838	15	0.0398836	11	0	55.9946	6.66698e-05
2	1	0	1	0	0	1690.99	0.65625	0.656026	0.0567997	15	0.0400909	11	0	58.6909	3.7262e-05
2	1	0	1	0	0	1693.69	0.642769	0.642578	0.0282468	15	0.040202	11	0	61.3871	1.81507e-05
2	1	0	0	0	0	1696.38	0.629287	0.629091	0.0122006	15	0.0402536	11	0	64.0834	7.67531e-06
2	1	0	1	0	0	1699.08	0.615806	0.615596	0.00463411	15	0.0402745	11	0	66.7797	2.85274e-06
2	1	0	1	0	0	1701.77	0.602325	0.602071	0.00174513	15	0.0402822	11	0	69.4759	1.05069e-06
2	1	0	0	0	0	1704.47	0.588843	0.588614	0.000872217	15	0.0402852	11	0	72.1722	5.13399e-07
2	1	0	1	0	0	1707.17	0.575361	0.575128	0.00041833	15	0.0402865	11	0	74.8685	2.40593e-07
2	1	0	1	0	0	1709.86	0.561881	0.561667	0.00032094	15	0.0402872	11	0	77.5647	1.80261e-07
2	1	0	0	0	0	1712.56	0.548399	0.548166	0.00027076	15	0.0402876	11	0	80.261	1.48422e-07
2	1	0	1	0	0	1715.26	0.534918	0.534631	0.000231926	15	0.0402879	11	0	82.9572	1.23995e-07
2	1	0	1	0	0	1717.95	0.521437	0.521206	0.000272351	15	0.0402881	11	0	0.1997	1.41951e-07
2	1	0	1	0	0	1720.65	0.507956	0.507722	0.000190403	15	0.0402882	11	0	0.000000000000000E+000	9.66717e-08
2	1	0	1	0	0	1723.34	0.494474	0.494269	0.00014346	15	0.0402883	11	0	0.000000000000000E+000	7.09078e-08
2	1	0	1	0	0	1726.04	0.480993	0.480762	0.000125926	15	0.0402883	11	0	0.0999	6.05405e-08
2	1	0	1	0	0	1728.74	0.467512	0.467326	3.88931e-05	15	0.0402883	11	0	0.1997	1.81757e-08
2	1	0	1	0	0	1731.43	0.45403	0.453809	5.32669e-05	15	0.0402882	11	0	0.1997	2.4173e-08
2	1	0	1	0	0	1732.23	0.450011	0.449792	0.00024503	15	0.0402881	11	0	0.0271	1.10213e-07