File: ACS_Catal_2026/Figures_Na_K/main_figures/data/EC/20251112_2-148_alpha_reproducibility/20251112_2-148_002_alpha_reproducibility_2_K2_01_CVA_C02.mpt
EC-Lab ASCII FILE
Nb header lines : 66

Cyclic Voltammetry Advanced

Run on channel : 2 (SN 69290)
User :
CE vs. WE compliance from -10 V to 10 V
Electrode connection : standard
Potential control : Ewe
Ewe ctrl range : min = -1.00 V, max = 1.00 V
Safety Limits :
	Do not start on E overload
Acquisition started on : 11/12/2025 14:40:45.077
Loaded Setting File :  C:\Users\User\Documents\EC-Lab\Data\Yatsuzuka\20251112_2-148_alpha_reproducibility\20251112_2-148_002_alpha_reproducibility_2_K1.mps
Saved on :
	File : 20251112_2-148_002_alpha_reproducibility_2_K2_01_CVA_C02.mpr
	Directory : C:\Users\User\Documents\EC-Lab\Data\Yatsuzuka\20251112_2-148_alpha_reproducibility\
	Host : 192.109.209.127
Device : SP-150e (SN .003883)
Address : 192.109.209.128
EC-LAB for windows v11.52 (software)
Internet server v11.52 (firmware)
Command interpretor v11.50 (firmware)
Electrode material :
Initial state :
Electrolyte :
Comments :
Electrode surface area : 0.001 cm2
Characteristic mass : 0.001 g
Equivalent Weight : 0.000 g/eq.
Density : 0.000 g/cm3
Volume (V) : 0.001 cm3
Cycle Definition : Charge/Discharge alternance
Ei (V)              0.350
vs.                 Ref
ti (h:m:s)          0:00:10.0000
dti (s)             0.0000
dE/dt               10.000
dE/dt unit          mV/s
E1 (V)              0.450
vs.                 Ref
t1 (h:m:s)          0:00:0.0000
dt1 (s)             0.1000
Step percent        50
N                   10
E range min (V)     -1.000
E range max (V)     1.000
I Range             Auto
I Range min         Unset
I Range max         Unset
I Range init        Unset
Bandwidth           5
E2 (V)              0.350
vs.                 Ref
t2 (h:m:s)          0:00:0.0000
dt2 (s)             0.1000
nc cycles           9
nr                  1
Reverse Scan        0
Ef (V)              0.000
vs.                 Eoc
tf (h:m:s)          0:00:0.0000
dtf (s)             0.1000

mode	ox/red	error	control changes	Ns changes	counter inc.	time/s	control/V	Ewe/V	<I>/mA	cycle number	(Q-Qo)/C	I Range	Ns	step time/s	Pwe/W	Rwe/Ohm
2	0	0	0	0	0	0.000000000000000E+000	0.349989	0.349476	-0.000494439	1	0.0000000E+000	13	0	0.000000000000000E+000	-1.72795e-07	706814
2	1	0	1	0	0	0.4371	0.354359	0.353964	0.0418811	1	1.44537e-05	13	0	0.4096	1.48244e-05	8451.63
2	1	0	1	0	0	0.8366	0.358354	0.357903	0.040392	1	2.85257e-05	13	0	0.8091	1.44564e-05	8860.75
2	1	0	1	0	0	1.2361	0.362349	0.361946	0.0382383	1	4.25707e-05	13	0	1.2086	1.38402e-05	9465.55
2	1	0	1	0	0	1.6357	0.366345	0.365932	0.0353632	1	5.64991e-05	13	0	1.6082	1.29405e-05	10347.8
2	1	0	1	0	0	2.0352	0.370341	0.369935	0.0334093	1	7.02569e-05	13	0	2.0077	1.23592e-05	11072.8
2	1	0	1	0	0	2.4347	0.374335	0.373899	0.030747	1	8.38196e-05	13	0	2.4072	1.14963e-05	12160.5
2	1	0	1	0	0	2.8343	0.37833	0.377923	0.0285973	1	9.7204e-05	13	0	2.8068	1.08076e-05	13215.3
2	1	0	1	0	0	3.2337	0.382326	0.381896	0.0263252	1	0.000110341	13	0	3.2062	1.00535e-05	14506.9
2	1	0	1	0	0	3.6333	0.386321	0.385941	0.0253241	1	0.00012328	13	0	3.6058	9.77361e-06	15240
2	1	0	1	0	0	4.0328	0.390316	0.389915	0.024047	1	0.000136043	13	0	4.0053	9.37628e-06	16214.7
2	1	0	1	0	0	4.4323	0.394312	0.393879	0.0233543	1	0.000148596	13	0	4.4048	9.19875e-06	16865.4
2	1	0	1	0	0	4.8319	0.398307	0.397876	0.0224376	1	0.000160961	13	0	4.8044	8.92739e-06	17732.6
2	1	0	1	0	0	5.2314	0.402302	0.401846	0.0228506	1	0.000173142	13	0	5.2039	9.18243e-06	17585.8
2	1	0	1	0	0	5.6309	0.406297	0.405799	0.0229128	1	0.000185125	13	0	5.6034	9.29797e-06	17710.6
2	1	0	1	0	0	6.0305	0.410293	0.409812	0.023565	1	0.000196861	13	0	6.003	9.65723e-06	17390.7
2	1	0	1	0	0	6.43	0.414289	0.41384	0.0244036	1	0.000208485	13	0	6.4025	1.00992e-05	16958.2
2	1	0	1	0	0	6.8295	0.418283	0.417804	0.0256786	1	0.000219944	13	0	6.802	1.07286e-05	16270.6
2	1	0	1	0	0	7.2291	0.422278	0.421791	0.0268348	1	0.000231271	13	0	7.2016	1.13187e-05	15718.1
2	1	0	1	0	0	7.6285	0.426274	0.42582	0.0282947	1	0.000242432	13	0	7.601	1.20484e-05	15049.5
2	1	0	1	0	0	8.0281	0.430269	0.429822	0.0292836	1	0.00025347	13	0	8.0006	1.25867e-05	14677.9
2	1	0	1	0	0	8.4276	0.434264	0.433749	0.0310395	1	0.000264366	13	0	8.4001	1.34634e-05	13974.1
2	1	0	1	0	0	8.8271	0.438259	0.437759	0.0317946	1	0.000275151	13	0	8.7996	1.39184e-05	13768.3
2	1	0	1	0	0	9.2267	0.442255	0.441803	0.0325999	1	0.000285832	13	0	9.1992	1.44027e-05	13552.3
2	1	0	1	0	0	9.6262	0.44625	0.445763	0.0332272	1	0.000296377	13	0	9.5987	1.48115e-05	13415.6
2	1	0	1	0	0	9.999	0.450021	0.449554	0.0240509	1	0.000305953	13	0	9.9715	1.08122e-05	18691.7
2	0	0	1	0	0	10.376	0.44625	0.445756	-0.0282933	1	0.000299329	13	0	0.2997	-1.26119e-05	15754.8
2	0	0	1	0	0	10.7755	0.442255	0.441732	-0.0291675	1	0.000290536	13	0	0.6992	-1.28842e-05	15144.7
2	0	0	1	0	0	11.1751	0.438259	0.437746	-0.0294277	1	0.000281289	13	0	1.0988	-1.28819e-05	14875.3
2	0	0	1	0	0	11.5746	0.434264	0.43375	-0.0289043	1	0.000271731	13	0	1.4983	-1.25373e-05	15006.4
2	0	0	1	0	0	11.9741	0.430269	0.429748	-0.0277875	1	0.000261903	13	0	1.8978	-1.19416e-05	15465.5
2	0	0	1	0	0	12.3737	0.426274	0.425762	-0.0262472	1	0.000251813	13	0	2.2974	-1.11751e-05	16221.2
2	0	0	1	0	0	12.7731	0.422278	0.421772	-0.0248773	1	0.000241489	13	0	2.6968	-1.04926e-05	16954.1
2	0	0	1	0	0	13.1727	0.418283	0.417784	-0.0235318	1	0.000230912	13	0	3.0964	-9.83121e-06	17754
2	0	0	1	0	0	13.5722	0.414288	0.413811	-0.0223349	1	0.000220116	13	0	3.4959	-9.24245e-06	18527.5
2	0	0	1	0	0	13.9717	0.410293	0.409813	-0.0212727	1	0.000209087	13	0	3.8954	-8.71784e-06	19264.7
2	0	0	1	0	0	14.3713	0.406297	0.405847	-0.0208617	1	0.000197897	13	0	4.295	-8.46667e-06	19454.2
2	0	0	1	0	0	14.7708	0.402302	0.40184	-0.0208172	1	0.000186401	13	0	4.6945	-8.36519e-06	19303.3
2	0	0	1	0	0	15.1703	0.398307	0.397844	-0.0214194	1	0.000174628	13	0	5.094	-8.52156e-06	18574
2	0	0	1	0	0	15.5699	0.394311	0.393847	-0.022321	1	0.000162608	13	0	5.4936	-8.79106e-06	17644.7
2	0	0	1	0	0	15.9694	0.390316	0.389891	-0.0241013	1	0.00015031	13	0	5.8931	-9.39688e-06	16177.1
2	0	0	1	0	0	16.3689	0.386321	0.385831	-0.0259639	1	0.00013771	13	0	6.2926	-1.00177e-05	14860.3
2	0	0	1	0	0	16.7685	0.382326	0.381888	-0.0282727	1	0.000124843	13	0	6.6922	-1.0797e-05	13507.3
2	0	0	1	0	0	17.1679	0.37833	0.377882	-0.0308536	1	0.000111705	13	0	7.0916	-1.1659e-05	12247.6
2	0	0	1	0	0	17.5675	0.374335	0.373932	-0.0340532	1	9.82168e-05	13	0	7.4912	-1.27336e-05	10980.8
2	0	0	1	0	0	17.967	0.37034	0.369894	-0.037063	1	8.44424e-05	13	0	7.8907	-1.37094e-05	9980.13
2	0	0	1	0	0	18.3665	0.366345	0.365882	-0.0399866	1	7.0313e-05	13	0	8.2902	-1.46304e-05	9150.11
2	0	0	1	0	0	18.7661	0.362349	0.361889	-0.0426707	1	5.58857e-05	13	0	8.6898	-1.54421e-05	8480.97
2	0	0	1	0	0	19.1656	0.358354	0.357866	-0.0451542	1	4.11066e-05	13	0	9.0893	-1.61591e-05	7925.42
2	0	0	1	0	0	19.5651	0.354359	0.353901	-0.0468723	1	2.59938e-05	13	0	9.4888	-1.65882e-05	7550.32
2	0	0	1	0	0	19.9647	0.350364	0.349857	-0.0480677	1	1.0509e-05	13	0	9.8884	-1.68168e-05	7278.41
2	1	0	1	0	1	20.2909	0.352911	0.352428	0.0338818	2	1.61342e-05	13	0	0.2598	1.19409e-05	10401.7
2	1	0	1	0	1	20.6904	0.356907	0.356409	0.0370878	2	2.92605e-05	13	0	0.6593	1.32184e-05	9609.89
2	1	0	1	0	1	21.0899	0.360901	0.360456	0.0390771	2	4.27209e-05	13	0	1.0588	1.40856e-05	9224.22
2	1	0	1	0	1	21.4894	0.364895	0.364464	0.0404479	2	5.62436e-05	13	0	1.4583	1.47418e-05	9010.69
2	1	0	1	0	1	21.8889	0.368892	0.36845	0.0411801	2	6.96832e-05	13	0	1.8578	1.51728e-05	8947.3
2	1	0	1	0	1	22.2885	0.372887	0.372438	0.0411824	2	8.3009e-05	13	0	2.2574	1.53379e-05	9043.63
2	1	0	1	0	1	22.688	0.376882	0.376447	0.041125	2	9.61789e-05	13	0	2.6569	1.54814e-05	9153.71
2	1	0	1	0	1	23.0875	0.380877	0.380435	0.040614	2	0.000109175	13	0	3.0564	1.5451e-05	9367.09
2	1	0	1	0	1	23.4871	0.384873	0.384458	0.0396315	2	0.000121982	13	0	3.456	1.52366e-05	9700.81
2	1	0	1	0	1	23.8866	0.388869	0.388451	0.038487	2	0.000134618	13	0	3.8555	1.49503e-05	10093.1
2	1	0	1	0	1	24.2861	0.392863	0.392432	0.036811	2	0.000147057	13	0	4.255	1.44458e-05	10660.7
2	1	0	1	0	1	24.6857	0.396858	0.396405	0.0348671	2	0.000159339	13	0	4.6546	1.38215e-05	11369
2	1	0	1	0	1	25.0851	0.400854	0.400429	0.0328984	2	0.000171411	13	0	5.054	1.31735e-05	12171.7
2	1	0	1	0	1	25.4847	0.404849	0.404449	0.0306009	2	0.000183321	13	0	5.4536	1.23765e-05	13216.9
2	1	0	1	0	1	25.8842	0.408844	0.408378	0.0282496	2	0.00019499	13	0	5.8531	1.15365e-05	14456.1
2	1	0	1	0	1	26.2837	0.41284	0.412364	0.026204	2	0.000206562	13	0	6.2526	1.08056e-05	15736.7
2	1	0	1	0	1	26.6833	0.416835	0.416393	0.0239653	2	0.000217995	13	0	6.6522	9.97896e-06	17374.8
2	1	0	1	0	1	27.0828	0.42083	0.420407	0.0221367	2	0.000229252	13	0	7.0517	9.30642e-06	18991.4
2	1	0	1	0	1	27.4823	0.424825	0.424407	0.0207637	2	0.000240368	13	0	7.4512	8.81228e-06	20439.8
2	1	0	1	0	1	27.8819	0.428821	0.428361	0.019586	2	0.000251357	13	0	7.8508	8.38989e-06	21870.8
2	1	0	1	0	1	28.2814	0.432817	0.432368	0.0192508	2	0.000262197	13	0	8.2503	8.32343e-06	22459.8
2	1	0	1	0	1	28.6809	0.436811	0.436331	0.0190816	2	0.000272898	13	0	8.6498	8.32589e-06	22866.6
2	1	0	1	0	1	29.0805	0.440806	0.440381	0.0195079	2	0.000283518	13	0	9.0494	8.59091e-06	22574.5
2	1	0	1	0	1	29.4799	0.444802	0.444345	0.0202628	2	0.000294012	13	0	9.4488	9.00369e-06	21929.1
2	1	0	1	0	1	29.8795	0.448797	0.448284	0.0213799	2	0.000304419	13	0	9.8484	9.58424e-06	20967.6
2	0	0	1	0	1	30.2847	0.447149	0.446627	-0.0218141	2	0.000302554	13	0	0.2447	-9.74276e-06	20474.3
2	0	0	1	0	1	30.6843	0.443154	0.442624	-0.0217219	2	0.000293835	13	0	0.6443	-9.61465e-06	20376.9
2	0	0	1	0	1	31.0837	0.439158	0.438613	-0.0213485	2	0.000284651	13	0	1.0437	-9.36374e-06	20545.3
2	0	0	1	0	1	31.4833	0.435163	0.434624	-0.0205314	2	0.000275131	13	0	1.4433	-8.92344e-06	21168.7
2	0	0	1	0	1	31.8828	0.431169	0.430702	-0.0196541	2	0.000265344	13	0	1.8428	-8.46505e-06	21914.2
2	0	0	1	0	1	32.2823	0.427173	0.426665	-0.0190374	2	0.000255305	13	0	2.2423	-8.12261e-06	22411.9
2	0	0	1	0	1	32.6819	0.423177	0.422679	-0.018651	2	0.000245014	13	0	2.6419	-7.8834e-06	22662.5
2	0	0	1	0	1	33.0814	0.419182	0.418696	-0.0187772	2	0.000234473	13	0	3.0414	-7.86194e-06	22298.1
2	0	0	1	0	1	33.4809	0.415187	0.414669	-0.0193524	2	0.000223708	13	0	3.4409	-8.02483e-06	21427.3
2	0	0	1	0	1	33.8805	0.411191	0.410696	-0.020481	2	0.000212679	13	0	3.8405	-8.41147e-06	20052.5
2	0	0	1	0	1	34.28	0.407196	0.406703	-0.0214259	2	0.000201504	13	0	4.24	-8.714e-06	18981.8
2	0	0	1	0	1	34.6795	0.403201	0.402754	-0.0241042	2	0.000190042	13	0	4.6395	-9.70804e-06	16708.9
2	0	0	1	0	1	35.0791	0.399206	0.398739	-0.0267149	2	0.000178289	13	0	5.0391	-1.06523e-05	14925.7
2	0	0	1	0	1	35.4785	0.39521	0.394775	-0.0298257	2	0.000166301	13	0	5.4385	-1.17745e-05	13236.1
2	0	0	1	0	1	35.8781	0.391215	0.39077	-0.0322949	2	0.000154041	13	0	5.8381	-1.26199e-05	12100.1
2	0	0	1	0	1	36.2776	0.38722	0.386761	-0.0353787	2	0.000141502	13	0	6.2376	-1.36831e-05	10932.1
2	0	0	1	0	1	36.6771	0.383225	0.38278	-0.0379676	2	0.000128689	13	0	6.6371	-1.45332e-05	10081.8
2	0	0	1	0	1	37.0767	0.379229	0.378778	-0.0401179	2	0.000115592	13	0	7.0367	-1.51958e-05	9441.64
2	0	0	1	0	1	37.4762	0.375234	0.374754	-0.0419485	2	0.000102201	13	0	7.4362	-1.57204e-05	8933.67
2	0	0	1	0	1	37.8757	0.371239	0.370726	-0.0430442	2	8.84938e-05	13	0	7.8357	-1.59576e-05	8612.67
2	0	0	1	0	1	38.2753	0.367244	0.366782	-0.0439053	2	7.44446e-05	13	0	8.2353	-1.61037e-05	8353.94
2	0	0	1	0	1	38.6747	0.363248	0.362767	-0.0444905	2	6.00833e-05	13	0	8.6347	-1.61397e-05	8153.81
2	0	0	1	0	1	39.0743	0.359253	0.358782	-0.0438958	2	4.53674e-05	13	0	9.0343	-1.5749e-05	8173.47
2	0	0	1	0	1	39.4738	0.355259	0.354797	-0.0437917	2	3.03494e-05	13	0	9.4338	-1.55372e-05	8101.9
2	0	0	1	0	1	39.8733	0.351263	0.350752	-0.0427846	2	1.49284e-05	13	0	9.8333	-1.50068e-05	8198.1
2	1	0	1	0	0	40.2245	0.352261	0.35181	0.0312449	3	1.48203e-05	12	0	0.1948	1.09923e-05	11259.7
2	1	0	1	0	0	40.6391	0.356406	0.355997	0.0248715	3	2.84959e-05	13	0	0.6094	8.8542e-06	14313.5
2	1	0	1	0	0	41.0385	0.360402	0.359954	0.0253306	3	4.1894e-05	13	0	1.0088	9.11785e-06	14210.2
2	1	0	1	0	0	41.4381	0.364397	0.363982	0.0252825	3	5.53998e-05	13	0	1.4084	9.20237e-06	14396.6
2	1	0	1	0	0	41.8376	0.368392	0.367994	0.0258795	3	6.88167e-05	13	0	1.8079	9.52348e-06	14219.5
2	1	0	1	0	0	42.2371	0.372387	0.371972	0.0267257	3	8.21376e-05	13	0	2.2074	9.94122e-06	13918.1
2	1	0	1	0	0	42.6367	0.376383	0.375951	0.0287218	3	9.53024e-05	13	0	2.607	1.0798e-05	13089.4
2	1	0	1	0	0	43.0362	0.380378	0.37992	0.0309002	3	0.0001083	13	0	3.0065	1.17396e-05	12295.1
2	1	0	1	0	0	43.4357	0.384373	0.383897	0.0328943	3	0.000121118	13	0	3.406	1.2628e-05	11670.6
2	1	0	1	0	0	43.8353	0.388369	0.387949	0.0349807	3	0.000133768	13	0	3.8056	1.35707e-05	11090.4
2	1	0	1	0	0	44.2347	0.392364	0.391908	0.0367713	3	0.000146221	13	0	4.205	1.4411e-05	10658
2	1	0	1	0	0	44.6343	0.396359	0.395921	0.0377923	3	0.000158521	13	0	4.6046	1.49628e-05	10476.2
2	1	0	1	0	0	45.0338	0.400353	0.399926	0.0380469	3	0.000170627	13	0	5.0041	1.5216e-05	10511.4
2	1	0	1	0	0	45.4333	0.40435	0.403932	0.0369681	3	0.000182563	13	0	5.4036	1.49326e-05	10926.5
2	1	0	1	0	0	45.8329	0.408345	0.40792	0.0353587	3	0.000194247	13	0	5.8032	1.44235e-05	11536.6
2	1	0	1	0	0	46.2324	0.41234	0.411929	0.0330457	3	0.000205828	13	0	6.2027	1.36125e-05	12465.5
2	1	0	1	0	0	46.6319	0.416335	0.415888	0.0295222	3	0.000217269	13	0	6.6022	1.22779e-05	14087.3
2	1	0	1	0	0	47.0315	0.420331	0.419916	0.025971	3	0.000228529	13	0	7.0018	1.09056e-05	16168.7
2	1	0	1	0	0	47.431	0.424327	0.423892	0.0229015	3	0.000239636	13	0	7.4013	9.70777e-06	18509.4
2	1	0	1	0	0	47.8305	0.428321	0.427886	0.0207034	3	0.000250633	13	0	7.8008	8.8587e-06	20667.5
2	1	0	1	0	0	48.2301	0.432316	0.431852	0.0196457	3	0.000261489	13	0	8.2004	8.48402e-06	21982.1
2	1	0	1	0	0	48.6295	0.436312	0.435853	0.0198537	3	0.000272216	13	0	8.5998	8.65331e-06	21953.2
2	1	0	1	0	0	49.0291	0.440307	0.439831	0.021445	3	0.000282839	13	0	8.9994	9.43214e-06	20509.8
2	1	0	1	0	0	49.4286	0.444302	0.443834	0.0238793	3	0.00029334	13	0	9.3989	1.05984e-05	18586.6
2	1	0	1	0	0	49.8281	0.448297	0.447822	0.0264746	3	0.000303762	13	0	9.7984	1.18559e-05	16915.2
2	0	0	1	0	0	50.2334	0.447647	0.447183	-0.0158308	3	0.000304426	13	0	0.1948	-7.07924e-06	28247.7
2	0	0	1	0	0	50.6329	0.443653	0.443126	-0.0151983	3	0.000295795	13	0	0.5943	-6.73474e-06	29156.3
2	0	0	1	0	0	51.0325	0.439658	0.439186	-0.0158962	3	0.000286673	13	0	0.9939	-6.98137e-06	27628.5
2	0	0	1	0	0	51.4319	0.435662	0.435166	-0.0176792	3	0.000277193	13	0	1.3933	-7.69341e-06	24614.5
2	0	0	1	0	0	51.8315	0.431667	0.431178	-0.0203977	3	0.000267428	13	0	1.7929	-8.79505e-06	21138.5
2	0	0	1	0	0	52.231	0.427672	0.427233	-0.0239887	3	0.000257397	13	0	2.1924	-1.02488e-05	17809.7
2	0	0	1	0	0	52.6305	0.423677	0.423229	-0.0271885	3	0.000247107	13	0	2.5919	-1.1507e-05	15566.5
2	0	0	1	0	0	53.0301	0.419681	0.419194	-0.0304983	3	0.000236584	13	0	2.9915	-1.27847e-05	13744.8
2	0	0	1	0	0	53.4296	0.415685	0.415205	-0.033273	3	0.000225833	13	0	3.391	-1.38151e-05	12478.8
2	0	0	1	0	0	53.8291	0.411691	0.411226	-0.0351309	3	0.000214826	13	0	3.7905	-1.44467e-05	11705.5
2	0	0	1	0	0	54.2287	0.407696	0.407246	-0.035364	3	0.000203623	13	0	4.1901	-1.44019e-05	11515.8
2	0	0	1	0	0	54.6281	0.4037	0.403219	-0.0361856	3	0.000192227	13	0	4.5895	-1.45907e-05	11143.1
2	0	0	1	0	0	55.0277	0.399705	0.399241	-0.0351335	3	0.000180506	13	0	4.9891	-1.40268e-05	11363.5
2	0	0	1	0	0	55.4272	0.395711	0.395248	-0.033529	3	0.00016854	13	0	5.3886	-1.32523e-05	11788.2
2	0	0	1	0	0	55.8267	0.391715	0.391233	-0.0317823	3	0.000156305	13	0	5.7881	-1.24343e-05	12309.8
2	0	0	1	0	0	56.2263	0.387719	0.387259	-0.0297904	3	0.00014381	13	0	6.1877	-1.15366e-05	12999.5
2	0	0	1	0	0	56.6258	0.383724	0.383239	-0.0282991	3	0.000131055	13	0	6.5872	-1.08453e-05	13542.4
2	0	0	1	0	0	57.0253	0.379729	0.379231	-0.0268778	3	0.000118017	13	0	6.9867	-1.01929e-05	14109.4
2	0	0	1	0	0	57.4249	0.375733	0.37526	-0.0261463	3	0.000104675	13	0	7.3863	-9.81165e-06	14352.3
2	0	0	1	0	0	57.8244	0.371738	0.371262	-0.0262863	3	9.10239e-05	13	0	7.7858	-9.75909e-06	14123.8
2	0	0	1	0	0	58.2239	0.367743	0.36723	-0.027132	3	7.70354e-05	13	0	8.1853	-9.96368e-06	13535
2	0	0	1	0	0	58.6235	0.363748	0.36327	-0.0284444	3	6.27223e-05	13	0	8.5849	-1.0333e-05	12771.2
2	0	0	1	0	0	59.0229	0.359752	0.35927	-0.0307827	3	4.80615e-05	13	0	8.9843	-1.10593e-05	11671.2
2	0	0	1	0	0	59.4225	0.355757	0.355261	-0.0337498	3	3.30978e-05	13	0	9.3839	-1.199e-05	10526.3
2	0	0	1	0	0	59.822	0.351762	0.351269	-0.0376487	3	1.77473e-05	13	0	9.7834	-1.32248e-05	9330.18
2	1	0	1	0	1	60.1582	0.351612	0.351182	0.0261795	4	1.35435e-05	12	0	0.1299	9.19379e-06	13414.4
2	1	0	1	0	1	60.5577	0.355607	0.355165	0.0316948	4	2.6474e-05	12	0	0.5294	1.12569e-05	11205.8
2	1	0	1	0	1	60.9573	0.359603	0.359135	0.0343117	4	3.98793e-05	12	0	0.929	1.23226e-05	10466.8
2	1	0	1	0	1	61.3867	0.363897	0.363444	0.0412733	4	5.49987e-05	13	0	1.3584	1.50005e-05	8805.77
2	1	0	1	0	1	61.7863	0.367893	0.367469	0.0388402	4	6.84458e-05	13	0	1.758	1.42726e-05	9461.05
2	1	0	1	0	1	62.1858	0.371888	0.371441	0.0354874	4	8.17951e-05	13	0	2.1575	1.31815e-05	10466.8
2	1	0	1	0	1	62.5853	0.375883	0.375422	0.0314425	4	9.49742e-05	13	0	2.557	1.18042e-05	11939.9
2	1	0	1	0	1	62.9849	0.379879	0.379465	0.0280182	4	0.000107985	13	0	2.9566	1.06319e-05	13543.5
2	1	0	1	0	1	63.3844	0.383875	0.383441	0.0254503	4	0.000120816	13	0	3.3561	9.75868e-06	15066.3
2	1	0	1	0	1	63.7839	0.387869	0.387437	0.0233802	4	0.000133471	13	0	3.7556	9.05834e-06	16571.2
2	1	0	1	0	1	64.1835	0.391864	0.391443	0.0223767	4	0.000145951	13	0	4.1552	8.75921e-06	17493.3
2	1	0	1	0	1	64.5829	0.39586	0.39541	0.0231527	4	0.000158246	13	0	4.5546	9.15481e-06	17078.4
2	1	0	1	0	1	64.9825	0.399855	0.399377	0.0247386	4	0.000170366	13	0	4.9542	9.88003e-06	16143.9
2	1	0	1	0	1	65.382	0.40385	0.403437	0.0267324	4	0.000182323	13	0	5.3537	1.07849e-05	15091.7
2	1	0	1	0	1	65.7815	0.407845	0.407367	0.0278486	4	0.000194049	13	0	5.7532	1.13446e-05	14627.9
2	1	0	1	0	1	66.1811	0.411841	0.411384	0.0319703	4	0.000205622	13	0	6.1528	1.3152e-05	12867.7
2	1	0	1	0	1	66.5806	0.415836	0.415379	0.0343588	4	0.00021709	13	0	6.5523	1.42719e-05	12089.4
2	1	0	1	0	1	66.9801	0.419831	0.419379	0.0356197	4	0.000228388	13	0	6.9518	1.49382e-05	11773.8
2	1	0	1	0	1	67.3797	0.423826	0.42338	0.0356183	4	0.000239549	13	0	7.3514	1.50801e-05	11886.6
2	1	0	1	0	1	67.7791	0.427822	0.427394	0.034942	4	0.000250561	13	0	7.7508	1.4934e-05	12231.5
2	1	0	1	0	1	68.1787	0.431817	0.431374	0.0330543	4	0.000261433	13	0	8.1504	1.42588e-05	13050.5
2	1	0	1	0	1	68.5782	0.435811	0.435361	0.0304124	4	0.000272168	13	0	8.5499	1.32404e-05	14315.2
2	1	0	1	0	1	68.9777	0.439808	0.43931	0.0272505	4	0.000282782	13	0	8.9494	1.19714e-05	16121.2
2	1	0	1	0	1	69.3773	0.443803	0.443351	0.0237738	4	0.000293288	13	0	9.349	1.05402e-05	18648.7
2	1	0	1	0	1	69.7768	0.447798	0.447413	0.021221	4	0.000303705	13	0	9.7485	9.49457e-06	21083.5
2	0	0	1	0	1	70.1221	0.448747	0.448295	-0.0133584	4	0.000307623	13	0	0.05	-5.98849e-06	33559.2
2	0	0	1	0	1	70.5217	0.444752	0.444237	-0.0147132	4	0.000299238	13	0	0.4496	-6.53616e-06	30193.1
2	0	0	1	0	1	70.9211	0.440756	0.440282	-0.015263	4	0.000290232	13	0	0.849	-6.72001e-06	28846.4
2	0	0	1	0	1	71.3207	0.436761	0.436281	-0.016684	4	0.000280824	13	0	1.2486	-7.27893e-06	26149.6
2	0	0	1	0	1	71.7202	0.432766	0.432287	-0.0185496	4	0.000271148	13	0	1.6481	-8.01874e-06	23304.4
2	0	0	1	0	1	72.1197	0.428771	0.428288	-0.0217333	4	0.00026119	13	0	2.0476	-9.3081e-06	19706.6
2	0	0	1	0	1	72.5193	0.424775	0.424241	-0.0252891	4	0.000250964	13	0	2.4472	-1.07287e-05	16775.6
2	0	0	1	0	1	72.9188	0.42078	0.4203	-0.0290725	4	0.000240512	13	0	2.8467	-1.22191e-05	14457
2	0	0	1	0	1	73.3183	0.416785	0.416308	-0.0320865	4	0.000229825	13	0	3.2462	-1.33579e-05	12974.5
2	0	0	1	0	1	73.7179	0.41279	0.412276	-0.0348853	4	0.000218885	13	0	3.6458	-1.43824e-05	11818
2	0	0	1	0	1	74.1173	0.408794	0.408304	-0.0363798	4	0.00020773	13	0	4.0452	-1.4854e-05	11223.4
2	0	0	1	0	1	74.5169	0.404799	0.404322	-0.0364274	4	0.000196388	13	0	4.4448	-1.47284e-05	11099.4
2	0	0	1	0	1	74.9164	0.400805	0.400347	-0.0353933	4	0.000184753	13	0	4.8443	-1.41696e-05	11311.4
2	0	0	1	0	1	75.3159	0.396808	0.396339	-0.0337423	4	0.000172863	13	0	5.2438	-1.33734e-05	11746.1
2	0	0	1	0	1	75.7155	0.392813	0.392301	-0.0313968	4	0.000160701	13	0	5.6434	-1.2317e-05	12494.9
2	0	0	1	0	1	76.115	0.388818	0.388313	-0.0292397	4	0.000148293	13	0	6.0429	-1.13541e-05	13280.3
2	0	0	1	0	1	76.5145	0.384823	0.384349	-0.0266747	4	0.000135611	13	0	6.4424	-1.02524e-05	14408.7
2	0	0	1	0	1	76.9141	0.380827	0.380382	-0.0254587	4	0.000122643	13	0	6.842	-9.68403e-06	14941.1
2	0	0	1	0	1	77.3136	0.376832	0.376358	-0.0251311	4	0.000109388	13	0	7.2415	-9.45828e-06	14975.8
2	0	0	1	0	1	77.7131	0.372837	0.37237	-0.0261746	4	9.57969e-05	13	0	7.641	-9.74664e-06	14226.3
2	0	0	1	0	1	78.1127	0.368842	0.368378	-0.0283889	4	8.19181e-05	13	0	8.0406	-1.04578e-05	12976.2
2	0	0	1	0	1	78.5121	0.364846	0.364356	-0.0318812	4	6.77238e-05	13	0	8.44	-1.16161e-05	11428.6
2	0	0	1	0	1	78.9117	0.360851	0.360384	-0.03588	4	5.31396e-05	13	0	8.8396	-1.29306e-05	10044.2
2	0	0	1	0	1	79.3112	0.356856	0.35636	-0.0406102	4	3.82375e-05	13	0	9.2391	-1.44719e-05	8775.14
2	0	0	1	0	1	79.7107	0.352861	0.352383	-0.044041	4	2.30165e-05	13	0	9.6386	-1.55193e-05	8001.26
2	0	0	1	0	0	79.9994	0.350039	0.349553	-0.0432898	5	1.19453e-05	13	0	9.9273	-1.51321e-05	8074.72
2	1	0	1	0	0	80.4365	0.354409	0.353972	0.0332008	5	2.40843e-05	13	0	0.3596	1.17522e-05	10661.5
2	1	0	1	0	0	80.836	0.358404	0.357965	0.0381639	5	3.73893e-05	13	0	0.7591	1.36613e-05	9379.66
2	1	0	1	0	0	81.2355	0.362399	0.361931	0.0412084	5	5.088e-05	13	0	1.1586	1.49146e-05	8782.96
2	1	0	1	0	0	81.6351	0.366395	0.365912	0.0422746	5	6.43676e-05	13	0	1.5582	1.54688e-05	8655.6
2	1	0	1	0	0	82.0346	0.370391	0.36994	0.0421678	5	7.7769e-05	13	0	1.9577	1.55996e-05	8773.04
2	1	0	1	0	0	82.4341	0.374385	0.373984	0.0399474	5	9.10217e-05	13	0	2.3572	1.49397e-05	9361.9
2	1	0	1	0	0	82.8337	0.37838	0.377929	0.0366215	5	0.000104135	13	0	2.7568	1.38403e-05	10319.9
2	1	0	1	0	0	83.2331	0.382376	0.381939	0.0324206	5	0.000117026	13	0	3.1562	1.23827e-05	11780.8
2	1	0	1	0	0	83.6327	0.386371	0.385968	0.028487	5	0.000129751	13	0	3.5558	1.09951e-05	13548.9
2	1	0	1	0	0	84.0322	0.390366	0.38994	0.0251171	5	0.000142309	13	0	3.9553	9.79417e-06	15524.9
2	1	0	1	0	0	84.4317	0.394361	0.393934	0.0228905	5	0.000154655	13	0	4.3548	9.01732e-06	17209.5
2	1	0	1	0	0	84.8313	0.398357	0.39792	0.0219819	5	0.000166828	13	0	4.7544	8.74704e-06	18102.1
2	1	0	1	0	0	85.2308	0.402353	0.401908	0.0232267	5	0.000178832	13	0	5.1539	9.33498e-06	17303.8
2	1	0	1	0	0	85.6303	0.406347	0.40593	0.0254047	5	0.000190656	13	0	5.5534	1.03125e-05	15978.5
2	1	0	1	0	0	86.0299	0.410342	0.409839	0.0283504	5	0.000202246	13	0	5.953	1.16191e-05	14456.2
2	1	0	1	0	0	86.4293	0.414338	0.413869	0.0312882	5	0.000213744	13	0	6.3524	1.29492e-05	13227.6
2	1	0	1	0	0	86.8289	0.418333	0.417866	0.0337959	5	0.000225094	13	0	6.752	1.41221e-05	12364.4
2	1	0	1	0	0	87.2284	0.422327	0.421856	0.0351597	5	0.000236303	13	0	7.1515	1.48323e-05	11998.3
2	1	0	1	0	0	87.6279	0.426323	0.425825	0.0347444	5	0.000247365	13	0	7.551	1.4795e-05	12255.9
2	1	0	1	0	0	88.0275	0.430319	0.429879	0.032776	5	0.000258291	13	0	7.9506	1.40897e-05	13115.7
2	1	0	1	0	0	88.427	0.434314	0.433908	0.0299274	5	0.000269076	13	0	8.3501	1.29857e-05	14498.7
2	1	0	1	0	0	88.8265	0.438309	0.437873	0.0260851	5	0.00027974	13	0	8.7496	1.1422e-05	16786.3
2	1	0	1	0	0	89.2261	0.442305	0.441879	0.0224457	5	0.000290296	13	0	9.1492	9.91829e-06	19686.6
2	1	0	1	0	0	89.6256	0.446301	0.445834	0.0198748	5	0.000300729	13	0	9.5487	8.86086e-06	22432.2
2	1	0	1	0	0	89.9934	0.450021	0.449401	0.0301526	5	0.000310368	13	0	9.9165	1.35506e-05	14904.2
2	0	0	1	0	0	90.4303	0.445651	0.445145	-0.0273633	5	0.000302328	13	0	0.4095	-1.21806e-05	16267.9
2	0	0	1	0	0	90.8299	0.441655	0.441117	-0.0259183	5	0.000293408	13	0	0.8091	-1.1433e-05	17019.5
2	0	0	1	0	0	91.2294	0.43766	0.437152	-0.0235602	5	0.000284066	13	0	1.2086	-1.02994e-05	18554.7
2	0	0	1	0	0	91.6289	0.433665	0.433154	-0.0209607	5	0.000274442	13	0	1.6081	-9.07923e-06	20665
2	0	0	1	0	0	92.0285	0.42967	0.429132	-0.0187013	5	0.000264582	13	0	2.0077	-8.02534e-06	22946.6
2	0	0	1	0	0	92.4279	0.425674	0.425146	-0.0184436	5	0.000254445	13	0	2.4071	-7.84123e-06	23051.1
2	0	0	1	0	0	92.8275	0.421679	0.421219	-0.0186184	5	0.000244071	13	0	2.8067	-7.84241e-06	22623.8
2	0	0	1	0	0	93.227	0.417685	0.417216	-0.0205903	5	0.000233447	13	0	3.2062	-8.5906e-06	20262.8
2	0	0	1	0	0	93.6265	0.413688	0.413198	-0.0234036	5	0.000222604	13	0	3.6057	-9.67035e-06	17655.3
2	0	0	1	0	0	94.0261	0.409693	0.409205	-0.0267286	5	0.000211512	13	0	4.0053	-1.09375e-05	15309.6
2	0	0	1	0	0	94.4256	0.405698	0.405238	-0.0303528	5	0.000200242	13	0	4.4048	-1.23001e-05	13350.9
2	0	0	1	0	0	94.8251	0.401703	0.401244	-0.0341074	5	0.000188658	13	0	4.8043	-1.36854e-05	11764.1
2	0	0	1	0	0	95.2247	0.397707	0.397252	-0.0364265	5	0.000176815	13	0	5.2039	-1.44705e-05	10905.6
2	0	0	1	0	0	95.6242	0.393712	0.393187	-0.0386196	5	0.000164705	13	0	5.6034	-1.51847e-05	10181
2	0	0	1	0	0	96.0237	0.389717	0.389261	-0.0395703	5	0.000152342	13	0	6.0029	-1.54032e-05	9837.19
2	0	0	1	0	0	96.4233	0.385722	0.38523	-0.0396781	5	0.00013968	13	0	6.4025	-1.52852e-05	9708.9
2	0	0	1	0	0	96.8227	0.381726	0.381235	-0.0382766	5	0.000126772	13	0	6.8019	-1.45924e-05	9960.01
2	0	0	1	0	0	97.2223	0.377731	0.377278	-0.0368937	5	0.000113573	13	0	7.2015	-1.39192e-05	10226.1
2	0	0	1	0	0	97.6218	0.373737	0.373241	-0.0344915	5	0.00010005	13	0	7.601	-1.28736e-05	10821.2
2	0	0	1	0	0	98.0213	0.369741	0.36923	-0.03208	5	8.62355e-05	13	0	8.0005	-1.18449e-05	11509.7
2	0	0	1	0	0	98.4209	0.365745	0.365303	-0.0293476	5	7.20945e-05	13	0	8.4001	-1.07207e-05	12447.5
2	0	0	1	0	0	98.8204	0.36175	0.361266	-0.0289373	5	5.76174e-05	13	0	8.7996	-1.04541e-05	12484.5
2	0	0	1	0	0	99.2199	0.357755	0.357246	-0.029028	5	4.28159e-05	13	0	9.1991	-1.03701e-05	12306.9
2	0	0	1	0	0	99.6195	0.35376	0.353277	-0.0306902	5	2.76872e-05	13	0	9.5987	-1.08421e-05	11511.1
2	0	0	0	0	0	99.993	0.349989	0.349534	-0.0304985	5	1.30667e-05	13	0	9.9722	-1.06602e-05	11460.7
2	1	0	1	0	1	100.325	0.35331	0.352914	0.0321653	6	2.18128e-05	13	0	0.2997	1.13516e-05	10971.9
2	1	0	1	0	1	100.725	0.357305	0.356897	0.0299487	6	3.4987e-05	13	0	0.6992	1.06886e-05	11917
2	1	0	1	0	1	101.124	0.361301	0.360846	0.0267486	6	4.84456e-05	13	0	1.0988	9.65214e-06	13490.3
2	1	0	1	0	1	101.524	0.365297	0.364852	0.0251859	6	6.19351e-05	13	0	1.4983	9.18911e-06	14486.4
2	1	0	1	0	1	101.923	0.369291	0.368825	0.0251287	6	7.53279e-05	13	0	1.8978	9.26811e-06	14677.4
2	1	0	1	0	1	102.323	0.373286	0.372863	0.0271473	6	8.86029e-05	13	0	2.2974	1.01222e-05	13734.8
2	1	0	1	0	1	102.722	0.377282	0.376853	0.0302183	6	0.000101736	13	0	2.6968	1.13878e-05	12471
2	1	0	1	0	1	103.122	0.381277	0.380826	0.0338075	6	0.000114692	13	0	3.0964	1.28748e-05	11264.5
2	1	0	1	0	1	103.521	0.385272	0.384812	0.0365636	6	0.000127457	13	0	3.4959	1.40701e-05	10524.4
2	1	0	1	0	1	103.921	0.389267	0.38884	0.038948	6	0.000140056	13	0	3.8954	1.51446e-05	9983.57
2	1	0	1	0	1	104.32	0.393263	0.392831	0.039235	6	0.000152478	13	0	4.295	1.54127e-05	10012.3
2	1	0	1	0	1	104.72	0.397258	0.396822	0.0379141	6	0.00016473	13	0	4.6945	1.50452e-05	10466.3
2	1	0	1	0	1	105.119	0.401253	0.400859	0.0349568	6	0.000176785	13	0	5.094	1.40127e-05	11467.3
2	1	0	1	0	1	105.519	0.405248	0.40481	0.0312599	6	0.000188664	13	0	5.4936	1.26543e-05	12949.8
2	1	0	1	0	1	105.918	0.409244	0.408798	0.0274202	6	0.000200303	13	0	5.893	1.12093e-05	14908.6
2	1	0	1	0	1	106.318	0.413239	0.412792	0.0237948	6	0.000211832	13	0	6.2926	9.8223e-06	17348
2	1	0	1	0	1	106.718	0.417233	0.416767	0.0211335	6	0.0002232	13	0	6.6921	8.80774e-06	19720.7
2	1	0	1	0	1	107.117	0.42123	0.420791	0.0204964	6	0.000234424	13	0	7.0916	8.62472e-06	20529.9
2	1	0	1	0	1	107.517	0.425225	0.424754	0.0210439	6	0.000245495	13	0	7.4912	8.93847e-06	20184.2
2	1	0	1	0	1	107.916	0.42922	0.428747	0.0228782	6	0.000256449	13	0	7.8907	9.80896e-06	18740.4
2	1	0	1	0	1	108.316	0.433215	0.432774	0.0254572	6	0.000267254	13	0	8.2902	1.10172e-05	17000.1
2	1	0	1	0	1	108.715	0.437211	0.436728	0.0291321	6	0.000277941	13	0	8.6898	1.27228e-05	14991.3
2	1	0	1	0	1	109.115	0.441207	0.440801	0.0323606	6	0.000288546	13	0	9.0893	1.42646e-05	13621.5
2	1	0	1	0	1	109.514	0.445201	0.444729	0.0335693	6	0.000299022	13	0	9.4888	1.49292e-05	13248.1
2	1	0	1	0	1	109.914	0.449196	0.448736	0.0332011	6	0.000309412	13	0	9.8884	1.48986e-05	13515.7
2	0	0	1	0	1	110.219	0.447748	0.447294	-0.0166803	6	0.000307736	13	0	0.1499	-7.46102e-06	26815.7
2	0	0	1	0	1	110.619	0.443753	0.443282	-0.0217981	6	0.000299105	13	0	0.5494	-9.66273e-06	20335.8
2	0	0	1	0	1	111.018	0.439758	0.43926	-0.0268086	6	0.00028997	13	0	0.949	-1.1776e-05	16385.1
2	0	0	1	0	1	111.418	0.435762	0.435248	-0.0300946	6	0.000280477	13	0	1.3484	-1.30986e-05	14462.7
2	0	0	1	0	1	111.817	0.431767	0.431266	-0.0321052	6	0.000270696	13	0	1.748	-1.38459e-05	13432.9
2	0	0	1	0	1	112.217	0.427772	0.427274	-0.0320207	6	0.000260661	13	0	2.1475	-1.36816e-05	13343.7
2	0	0	1	0	1	112.616	0.423777	0.423269	-0.0303893	6	0.000250372	13	0	2.547	-1.28628e-05	13928.2
2	0	0	1	0	1	113.016	0.419781	0.419277	-0.0274848	6	0.000239869	13	0	2.9466	-1.15237e-05	15254.9
2	0	0	1	0	1	113.415	0.415786	0.41526	-0.0242106	6	0.000229142	13	0	3.3461	-1.00537e-05	17152
2	0	0	1	0	1	113.815	0.411791	0.411293	-0.0213795	6	0.000218168	13	0	3.7456	-8.79325e-06	19237.7
2	0	0	1	0	1	114.214	0.407795	0.407298	-0.0200367	6	0.00020699	13	0	4.1452	-8.16092e-06	20327.6
2	0	0	1	0	1	114.614	0.4038	0.40332	-0.0205667	6	0.000195642	13	0	4.5447	-8.29497e-06	19610.3
2	0	0	1	0	1	115.013	0.399805	0.399339	-0.0228725	6	0.000183954	13	0	4.9442	-9.13387e-06	17459.4
2	0	0	1	0	1	115.413	0.39581	0.395323	-0.02667	6	0.000172037	13	0	5.3438	-1.05433e-05	14822.8
2	0	0	1	0	1	115.812	0.391814	0.391375	-0.031572	6	0.000159817	13	0	5.7432	-1.23565e-05	12396.3
2	0	0	1	0	1	116.212	0.387819	0.387358	-0.0359689	6	0.00014734	13	0	6.1428	-1.39328e-05	10769.2
2	0	0	1	0	1	116.612	0.383824	0.383371	-0.0392999	6	0.000134592	13	0	6.5423	-1.50664e-05	9755.02
2	0	0	1	0	1	117.011	0.379829	0.379344	-0.0411169	6	0.00012154	13	0	6.9418	-1.55974e-05	9226
2	0	0	1	0	1	117.411	0.375833	0.375354	-0.0414615	6	0.00010819	13	0	7.3414	-1.55627e-05	9053.07
2	0	0	1	0	1	117.81	0.371838	0.371352	-0.040088	6	9.45445e-05	13	0	7.7409	-1.48868e-05	9263.42
2	0	0	1	0	1	118.21	0.367843	0.367326	-0.0373655	6	8.05644e-05	13	0	8.1404	-1.37253e-05	9830.6
2	0	0	1	0	1	118.609	0.363848	0.363322	-0.0340093	6	6.62766e-05	13	0	8.54	-1.23563e-05	10683
2	0	0	1	0	1	119.009	0.359852	0.359356	-0.0313977	6	5.16475e-05	13	0	8.9394	-1.12829e-05	11445.3
2	0	0	1	0	1	119.408	0.355857	0.355351	-0.0294141	6	3.67346e-05	13	0	9.339	-1.04523e-05	12081
2	0	0	1	0	1	119.808	0.351863	0.351394	-0.0297879	6	2.14341e-05	13	0	9.7385	-1.04673e-05	11796.5
2	1	0	1	0	0	120.089	0.350963	0.3505	0.027966	7	1.55008e-05	13	0	0.065	9.80208e-06	12533.1
2	1	0	1	0	0	120.533	0.355408	0.355002	0.0261175	7	2.98316e-05	13	0	0.5094	9.27178e-06	13592.5
2	1	0	1	0	0	120.933	0.359403	0.358968	0.0249138	7	4.31694e-05	13	0	0.909	8.94327e-06	14408.4
2	1	0	1	0	0	121.333	0.363398	0.362946	0.0254164	7	5.66441e-05	13	0	1.3085	9.22477e-06	14280
2	1	0	1	0	0	121.732	0.367393	0.366907	0.0269595	7	7.00828e-05	13	0	1.708	9.89165e-06	13609.5
2	1	0	1	0	0	122.132	0.371389	0.370896	0.0297809	7	8.3438e-05	13	0	2.1076	1.10456e-05	12454.2
2	1	0	1	0	0	122.531	0.375385	0.374896	0.0334961	7	9.66311e-05	13	0	2.5071	1.25575e-05	11192.2
2	1	0	1	0	0	122.931	0.379379	0.378922	0.0369714	7	0.000109671	13	0	2.9066	1.40093e-05	10249.1
2	1	0	1	0	0	123.33	0.383374	0.382945	0.0393573	7	0.000122528	13	0	3.3062	1.50717e-05	9729.96
2	1	0	1	0	0	123.73	0.38737	0.386926	0.0399728	7	0.000135205	13	0	3.7056	1.54665e-05	9679.73
2	1	0	1	0	0	124.129	0.391365	0.390932	0.0382106	7	0.000147724	13	0	4.1052	1.49378e-05	10231
2	1	0	1	0	0	124.529	0.39536	0.394922	0.0349203	7	0.000160036	13	0	4.5047	1.37908e-05	11309.3
2	1	0	1	0	0	124.928	0.399355	0.398904	0.0304094	7	0.000172169	13	0	4.9042	1.21305e-05	13117.8
2	1	0	1	0	0	125.328	0.403351	0.402967	0.0257711	7	0.000184143	13	0	5.3038	1.03849e-05	15636.4
2	1	0	1	0	0	125.727	0.407346	0.406957	0.0224191	7	0.00019592	13	0	5.7033	9.12362e-06	18152.2
2	1	0	1	0	0	126.127	0.411341	0.410854	0.0207886	7	0.000207443	13	0	6.1028	8.54106e-06	19763.5
2	1	0	1	0	0	126.526	0.415337	0.414908	0.0213911	7	0.000218901	13	0	6.5024	8.87534e-06	19396.3
2	1	0	1	0	0	126.926	0.419333	0.418855	0.023585	7	0.000230188	13	0	6.9019	9.8787e-06	17759.4
2	1	0	1	0	0	127.325	0.423327	0.422844	0.0265804	7	0.000241347	13	0	7.3014	1.12393e-05	15908.1
2	1	0	1	0	0	127.725	0.427322	0.426846	0.0298907	7	0.000252357	13	0	7.701	1.27587e-05	14280.2
2	1	0	1	0	0	128.124	0.431318	0.430819	0.0326508	7	0.000263233	13	0	8.1004	1.40666e-05	13194.8
2	1	0	1	0	0	128.524	0.435313	0.434856	0.034043	7	0.000273996	13	0	8.5	1.48038e-05	12773.7
2	1	0	1	0	0	128.924	0.439308	0.438831	0.0334964	7	0.000284634	13	0	8.8995	1.46992e-05	13100.9
2	1	0	1	0	0	129.323	0.443303	0.442813	0.0308957	7	0.00029516	13	0	9.299	1.3681e-05	14332.5
2	1	0	1	0	0	129.723	0.447299	0.446852	0.0274275	7	0.000305589	13	0	9.6986	1.22561e-05	16292.1
2	0	0	1	0	0	130.083	0.449097	0.448605	-0.0173557	7	0.000311276	13	0	0.0649	-7.78584e-06	25847.7
2	0	0	1	0	0	130.527	0.444653	0.444176	-0.0285172	7	0.000301994	13	0	0.5094	-1.26666e-05	15575.7
2	0	0	1	0	0	130.927	0.440657	0.440153	-0.030432	7	0.000292931	13	0	0.9089	-1.33948e-05	14463.5
2	0	0	1	0	0	131.326	0.436661	0.436134	-0.0299392	7	0.000283493	13	0	1.3085	-1.30575e-05	14567.3
2	0	0	1	0	0	131.726	0.432666	0.432181	-0.0283818	7	0.000273792	13	0	1.708	-1.22661e-05	15227.4
2	0	0	1	0	0	132.125	0.428671	0.428145	-0.0255337	7	0.00026383	13	0	2.1075	-1.09321e-05	16767.8
2	0	0	1	0	0	132.525	0.424675	0.424157	-0.0226242	7	0.000253606	13	0	2.5071	-9.5962e-06	18747.9
2	0	0	1	0	0	132.925	0.420679	0.420162	-0.0200117	7	0.000243165	13	0	2.9066	-8.40814e-06	20995.8
2	0	0	1	0	0	133.324	0.416685	0.416199	-0.0188007	7	0.000232495	13	0	3.3061	-7.82483e-06	22137.4
2	0	0	1	0	0	133.724	0.41269	0.412206	-0.0195573	7	0.000221587	13	0	3.7057	-8.06163e-06	21076.9
2	0	0	1	0	0	134.123	0.408694	0.408214	-0.0216286	7	0.000210451	13	0	4.1051	-8.82911e-06	18873.8
2	0	0	1	0	0	134.523	0.404699	0.404235	-0.0249714	7	0.000199139	13	0	4.5047	-1.00943e-05	16187.9
2	0	0	1	0	0	134.922	0.400704	0.400303	-0.0292849	7	0.000187519	13	0	4.9042	-1.17228e-05	13669.3
2	0	0	1	0	0	135.322	0.396709	0.396265	-0.0335661	7	0.000175636	13	0	5.3037	-1.33011e-05	11805.5
2	0	0	1	0	0	135.721	0.392713	0.392277	-0.0373364	7	0.000163467	13	0	5.7033	-1.46462e-05	10506.6
2	0	0	1	0	0	136.121	0.388718	0.388257	-0.0394738	7	0.000151046	13	0	6.1028	-1.5326e-05	9835.81
2	0	0	1	0	0	136.52	0.384723	0.384223	-0.0392582	7	0.00013835	13	0	6.5023	-1.50839e-05	9787.06
2	0	0	1	0	0	136.92	0.380728	0.380229	-0.0374414	7	0.00012538	13	0	6.9019	-1.42363e-05	10155.3
2	0	0	1	0	0	137.319	0.376732	0.376254	-0.0347454	7	0.000112121	13	0	7.3013	-1.30731e-05	10828.9
2	0	0	1	0	0	137.719	0.372737	0.372201	-0.0313286	7	9.85311e-05	13	0	7.7009	-1.16605e-05	11880.6
2	0	0	1	0	0	138.118	0.368743	0.368298	-0.0284571	7	8.46657e-05	13	0	8.1004	-1.04807e-05	12942.2
2	0	0	1	0	0	138.518	0.364747	0.364277	-0.0272618	7	7.04805e-05	13	0	8.4999	-9.93083e-06	13362.2
2	0	0	1	0	0	138.917	0.360751	0.360312	-0.027715	7	5.5928e-05	13	0	8.8995	-9.98605e-06	13000.6
2	0	0	1	0	0	139.317	0.356756	0.356284	-0.0305038	7	4.10632e-05	13	0	9.299	-1.0868e-05	11680
2	0	0	1	0	0	139.716	0.352761	0.352288	-0.0345082	7	2.58883e-05	13	0	9.6985	-1.21568e-05	10208.8
2	0	0	1	0	1	140.023	0.350314	0.34987	0.00429291	8	1.5171e-05	13	0	0.000000000000000E+000	1.50196e-06	81499.6
2	1	0	1	0	1	140.482	0.354908	0.35449	0.0422155	8	2.92441e-05	13	0	0.4595	1.49649e-05	8397.15
2	1	0	1	0	1	140.882	0.358903	0.35845	0.0417475	8	4.25928e-05	13	0	0.859	1.49644e-05	8586.14
2	1	0	1	0	1	141.281	0.362899	0.362479	0.0381407	8	5.60808e-05	13	0	1.2586	1.38252e-05	9503.73
2	1	0	1	0	1	141.681	0.366894	0.366456	0.0338072	8	6.9532e-05	13	0	1.6581	1.23889e-05	10839.6
2	1	0	1	0	1	142.08	0.370889	0.370463	0.0290352	8	8.28874e-05	13	0	2.0576	1.07565e-05	12759.1
2	1	0	1	0	1	142.48	0.374884	0.374489	0.0254778	8	9.60851e-05	13	0	2.4572	9.54115e-06	14698.7
2	1	0	1	0	1	142.879	0.37888	0.378459	0.0238884	8	0.000109118	13	0	2.8566	9.04079e-06	15842.8
2	1	0	1	0	1	143.279	0.382875	0.382442	0.025431	8	0.000121962	13	0	3.2562	9.72589e-06	15038.4
2	1	0	1	0	1	143.678	0.386869	0.386427	0.028352	8	0.000134638	13	0	3.6557	1.0956e-05	13629.6
2	1	0	1	0	1	144.078	0.390866	0.39043	0.0319173	8	0.000147168	13	0	4.0552	1.24615e-05	12232.6
2	1	0	1	0	1	144.477	0.394861	0.394422	0.035339	8	0.000159497	13	0	4.4548	1.39385e-05	11161.1
2	1	0	1	0	1	144.877	0.398856	0.398443	0.0378019	8	0.000171653	13	0	4.8543	1.50619e-05	10540.3
2	1	0	1	0	1	145.276	0.402851	0.402459	0.0382132	8	0.000183649	13	0	5.2538	1.53792e-05	10531.9
2	1	0	1	0	1	145.676	0.406847	0.406422	0.0367515	8	0.000195455	13	0	5.6534	1.49366e-05	11058.7
2	1	0	1	0	1	146.076	0.410843	0.410383	0.0338301	8	0.00020702	13	0	6.0529	1.38833e-05	12130.7
2	1	0	1	0	1	146.475	0.414837	0.414399	0.0302548	8	0.000218496	13	0	6.4524	1.25376e-05	13697
2	1	0	1	0	1	146.875	0.418832	0.418398	0.0263374	8	0.000229812	13	0	6.852	1.10195e-05	15886
2	1	0	1	0	1	147.274	0.422828	0.422396	0.0228169	8	0.000240988	13	0	7.2514	9.63778e-06	18512.4
2	1	0	1	0	1	147.674	0.426823	0.426388	0.0203233	8	0.000252012	13	0	7.651	8.66561e-06	20980.2
2	1	0	1	0	1	148.073	0.430818	0.430356	0.0196341	8	0.000262891	13	0	8.0505	8.44965e-06	21918.8
2	1	0	1	0	1	148.473	0.434813	0.434312	0.0206032	8	0.000273652	13	0	8.45	8.94822e-06	21079.8
2	1	0	1	0	1	148.872	0.438809	0.438316	0.0226707	8	0.000284294	13	0	8.8496	9.93693e-06	19334
2	1	0	1	0	1	149.272	0.442804	0.442355	0.0256446	8	0.000294834	13	0	9.2491	1.1344e-05	17249.4
2	1	0	1	0	1	149.671	0.446799	0.446363	0.0290316	8	0.00030527	13	0	9.6486	1.29586e-05	15375.1
2	1	0	1	0	1	150.017	0.449747	0.449281	-0.0105324	8	0.000313434	13	0	0.000000000000000E+000	-4.73199e-06	42657.3
2	0	0	1	0	1	150.476	0.445151	0.444645	-0.0148409	8	0.000304216	13	0	0.4595	-6.59892e-06	29960.9
2	0	0	1	0	1	150.876	0.441156	0.440641	-0.0173744	8	0.000295243	13	0	0.859	-7.65587e-06	25361.5
2	0	0	1	0	1	151.275	0.437161	0.436691	-0.0205935	8	0.000285859	13	0	1.2585	-8.99299e-06	21205.3
2	0	0	1	0	1	151.675	0.433165	0.432703	-0.0241067	8	0.000276198	13	0	1.6581	-1.0431e-05	17949.5
2	0	0	1	0	1	152.074	0.429169	0.428661	-0.0286605	8	0.000266274	13	0	2.0576	-1.22857e-05	14956.5
2	0	0	1	0	1	152.474	0.425175	0.424704	-0.0321949	8	0.000256071	13	0	2.4571	-1.36733e-05	13191.6
2	0	0	1	0	1	152.873	0.42118	0.420708	-0.0343028	8	0.000245644	13	0	2.8567	-1.44315e-05	12264.6
2	0	0	1	0	1	153.273	0.417184	0.416677	-0.034734	8	0.000234974	13	0	3.2561	-1.44729e-05	11996.2
2	0	0	1	0	1	153.672	0.413189	0.412684	-0.0337076	8	0.000224073	13	0	3.6557	-1.39106e-05	12243.1
2	0	0	1	0	1	154.072	0.409195	0.408699	-0.0315975	8	0.000212953	13	0	4.0552	-1.29139e-05	12934.5
2	0	0	1	0	1	154.471	0.405199	0.404702	-0.0283426	8	0.000201669	13	0	4.4547	-1.14703e-05	14278.9
2	0	0	1	0	1	154.871	0.401203	0.400687	-0.0252047	8	0.00019008	13	0	4.8543	-1.00992e-05	15897.3
2	0	0	1	0	1	155.27	0.397208	0.396733	-0.0230659	8	0.000178258	13	0	5.2538	-9.15101e-06	17200
2	0	0	1	0	1	155.67	0.393213	0.392714	-0.0227216	8	0.000166149	13	0	5.6533	-8.92308e-06	17283.7
2	0	0	1	0	1	156.069	0.389217	0.388746	-0.0241885	8	0.000153791	13	0	6.0529	-9.40319e-06	16071.5
2	0	0	1	0	1	156.469	0.385221	0.384792	-0.0268684	8	0.000141144	13	0	6.4524	-1.03387e-05	14321.4
2	0	0	1	0	1	156.868	0.381227	0.380789	-0.0315732	8	0.000128245	13	0	6.8519	-1.20227e-05	12060.5
2	0	0	1	0	1	157.268	0.377232	0.376756	-0.0365071	8	0.000115029	13	0	7.2515	-1.37543e-05	10320.1
2	0	0	1	0	1	157.667	0.373237	0.372766	-0.0409729	8	0.000101491	13	0	7.6509	-1.52733e-05	9097.86
2	0	0	1	0	1	158.067	0.369241	0.368816	-0.0436062	8	8.76502e-05	13	0	8.0505	-1.60827e-05	8457.87
2	0	0	1	0	1	158.467	0.365246	0.364737	-0.0447757	8	7.34853e-05	13	0	8.45	-1.63314e-05	8145.87
2	0	0	1	0	1	158.866	0.361251	0.360738	-0.0439369	8	5.8978e-05	13	0	8.8495	-1.58497e-05	8210.36
2	0	0	1	0	1	159.266	0.357255	0.356689	-0.0419094	8	4.41426e-05	13	0	9.2491	-1.49487e-05	8510.96
2	0	0	1	0	1	159.665	0.35326	0.352773	-0.0386199	8	2.90055e-05	13	0	9.6486	-1.3624e-05	9134.49
2	0	0	1	0	0	159.994	0.350039	0.349667	-0.0228502	9	1.64597e-05	13	0	9.9772	-7.98995e-06	15302.6
2	1	0	1	0	0	160.431	0.354409	0.35398	0.0246034	9	2.90621e-05	13	0	0.3446	8.70912e-06	14387.5
2	1	0	1	0	0	160.83	0.358404	0.357929	0.0277999	9	4.23413e-05	13	0	0.7441	9.95037e-06	12875.2
2	1	0	1	0	0	161.23	0.362399	0.361925	0.0311137	9	5.58082e-05	13	0	1.1436	1.12608e-05	11632.3
2	1	0	1	0	0	161.629	0.366395	0.365915	0.0347299	9	6.92658e-05	13	0	1.5432	1.27082e-05	10536
2	1	0	1	0	0	162.029	0.370391	0.36991	0.0387859	9	8.26429e-05	13	0	1.9427	1.43473e-05	9537.22
2	1	0	1	0	0	162.428	0.374385	0.373925	0.040635	9	9.58743e-05	13	0	2.3422	1.51944e-05	9202.06
2	1	0	1	0	0	162.828	0.37838	0.377951	0.0412361	9	0.000108955	13	0	2.7418	1.55852e-05	9165.52
2	1	0	1	0	0	163.227	0.382376	0.381987	0.0399952	9	0.000121823	13	0	3.1412	1.52776e-05	9550.84
2	1	0	1	0	0	163.627	0.386371	0.385965	0.037813	9	0.000134535	13	0	3.5408	1.45945e-05	10207.2
2	1	0	1	0	0	164.027	0.390366	0.389929	0.0341091	9	0.000147084	13	0	3.9403	1.33002e-05	11431.8
2	1	0	1	0	0	164.426	0.394361	0.394014	0.0301503	9	0.000159432	13	0	4.3398	1.18796e-05	13068.4
2	1	0	1	0	0	164.826	0.398357	0.397912	0.0259438	9	0.000171604	13	0	4.7394	1.03234e-05	15337.4
2	1	0	1	0	0	165.225	0.402353	0.401901	0.023343	9	0.000183589	13	0	5.1389	9.38156e-06	17217.2
2	1	0	1	0	0	165.625	0.406347	0.405912	0.0216495	9	0.000195386	13	0	5.5384	8.78777e-06	18749.3
2	1	0	1	0	0	166.024	0.410342	0.409853	0.0216461	9	0.000206947	13	0	5.938	8.87171e-06	18934.3
2	1	0	1	0	0	166.424	0.414338	0.413871	0.023021	9	0.000218418	13	0	6.3374	9.52773e-06	17978
2	1	0	1	0	0	166.823	0.418333	0.417855	0.0253868	9	0.000229749	13	0	6.737	1.0608e-05	16459.6
2	1	0	1	0	0	167.223	0.422327	0.421879	0.0286584	9	0.000240953	13	0	7.1365	1.20904e-05	14721
2	1	0	1	0	0	167.622	0.426323	0.425813	0.0317062	9	0.000252005	13	0	7.536	1.35009e-05	13430
2	1	0	1	0	0	168.022	0.430319	0.429824	0.0336995	9	0.000262924	13	0	7.9356	1.44848e-05	12754.6
2	1	0	1	0	0	168.421	0.434314	0.433825	0.03476	9	0.000273706	13	0	8.3351	1.50798e-05	12480.6
2	1	0	1	0	0	168.821	0.438309	0.437827	0.0337466	9	0.000284373	13	0	8.7346	1.47752e-05	12974
2	1	0	1	0	0	169.22	0.442305	0.441864	0.0310486	9	0.000294938	13	0	9.1342	1.37193e-05	14231.4
2	1	0	1	0	0	169.62	0.446301	0.445897	0.0274105	9	0.000305375	13	0	9.5337	1.22222e-05	16267.4
2	1	0	0	0	0	169.988	0.450021	0.449649	0.0343991	9	0.00031486	13	0	9.9015	1.54675e-05	13071.5
2	0	0	1	0	0	170.425	0.445651	0.445152	-0.0284927	9	0.000306493	13	0	0.4095	-1.26836e-05	15623.4
2	0	0	1	0	0	170.824	0.441655	0.441167	-0.0305794	9	0.000297553	13	0	0.8091	-1.34906e-05	14426.9
2	0	0	1	0	0	171.224	0.43766	0.43716	-0.0305972	9	0.000288199	13	0	1.2086	-1.33759e-05	14287.6
2	0	0	1	0	0	171.623	0.433665	0.433172	-0.0287732	9	0.000278554	13	0	1.6081	-1.24638e-05	15054.7
2	0	0	1	0	0	172.023	0.42967	0.429168	-0.0254721	9	0.000268659	13	0	2.0077	-1.09318e-05	16848.6
2	0	0	1	0	0	172.422	0.425674	0.42514	-0.0227318	9	0.000258514	13	0	2.4071	-9.66422e-06	18702.4
2	0	0	1	0	0	172.822	0.421679	0.421137	-0.0198925	9	0.000248136	13	0	2.8067	-8.37749e-06	21170.6
2	0	0	1	0	0	173.221	0.417685	0.417187	-0.0189497	9	0.000237518	13	0	3.2062	-7.90555e-06	22015.5
2	0	0	1	0	0	173.621	0.413688	0.413199	-0.0204274	9	0.000226688	13	0	3.6057	-8.44057e-06	20227.7
2	0	0	1	0	0	174.02	0.409693	0.409224	-0.0238039	9	0.000215616	13	0	4.0053	-9.74112e-06	17191.5
2	0	0	1	0	0	174.42	0.405698	0.405219	-0.0289087	9	0.000204375	13	0	4.4048	-1.17143e-05	14017.2
2	0	0	1	0	0	174.819	0.401703	0.401226	-0.0336033	9	0.000192818	13	0	4.8043	-1.34825e-05	11940.1
2	0	0	1	0	0	175.219	0.397707	0.397255	-0.0370114	9	0.000180998	13	0	5.2039	-1.4703e-05	10733.3
2	0	0	1	0	0	175.619	0.393712	0.39321	-0.0388199	9	0.000168906	13	0	5.6034	-1.52644e-05	10129.1
2	0	0	1	0	0	176.018	0.389717	0.389203	-0.0384169	9	0.00015657	13	0	6.0029	-1.4952e-05	10131
2	0	0	1	0	0	176.418	0.385722	0.385212	-0.0360158	9	0.000143943	13	0	6.4025	-1.38738e-05	10695.6
2	0	0	1	0	0	176.817	0.381726	0.381237	-0.0321516	9	0.000131084	13	0	6.8019	-1.22574e-05	11857.5
2	0	0	1	0	0	177.217	0.377731	0.377253	-0.0284697	9	0.000117923	13	0	7.2015	-1.07403e-05	13251
2	0	0	1	0	0	177.616	0.373737	0.373302	-0.0263394	9	0.000104441	13	0	7.601	-9.83256e-06	14172.7
2	0	0	1	0	0	178.016	0.369741	0.369264	-0.0261213	9	9.06697e-05	13	0	8.0005	-9.64568e-06	14136.5
2	0	0	1	0	0	178.415	0.365745	0.365277	-0.0284479	9	7.65652e-05	13	0	8.4001	-1.03914e-05	12840.2
2	0	0	1	0	0	178.815	0.36175	0.361249	-0.0333965	9	6.21222e-05	13	0	8.7996	-1.20644e-05	10817
2	0	0	1	0	0	179.214	0.357755	0.357292	-0.038863	9	4.73477e-05	13	0	9.1991	-1.38854e-05	9193.64
2	0	0	1	0	0	179.614	0.35376	0.35325	-0.0440799	9	3.22353e-05	13	0	9.5987	-1.55712e-05	8013.86
2	0	0	1	0	0	179.987	0.349989	0.349667	-0.0345434	9	1.79512e-05	13	0	9.9722	-1.20787e-05	10122.5
2	1	0	1	0	1	180.379	0.353909	0.35348	0.0354847	10	2.87028e-05	13	0	0.2946	1.25431e-05	9961.49
2	1	0	1	0	1	180.779	0.357905	0.357497	0.0310732	10	4.19552e-05	13	0	0.6942	1.11086e-05	11505
2	1	0	1	0	1	181.179	0.361901	0.361466	0.0270953	10	5.54088e-05	13	0	1.0937	9.79401e-06	13340.5
2	1	0	1	0	1	181.578	0.365895	0.365433	0.0244507	10	6.88733e-05	13	0	1.4932	8.93511e-06	14945.7
2	1	0	1	0	1	181.978	0.36989	0.369461	0.0254126	10	8.2234e-05	13	0	1.8928	9.38899e-06	14538.5
2	1	0	1	0	1	182.377	0.373886	0.373407	0.0286167	10	9.54546e-05	13	0	2.2922	1.06857e-05	13048.6
2	1	0	1	0	1	182.777	0.377881	0.377463	0.0331766	10	0.000108555	13	0	2.6918	1.25229e-05	11377.4
2	1	0	1	0	1	183.176	0.381876	0.381479	0.0371541	10	0.000121464	13	0	3.0913	1.41735e-05	10267.5
2	1	0	1	0	1	183.576	0.385871	0.385431	0.0395881	10	0.000134187	13	0	3.4908	1.52585e-05	9736.04
2	1	0	1	0	1	183.975	0.389867	0.389471	0.0389282	10	0.000146763	13	0	3.8904	1.51614e-05	10004.9
2	1	0	1	0	1	184.375	0.393862	0.393442	0.0359707	10	0.000159137	13	0	4.2899	1.41524e-05	10937.8
2	1	0	1	0	1	184.774	0.397857	0.397443	0.0307411	10	0.00017134	13	0	4.6894	1.22178e-05	12928.7
2	1	0	1	0	1	185.174	0.401853	0.401442	0.0254675	10	0.000183344	13	0	5.089	1.02237e-05	15762.9
2	1	0	1	0	1	185.573	0.405848	0.405381	0.0220858	10	0.000195156	13	0	5.4884	8.95316e-06	18354.8
2	1	0	1	0	1	185.973	0.409843	0.409331	0.0212152	10	0.000206735	13	0	5.888	8.68402e-06	19294.3
2	1	0	1	0	1	186.372	0.413838	0.413361	0.0233852	10	0.000218217	13	0	6.2876	9.66656e-06	17676.2
2	1	0	1	0	1	186.772	0.417834	0.417327	0.0272002	10	0.000229551	13	0	6.687	1.13514e-05	15342.8
2	1	0	1	0	1	187.171	0.421829	0.421341	0.0314405	10	0.000240766	13	0	7.0866	1.32472e-05	13401.2
2	1	0	1	0	1	187.571	0.425824	0.425362	0.0344788	10	0.00025182	13	0	7.4861	1.4666e-05	12336.9
2	1	0	1	0	1	187.97	0.429819	0.429363	0.0348207	10	0.000262757	13	0	7.8856	1.49507e-05	12330.7
2	1	0	1	0	1	188.37	0.433815	0.433386	0.0326121	10	0.000273522	13	0	8.2852	1.41336e-05	13289.1
2	1	0	1	0	1	188.77	0.437811	0.437343	0.028566	10	0.000284178	13	0	8.6847	1.24931e-05	15309.9
2	1	0	1	0	1	189.169	0.441805	0.441339	0.0235017	10	0.000294735	13	0	9.0842	1.03722e-05	18779
2	1	0	1	0	1	189.569	0.4458	0.445369	0.0198887	10	0.000305152	13	0	9.4838	8.8578e-06	22393.1
2	1	0	1	0	1	189.966	0.449771	0.449299	0.0177147	10	0.000315393	13	0	9.8807	7.95922e-06	25363
2	0	0	1	0	1	190.378	0.4461	0.445612	-0.0238638	10	0.000308586	13	0	0.2997	-1.0634e-05	18673.2
2	0	0	1	0	1	190.778	0.442105	0.441606	-0.0206234	10	0.000299723	13	0	0.6992	-9.10743e-06	21412.8
2	0	0	1	0	1	191.177	0.43811	0.437558	-0.0177237	10	0.000290433	13	0	1.0988	-7.75517e-06	24687.7
2	0	0	1	0	1	191.577	0.434114	0.43363	-0.0170035	10	0.000280849	13	0	1.4982	-7.3732e-06	25502.4
2	0	0	1	0	1	191.976	0.430119	0.429636	-0.0188829	10	0.000271	13	0	1.8978	-8.11279e-06	22752.6
2	0	0	1	0	1	192.376	0.426125	0.425674	-0.0233695	10	0.0002609	13	0	2.2973	-9.9478e-06	18214.9
2	0	0	1	0	1	192.775	0.422129	0.421633	-0.0290391	10	0.000250549	13	0	2.6968	-1.22438e-05	14519.5
2	0	0	1	0	1	193.175	0.418133	0.417655	-0.0334363	10	0.000239945	13	0	3.0964	-1.39648e-05	12491
2	0	0	1	0	1	193.575	0.414138	0.413645	-0.0353194	10	0.000229122	13	0	3.4959	-1.46097e-05	11711.6
2	0	0	1	0	1	193.974	0.410143	0.40968	-0.0338622	10	0.000218073	13	0	3.8954	-1.38727e-05	12098.4
2	0	0	1	0	1	194.374	0.406147	0.405636	-0.0305219	10	0.000206861	13	0	4.295	-1.23808e-05	13290
2	0	0	1	0	1	194.773	0.402152	0.401723	-0.0263831	10	0.000195347	13	0	4.6945	-1.05987e-05	15226.5
2	0	0	1	0	1	195.173	0.398157	0.397627	-0.0224926	10	0.000183587	13	0	5.094	-8.94368e-06	17678.1
2	0	0	1	0	1	195.572	0.394162	0.393717	-0.0219341	10	0.000171579	13	0	5.4936	-8.63583e-06	17949.9
2	0	0	1	0	1	195.972	0.390166	0.389691	-0.0246305	10	0.000159312	13	0	5.893	-9.5983e-06	15821.5
2	0	0	1	0	1	196.371	0.386171	0.385723	-0.029765	10	0.000146742	13	0	6.2926	-1.14811e-05	12959
2	0	0	1	0	1	196.771	0.382177	0.381745	-0.0356771	10	0.000133912	13	0	6.6921	-1.36196e-05	10700
2	0	0	1	0	1	197.17	0.378181	0.37768	-0.0405804	10	0.000120785	13	0	7.0916	-1.53264e-05	9306.97
2	0	0	1	0	1	197.57	0.374185	0.373709	-0.0422682	10	0.000107318	13	0	7.4912	-1.5796e-05	8841.38
2	0	0	1	0	1	197.969	0.37019	0.369709	-0.041065	10	9.35656e-05	13	0	7.8907	-1.51821e-05	9003.02
2	0	0	1	0	1	198.369	0.366195	0.365694	-0.0373609	10	7.94809e-05	13	0	8.2902	-1.36626e-05	9788.14
2	0	0	1	0	1	198.768	0.3622	0.361695	-0.0330442	10	6.50924e-05	13	0	8.6898	-1.19519e-05	10945.8
2	0	0	1	0	1	199.168	0.358203	0.357687	-0.0297829	10	5.03781e-05	13	0	9.0893	-1.06529e-05	12009.8
2	0	0	1	0	1	199.567	0.354209	0.35373	-0.0287898	10	3.53387e-05	13	0	9.4888	-1.01838e-05	12286.6
2	0	0	1	0	1	199.965	0.350239	0.349806	-0.029672	10	2.00322e-05	13	0	9.8859	-1.03795e-05	11789.1
2	0	0	1	0	1	199.986	0.349989	0.349572	-0.0409005	10	1.93708e-05	13	0	9.9073	-1.42977e-05	8546.89