File: ACS_Catal_2026/Figures_Na_K/main_figures/data/EC/20251112_2-148_alpha_reproducibility/20251112_2-148_006_gamma_reproducibility_2_Na1_02_PEIS_C02.mpt
EC-Lab ASCII FILE
Nb header lines : 63

Potentio Electrochemical Impedance Spectroscopy

Run on channel : 2 (SN 69290)
User :
CE vs. WE compliance from -10 V to 10 V
Electrode connection : standard
Potential control : Ewe
Ewe ctrl range : min = -1.00 V, max = 1.00 V
Safety Limits :
	Do not start on E overload
Acquisition started on : 11/12/2025 19:49:32.045
Loaded Setting File :  C:\Users\User\Documents\EC-Lab\Data\Yatsuzuka\20251112_2-148_alpha_reproducibility\20251112_2-148_002_alpha_reproducibility_2_K1.mps
Saved on :
	File : 20251112_2-148_006_gamma_reproducibility_2_Na1_02_PEIS_C02.mpr
	Directory : C:\Users\User\Documents\EC-Lab\Data\Yatsuzuka\20251112_2-148_alpha_reproducibility\
	Host : 192.109.209.127
Device : SP-150e (SN .003883)
Address : 192.109.209.128
EC-Lab for windows v11.52 (software)
Internet server v11.52 (firmware)
Command interpretor v11.50 (firmware)
Electrode material :
Initial state :
Electrolyte :
Comments :
Electrode surface area : 0.001 cm2
Characteristic mass : 0.001 g
Equivalent Weight : 0.000 g/eq.
Density : 0.000 g/cm3
Volume (V) : 0.001 cm3
Cycle Definition : Charge/Discharge alternance
Mode                Single sine
E (V)               0.4500
vs.                 Ref
tE (h:m:s)          0:00:0.0000
record              0
dI                  0.000
unit dI             mA
dt (s)              0.000
fi                  500.000
unit fi             kHz
ff                  1.000
unit ff             Hz
Nd                  6
Points              per decade
spacing             Logarithmic
Va (mV)             10.0
pw                  0.10
Na                  2
corr                0
E range min (V)     -1.000
E range max (V)     1.000
I Range             Auto
Bandwidth           5
nc cycles           0
goto Ns'            0
nr cycles           0
inc. cycle          0

freq/Hz	Re(Z)/Ohm	-Im(Z)/Ohm	|Z|/Ohm	Phase(Z)/deg	time/s	<Ewe>/V	<I>/mA	Cs/uF	Cp/uF	cycle number	I Range	|Ewe|/V	|I|/A	Ns	(Q-Qo)/mA.h	Re(Y)/Ohm-1	Im(Y)/Ohm-1	|Y|/Ohm-1	Phase(Y)/deg	Re(C)/nF	Im(C)/nF	|C|/nF	Phase(C)/deg	Re(M)	Im(M)	|M|	Phase(M)/deg	Re(Permittivity)	Im(Permittivity)	|Permittivity|	Phase(Permittivity)/deg	Re(Resistivity)/Ohm.cm	Im(Resistivity)/Ohm.cm	|Resistivity|/Ohm.cm	Phase(Resistivity)/deg	Re(Conductivity)/mS/cm	Im(Conductivity)/mS/cm	|Conductivity|/mS/cm	Phase(Conductivity)/deg	Tan(Delta)	Loss Angle(Delta)/deg	dq/mA.h
500019	19.6193	-2.17117	19.7391	6.31495	201.934	0.449788	0.0192217	-0.146602	-0.00177368	1	10	0.00611065	0.000309572	0	3.01714e-05	0.0503536	-0.00557239	0.050661	-6.31495	-1.77368	16.0275	16.1253	-96.3149	0.0000000E+000	0.0000000E+000	0.0000000E+000	96.3149	0.0000000E+000	0.0000000E+000	0.0000000E+000	-96.3149	0.0000000E+000	0.0000000E+000	0.0000000E+000	6.31495	0.0000000E+000	0.0000000E+000	0.0000000E+000	-6.31495	9.03627	83.6851	3.01714e-05
339899	14.032	-1.54175	14.1165	6.27014	202.219	0.449686	0.0191099	-0.303708	-0.00362269	1	10	0.00988489	0.000700238	0	3.20503e-05	0.0704154	-0.00773679	0.0708392	-6.27014	-3.62269	32.9714	33.1698	-96.2701	0.0000000E+000	0.0000000E+000	0.0000000E+000	96.2701	0.0000000E+000	0.0000000E+000	0.0000000E+000	-96.2701	0.0000000E+000	0.0000000E+000	0.0000000E+000	6.27014	0.0000000E+000	0.0000000E+000	0.0000000E+000	-6.27014	9.10137	83.7299	1.87898e-06
231063	11.952	-0.898603	11.9857	4.29966	202.642	0.449551	0.0191882	-0.766519	-0.00430854	1	10	0.0106683	0.000890082	0	3.51875e-05	0.0831978	-0.00625518	0.0834326	-4.29966	-4.30854	57.3063	57.4681	-94.2997	0.0000000E+000	0.0000000E+000	0.0000000E+000	94.2997	0.0000000E+000	0.0000000E+000	0.0000000E+000	-94.2997	0.0000000E+000	0.0000000E+000	0.0000000E+000	4.29966	0.0000000E+000	0.0000000E+000	0.0000000E+000	-4.29966	13.3006	85.7003	3.13721e-06
157076	11.1793	-0.415221	11.187	2.12709	203.2	0.44955	0.0191714	-2.44023	-0.00336171	1	10	0.010096	0.000902474	0	3.79049e-05	0.0893275	-0.00331779	0.0893891	-2.12709	-3.3617	90.5099	90.5723	-92.1271	0.0000000E+000	0.0000000E+000	0.0000000E+000	92.1271	0.0000000E+000	0.0000000E+000	0.0000000E+000	-92.1271	0.0000000E+000	0.0000000E+000	0.0000000E+000	2.12709	0.0000000E+000	0.0000000E+000	0.0000000E+000	-2.12709	26.9238	87.8729	2.71739e-06
106786	10.9461	-0.12814	10.9469	0.670699	203.622	0.44954	0.0193262	-11.631	-0.00159371	1	10	0.0108215	0.000988544	0	3.85699e-05	0.0913439	-0.00106931	0.0913502	-0.670699	-1.59371	136.14	136.149	-90.6707	0.0000000E+000	0.0000000E+000	0.0000000E+000	90.6707	0.0000000E+000	0.0000000E+000	0.0000000E+000	-90.6707	0.0000000E+000	0.0000000E+000	0.0000000E+000	0.670699	0.0000000E+000	0.0000000E+000	0.0000000E+000	-0.670699	85.4231	89.3293	6.65004e-07
72595	10.9015	0.00903583	10.9015	-0.0474903	204.044	0.449551	0.0197345	242.63	0.00016669	1	10	0.0107221	0.000983547	0	4.03518e-05	0.0917306	7.6032e-05	0.0917306	0.0474903	0.1667	201.107	201.107	-89.9525	0.0000000E+000	0.0000000E+000	0.0000000E+000	89.9525	0.0000000E+000	0.0000000E+000	0.0000000E+000	-89.9525	0.0000000E+000	0.0000000E+000	0.0000000E+000	-0.0474903	0.0000000E+000	0.0000000E+000	0.0000000E+000	0.0474903	1206.47	89.9525	1.78191e-06
49352.4	10.9011	0.0673742	10.9014	-0.354111	204.467	0.449553	0.01919	47.865	0.00182829	1	10	0.0106231	0.000974477	0	4.08119e-05	0.09173	0.000566935	0.0917317	0.354111	1.82829	295.817	295.823	-89.6459	0.0000000E+000	0.0000000E+000	0.0000000E+000	89.6459	0.0000000E+000	0.0000000E+000	0.0000000E+000	-89.6459	0.0000000E+000	0.0000000E+000	0.0000000E+000	-0.354111	0.0000000E+000	0.0000000E+000	0.0000000E+000	0.354111	161.8	89.6459	4.60036e-07
33551.1	10.912	0.109636	10.9126	-0.575648	204.89	0.449555	0.0196338	43.2672	0.0043673	1	10	0.010489	0.00096118	0	4.1593e-05	0.0916327	0.000920661	0.0916373	0.575648	4.36728	434.674	434.696	-89.4244	0.0000000E+000	0.0000000E+000	0.0000000E+000	89.4244	0.0000000E+000	0.0000000E+000	0.0000000E+000	-89.4244	0.0000000E+000	0.0000000E+000	0.0000000E+000	-0.575648	0.0000000E+000	0.0000000E+000	0.0000000E+000	0.575648	99.5293	89.4244	7.81122e-07
22806.6	10.9369	0.137707	10.9378	-0.721379	205.312	0.449551	0.0195238	50.676	0.00803269	1	10	0.0104592	0.000956249	0	4.40095e-05	0.0914192	0.00115107	0.0914264	0.721379	8.03273	637.966	638.017	-89.2786	0.0000000E+000	0.0000000E+000	0.0000000E+000	89.2786	0.0000000E+000	0.0000000E+000	0.0000000E+000	-89.2786	0.0000000E+000	0.0000000E+000	0.0000000E+000	-0.721379	0.0000000E+000	0.0000000E+000	0.0000000E+000	0.721379	79.4212	89.2786	2.41653e-06
15504.4	10.9694	0.166461	10.9706	-0.869401	205.734	0.449546	0.0187463	61.6672	0.0141976	1	10	0.0102954	0.000938452	0	4.71778e-05	0.0911421	0.00138309	0.0911526	0.869401	14.1976	935.588	935.696	-89.1306	0.0000000E+000	0.0000000E+000	0.0000000E+000	89.1306	0.0000000E+000	0.0000000E+000	0.0000000E+000	-89.1306	0.0000000E+000	0.0000000E+000	0.0000000E+000	-0.869401	0.0000000E+000	0.0000000E+000	0.0000000E+000	0.869401	65.8975	89.1306	3.1683e-06
10540.4	10.9988	0.191617	11.0004	-0.998086	206.156	0.449546	0.018888	78.8007	0.0239099	1	10	0.0102459	0.000931409	0	4.87631e-05	0.0908916	0.00158348	0.0909054	0.998086	23.9098	1372.42	1372.63	-89.0019	0.0000000E+000	0.0000000E+000	0.0000000E+000	89.0019	0.0000000E+000	0.0000000E+000	0.0000000E+000	-89.0019	0.0000000E+000	0.0000000E+000	0.0000000E+000	-0.998086	0.0000000E+000	0.0000000E+000	0.0000000E+000	0.998086	57.3998	89.0019	1.58529e-06
7163.78	11.0227	0.236221	11.0252	-1.22768	206.681	0.449535	0.0168519	94.0502	0.0431737	1	10	0.0101627	0.000921765	0	5.1333e-05	0.0906801	0.00194331	0.090701	1.22768	43.1738	2014.61	2015.07	-88.7723	0.0000000E+000	0.0000000E+000	0.0000000E+000	88.7723	0.0000000E+000	0.0000000E+000	0.0000000E+000	-88.7723	0.0000000E+000	0.0000000E+000	0.0000000E+000	-1.22768	0.0000000E+000	0.0000000E+000	0.0000000E+000	1.22768	46.6627	88.7723	2.56983e-06
4871.56	11.0467	0.300735	11.0508	-1.55943	207.148	0.449557	0.0191546	108.634	0.0804542	1	10	0.0107519	0.000972952	0	5.3997e-05	0.0904576	0.00246262	0.0904911	1.55943	80.4542	2955.27	2956.37	-88.4406	0.0000000E+000	0.0000000E+000	0.0000000E+000	88.4406	0.0000000E+000	0.0000000E+000	0.0000000E+000	-88.4406	0.0000000E+000	0.0000000E+000	0.0000000E+000	-1.55943	0.0000000E+000	0.0000000E+000	0.0000000E+000	1.55943	36.7323	88.4406	2.66405e-06
3311.06	11.084	0.396365	11.0911	-2.04803	207.835	0.44956	0.0192497	121.271	0.154882	1	10	0.0101045	0.000911053	0	5.76744e-05	0.090105	0.00322217	0.0901626	2.04803	154.882	4331.14	4333.91	-87.952	0.0000000E+000	0.0000000E+000	0.0000000E+000	87.952	0.0000000E+000	0.0000000E+000	0.0000000E+000	-87.952	0.0000000E+000	0.0000000E+000	0.0000000E+000	-2.04803	0.0000000E+000	0.0000000E+000	0.0000000E+000	2.04803	27.9641	87.952	3.67737e-06
2250.72	11.1171	0.538284	11.1302	-2.77206	208.3	0.449549	0.0190073	131.367	0.307261	1	10	0.010238	0.000919842	0	5.98651e-05	0.0897408	0.00434519	0.0898459	2.77206	307.261	6345.83	6353.27	-87.2279	0.0000000E+000	0.0000000E+000	0.0000000E+000	87.2279	0.0000000E+000	0.0000000E+000	0.0000000E+000	-87.2279	0.0000000E+000	0.0000000E+000	0.0000000E+000	-2.77206	0.0000000E+000	0.0000000E+000	0.0000000E+000	2.77206	20.6529	87.2279	2.19068e-06
1530.49	11.1666	0.711424	11.1892	-3.6454	208.765	0.449552	0.0191005	146.171	0.590909	1	10	0.0103026	0.000920767	0	6.16591e-05	0.0891911	0.00568239	0.0893719	3.6454	590.909	9274.94	9293.74	-86.3546	0.0000000E+000	0.0000000E+000	0.0000000E+000	86.3546	0.0000000E+000	0.0000000E+000	0.0000000E+000	-86.3546	0.0000000E+000	0.0000000E+000	0.0000000E+000	-3.6454	0.0000000E+000	0.0000000E+000	0.0000000E+000	3.6454	15.6961	86.3546	1.794e-06
1040.33	11.2166	0.983163	11.2596	-5.00931	209.23	0.449562	0.0192851	155.605	1.18638	1	10	0.010329	0.000917347	0	6.42423e-05	0.0884737	0.00775492	0.0888129	5.00931	1186.38	13535.1	13587	-84.9907	0.0000000E+000	0.0000000E+000	0.0000000E+000	84.9907	0.0000000E+000	0.0000000E+000	0.0000000E+000	-84.9907	0.0000000E+000	0.0000000E+000	0.0000000E+000	-5.00931	0.0000000E+000	0.0000000E+000	0.0000000E+000	5.00931	11.4087	84.9907	2.58324e-06
707.036	11.2834	1.36215	11.3653	-6.88353	209.695	0.449557	0.0187053	165.255	2.37378	1	10	0.0103414	0.000909906	0	6.62088e-05	0.0873528	0.0105454	0.087987	6.88353	2373.78	19663.3	19806	-83.1165	0.0000000E+000	0.0000000E+000	0.0000000E+000	83.1165	0.0000000E+000	0.0000000E+000	0.0000000E+000	-83.1165	0.0000000E+000	0.0000000E+000	0.0000000E+000	-6.88353	0.0000000E+000	0.0000000E+000	0.0000000E+000	6.88353	8.28352	83.1165	1.96647e-06
480.769	11.3586	1.92465	11.5205	-9.61712	210.16	0.44955	0.0183025	172.001	4.80059	1	10	0.0103481	0.000898235	0	6.83595e-05	0.0855821	0.0145014	0.086802	9.61712	4800.59	28331.3	28735.1	-80.3829	0.0000000E+000	0.0000000E+000	0.0000000E+000	80.3829	0.0000000E+000	0.0000000E+000	0.0000000E+000	-80.3829	0.0000000E+000	0.0000000E+000	0.0000000E+000	-9.61712	0.0000000E+000	0.0000000E+000	0.0000000E+000	9.61712	5.90163	80.3829	2.15076e-06
326.778	11.4508	2.69448	11.7635	-13.2413	210.623	0.449558	0.0187799	180.756	9.48345	1	10	0.0103519	0.000879998	0	7.01926e-05	0.0827484	0.0194715	0.0850084	13.2413	9483.44	40302.1	41402.8	-76.7587	0.0000000E+000	0.0000000E+000	0.0000000E+000	76.7587	0.0000000E+000	0.0000000E+000	0.0000000E+000	-76.7587	0.0000000E+000	0.0000000E+000	0.0000000E+000	-13.2413	0.0000000E+000	0.0000000E+000	0.0000000E+000	13.2413	4.24973	76.7587	1.83311e-06
222.061	11.5559	3.82216	12.1716	-18.3018	211.085	0.449552	0.0183958	187.517	18.4909	1	10	0.0103523	0.000850528	0	7.33119e-05	0.0780023	0.0257994	0.0821582	18.3018	18490.9	55905.6	58884.3	-71.6982	0.0000000E+000	0.0000000E+000	0.0000000E+000	71.6982	0.0000000E+000	0.0000000E+000	0.0000000E+000	-71.6982	0.0000000E+000	0.0000000E+000	0.0000000E+000	-18.3018	0.0000000E+000	0.0000000E+000	0.0000000E+000	18.3018	3.02341	71.6982	3.11928e-06
151.015	11.6835	5.46647	12.8991	-25.0739	211.547	0.449552	0.0184554	192.794	34.6249	1	10	0.0103423	0.000801785	0	7.52346e-05	0.070219	0.032854	0.0775248	25.0739	34624.9	74004	81703.6	-64.9261	0.0000000E+000	0.0000000E+000	0.0000000E+000	64.9261	0.0000000E+000	0.0000000E+000	0.0000000E+000	-64.9261	0.0000000E+000	0.0000000E+000	0.0000000E+000	-25.0739	0.0000000E+000	0.0000000E+000	0.0000000E+000	25.0739	2.13731	64.9261	1.92267e-06
102.667	11.8589	7.87354	14.2347	-33.5816	212.022	0.44956	0.0186325	196.887	60.2368	1	10	0.0103489	0.000727022	0	7.69167e-05	0.058526	0.0388574	0.0702509	33.5816	60236.8	90727	108903	-56.4184	0.0000000E+000	0.0000000E+000	0.0000000E+000	56.4184	0.0000000E+000	0.0000000E+000	0.0000000E+000	-56.4184	0.0000000E+000	0.0000000E+000	0.0000000E+000	-33.5816	0.0000000E+000	0.0000000E+000	0.0000000E+000	33.5816	1.50617	56.4184	1.68211e-06
69.7545	12.0781	11.3595	16.5807	-43.2439	212.489	0.449565	0.0183827	200.857	94.2762	1	10	0.0103404	0.000623639	0	7.88016e-05	0.0439332	0.0413194	0.060311	43.2439	94276.2	100240	137608	-46.7561	0.0000000E+000	0.0000000E+000	0.0000000E+000	46.7561	0.0000000E+000	0.0000000E+000	0.0000000E+000	-46.7561	0.0000000E+000	0.0000000E+000	0.0000000E+000	-43.2439	0.0000000E+000	0.0000000E+000	0.0000000E+000	43.2439	1.06326	46.7561	1.88486e-06
47.4443	12.3919	16.4063	20.5602	-52.9358	213.177	0.449552	0.000847898	204.468	130.193	1	11	0.0103653	0.000504144	0	8.01798e-05	0.0293143	0.0388108	0.0486376	52.9358	130193	98336.8	163158	-37.0642	0.0000000E+000	0.0000000E+000	0.0000000E+000	37.0642	0.0000000E+000	0.0000000E+000	0.0000000E+000	-37.0642	0.0000000E+000	0.0000000E+000	0.0000000E+000	-52.9358	0.0000000E+000	0.0000000E+000	0.0000000E+000	52.9358	0.755313	37.0642	1.37823e-06
32.2387	12.8452	23.7627	27.0123	-61.6059	213.614	0.449549	0.000721614	207.753	160.774	1	11	0.0103517	0.00038322	0	8.00399e-05	0.0176043	0.0325666	0.0370202	61.6059	160774	86908.5	182760	-28.3941	0.0000000E+000	0.0000000E+000	0.0000000E+000	28.3941	0.0000000E+000	0.0000000E+000	0.0000000E+000	-28.3941	0.0000000E+000	0.0000000E+000	0.0000000E+000	-61.6059	0.0000000E+000	0.0000000E+000	0.0000000E+000	61.6059	0.540564	28.394	-1.39879e-07
21.9144	13.5003	34.4423	36.9936	-68.5965	214.045	0.449549	0.000628666	210.862	182.78	1	11	0.0103426	0.000279578	0	8.05513e-05	0.00986478	0.0251674	0.0270317	68.5965	182780	71643.6	196319	-21.4035	0.0000000E+000	0.0000000E+000	0.0000000E+000	21.4035	0.0000000E+000	0.0000000E+000	0.0000000E+000	-21.4035	0.0000000E+000	0.0000000E+000	0.0000000E+000	-68.5965	0.0000000E+000	0.0000000E+000	0.0000000E+000	68.5965	0.391967	21.4035	5.114e-07
14.9093	14.4735	49.7657	51.8277	-73.7838	214.514	0.44956	0.000967655	214.502	197.773	1	11	0.0103392	0.000199492	0	8.09824e-05	0.00538829	0.0185271	0.0192947	73.7838	197773	57519.2	205968	-16.2162	0.0000000E+000	0.0000000E+000	0.0000000E+000	16.2162	0.0000000E+000	0.0000000E+000	0.0000000E+000	-16.2162	0.0000000E+000	0.0000000E+000	0.0000000E+000	-73.7838	0.0000000E+000	0.0000000E+000	0.0000000E+000	73.7838	0.290834	16.2162	4.31053e-07
10.1329	16.4854	72.5698	74.4187	-77.2015	214.973	0.449556	0.000960948	216.436	205.815	1	11	0.010334	0.000138862	0	8.14567e-05	0.00297671	0.0131036	0.0134375	77.2015	205815	46754.2	211058	-12.7985	0.0000000E+000	0.0000000E+000	0.0000000E+000	12.7985	0.0000000E+000	0.0000000E+000	0.0000000E+000	-12.7985	0.0000000E+000	0.0000000E+000	0.0000000E+000	-77.2015	0.0000000E+000	0.0000000E+000	0.0000000E+000	77.2015	0.227167	12.7985	4.74363e-07
6.88933	18.592	104.831	106.467	-79.943	215.526	0.449564	-0.000510692	220.371	213.651	1	12	0.0103448	9.71651e-05	0	8.15513e-05	0.00164021	0.00924829	0.00939261	79.943	213651	37891.6	216985	-10.057	0.0000000E+000	0.0000000E+000	0.0000000E+000	10.057	0.0000000E+000	0.0000000E+000	0.0000000E+000	-10.057	0.0000000E+000	0.0000000E+000	0.0000000E+000	-79.943	0.0000000E+000	0.0000000E+000	0.0000000E+000	79.943	0.177353	10.057	9.46227e-08
4.68375	20.9015	151.995	153.425	-82.1701	216.023	0.44957	0.000359325	223.562	219.413	1	12	0.010334	6.73555e-05	0	8.20943e-05	0.000887944	0.00645708	0.00651784	82.1701	219413	30172.5	221478	-7.82991	0.0000000E+000	0.0000000E+000	0.0000000E+000	7.82991	0.0000000E+000	0.0000000E+000	0.0000000E+000	-7.82991	0.0000000E+000	0.0000000E+000	0.0000000E+000	-82.1701	0.0000000E+000	0.0000000E+000	0.0000000E+000	82.1701	0.137515	7.82991	5.42998e-07
3.18099	24.864	220.563	221.96	-83.5682	216.728	0.449562	0.000129242	226.843	223.997	1	12	0.0103335	4.65558e-05	0	8.13319e-05	0.000504688	0.00447696	0.00450532	83.5682	223997	25251.2	225416	-6.4318	0.0000000E+000	0.0000000E+000	0.0000000E+000	6.4318	0.0000000E+000	0.0000000E+000	0.0000000E+000	-6.4318	0.0000000E+000	0.0000000E+000	0.0000000E+000	-83.5682	0.0000000E+000	0.0000000E+000	0.0000000E+000	83.5682	0.11273	6.43179	-7.624e-07
2.16533	31.0567	318.451	319.961	-84.4299	217.739	0.449572	0.00023695	230.81	228.635	1	12	0.0103309	3.22881e-05	0	8.11022e-05	0.000303362	0.00311062	0.00312538	84.4299	228635	22297.6	229720	-5.57013	0.0000000E+000	0.0000000E+000	0.0000000E+000	5.57013	0.0000000E+000	0.0000000E+000	0.0000000E+000	-5.57013	0.0000000E+000	0.0000000E+000	0.0000000E+000	-84.4299	0.0000000E+000	0.0000000E+000	0.0000000E+000	84.4299	0.0975245	5.57013	-2.29708e-07
1.46962	39.5836	463.005	464.694	-85.1135	219.939	0.449572	4.9626e-05	233.899	232.202	1	13	0.0103356	2.22416e-05	0	8.1735e-05	0.000183307	0.00214413	0.00215195	85.1135	232202	19851.6	233049	-4.88648	0.0000000E+000	0.0000000E+000	0.0000000E+000	4.88648	0.0000000E+000	0.0000000E+000	0.0000000E+000	-4.88648	0.0000000E+000	0.0000000E+000	0.0000000E+000	-85.1135	0.0000000E+000	0.0000000E+000	0.0000000E+000	85.1135	0.0854926	4.88647	6.32768e-07
1.00006	51.6433	670.749	672.735	-85.5973	222.079	0.449573	0.000106762	237.264	235.866	1	13	0.0103329	1.53595e-05	0	8.22553e-05	0.000114111	0.00148208	0.00148647	85.5973	235866	18160.1	236564	-4.40271	0.0000000E+000	0.0000000E+000	0.0000000E+000	4.40271	0.0000000E+000	0.0000000E+000	0.0000000E+000	-4.40271	0.0000000E+000	0.0000000E+000	0.0000000E+000	-85.5973	0.0000000E+000	0.0000000E+000	0.0000000E+000	85.5973	0.0769934	4.40271	5.20311e-07