File: ACS_Catal_2026/Figures_Na_K/main_figures/data/EC/20251112_2-148_alpha_reproducibility/20251112_2-148_005_gamma_reproducibility_K1_03_CVA_C01.mpt
EC-Lab ASCII FILE
Nb header lines : 66

Cyclic Voltammetry Advanced

Run on channel : 1 (SN 69187)
User :
CE vs. WE compliance from -10 V to 10 V
Electrode connection : standard
Potential control : Ewe
Ewe ctrl range : min = -1.00 V, max = 1.00 V
Safety Limits :
	Do not start on E overload
Acquisition started on : 11/12/2025 19:09:25.688
Loaded Setting File :  C:\Users\User\Documents\EC-Lab\Data\Yatsuzuka\20251030_2-147_gamma_reproducibility\20251030_2-147_001_gamma1_K_1.mps
Saved on :
	File : 20251112_2-148_005_gamma_reproducibility_K1_03_CVA_C01.mpr
	Directory : C:\Users\User\Documents\EC-Lab\Data\Yatsuzuka\20251112_2-148_alpha_reproducibility\
	Host : 192.109.209.127
Device : SP-150e (SN .003883)
Address : 192.109.209.128
EC-Lab for windows v11.52 (software)
Internet server v11.52 (firmware)
Command interpretor v11.50 (firmware)
Electrode material :
Initial state :
Electrolyte :
Comments :
Electrode surface area : 0.001 cm2
Characteristic mass : 0.001 g
Equivalent Weight : 0.000 g/eq.
Density : 0.000 g/cm3
Volume (V) : 0.001 cm3
Cycle Definition : Charge/Discharge alternance
Ei (V)              0.450
vs.                 Ref
ti (h:m:s)          0:00:10.0000
dti (s)             0.0000
dE/dt               5.000
dE/dt unit          mV/s
E1 (V)              0.700
vs.                 Ref
t1 (h:m:s)          0:00:0.0000
dt1 (s)             0.1000
Step percent        50
N                   10
E range min (V)     -1.000
E range max (V)     1.000
I Range             10 mA
I Range min         Unset
I Range max         Unset
I Range init        Unset
Bandwidth           5
E2 (V)              0.450
vs.                 Ref
t2 (h:m:s)          0:00:0.0000
dt2 (s)             0.1000
nc cycles           14
nr                  1
Reverse Scan        0
Ef (V)              0.000
vs.                 Eoc
tf (h:m:s)          0:00:0.0000
dtf (s)             0.1000

mode	ox/red	error	control changes	Ns changes	counter inc.	time/s	control/V	Ewe/V	<I>/mA	cycle number	(Q-Qo)/C	I Range	Ns	step time/s	P/W
2	0	0	0	0	0	232.468	0.449961	0.449697	-0.00247913	1	0.0000000E+000	11	0	0.000000000000000E+000	-1.11486e-06
2	1	0	1	0	0	235.12	0.463217	0.462929	0.00198458	1	5.38107e-06	11	0	2.5963	9.18718e-07
2	1	0	1	0	0	237.816	0.476699	0.476465	0.00209935	1	1.0993e-05	11	0	5.2926	1.00027e-06
2	1	0	1	0	0	240.512	0.49018	0.490011	0.00213033	1	1.67189e-05	11	0	7.9888	1.04389e-06
2	1	0	1	0	0	243.208	0.503661	0.50342	0.00217593	1	2.26367e-05	11	0	10.6851	1.0954e-06
2	1	0	1	0	0	245.905	0.517143	0.516928	0.00216096	1	2.88702e-05	11	0	13.3814	1.11706e-06
2	1	0	1	0	0	248.601	0.530624	0.530387	0.00243368	1	3.55519e-05	11	0	16.0776	1.29079e-06
2	1	0	1	0	0	251.297	0.544105	0.543848	0.00264647	1	4.29312e-05	11	0	18.7739	1.43928e-06
2	1	0	1	0	0	253.993	0.557587	0.55733	0.00304269	1	5.13125e-05	11	0	21.4702	1.69578e-06
2	1	0	1	0	0	256.69	0.571067	0.570864	0.00381988	1	6.10625e-05	11	0	24.1664	2.18063e-06
2	1	0	1	0	0	259.386	0.584549	0.584329	0.00483334	1	7.29804e-05	11	0	26.8627	2.82426e-06
2	1	0	1	0	0	262.082	0.598031	0.597782	0.00651565	1	8.83362e-05	11	0	29.559	3.89494e-06
2	1	0	1	0	0	264.778	0.611512	0.611345	0.00897029	1	0.00010938	11	0	32.2552	5.48394e-06
2	1	0	1	0	0	267.475	0.624993	0.624777	0.0135399	1	0.000139975	11	0	34.9515	8.45943e-06
2	1	0	1	0	0	270.171	0.638475	0.638286	0.0209945	1	0.000186328	11	0	37.6478	1.34005e-05
2	1	0	1	0	0	272.867	0.651956	0.651745	0.0324256	1	0.000257587	11	0	40.344	2.11332e-05
2	1	0	1	0	0	275.564	0.665437	0.665244	0.0494806	1	0.000366728	11	0	43.0403	3.29167e-05
2	1	0	0	0	0	278.26	0.678918	0.678705	0.0745435	1	0.000531969	11	0	45.7365	5.05931e-05
2	1	0	1	0	0	280.956	0.6924	0.692121	0.111422	1	0.000780136	11	0	48.4328	7.71173e-05
2	1	0	1	0	0	283.435	0.695196	0.694996	0.114683	1	0.00109131	11	0	50.9116	7.97044e-05
2	1	0	1	0	0	286.131	0.681715	0.68154	0.0692176	1	0.00133341	11	0	53.6078	4.71746e-05
2	1	0	0	0	0	288.827	0.668233	0.668	0.0419876	1	0.00147961	11	0	56.3041	2.80477e-05
2	1	0	1	0	0	291.524	0.654751	0.654473	0.0254396	1	0.00156796	11	0	59.0004	1.66495e-05
2	1	0	1	0	0	294.22	0.641271	0.641046	0.0150965	1	0.00162081	11	0	61.6966	9.67754e-06
2	1	0	0	0	0	296.916	0.627789	0.627584	0.00886889	1	0.00165216	11	0	64.3929	5.56598e-06
2	1	0	1	0	0	299.612	0.614307	0.614052	0.00527417	1	0.00167061	11	0	67.0892	3.23861e-06
2	1	0	1	0	0	302.309	0.600827	0.600555	0.00330718	1	0.00168143	11	0	69.7854	1.98615e-06
2	1	0	0	0	0	305.005	0.587345	0.587108	0.00202271	1	0.00168787	11	0	72.4817	1.18755e-06
2	1	0	1	0	0	307.701	0.573864	0.57363	0.00121707	1	0.00169169	11	0	75.1779	6.98147e-07
2	1	0	1	0	0	310.397	0.560382	0.560143	0.000762162	1	0.00169406	11	0	77.8742	4.26919e-07
2	1	0	1	0	0	313.094	0.546902	0.546703	0.000503689	1	0.00169552	11	0	80.5704	2.75368e-07
2	1	0	1	0	0	315.79	0.53342	0.533198	0.000565341	1	0.00169647	11	0	83.2667	3.01439e-07
2	1	0	1	0	0	318.486	0.519939	0.519712	0.000319757	1	0.00169703	11	0	0.4993	1.66182e-07
2	1	0	1	0	0	321.182	0.506458	0.506226	0.000195019	1	0.00169736	11	0	0.1997	9.87238e-08
2	0	0	1	0	0	323.879	0.492976	0.492775	8.35464e-06	1	0.00169752	11	0	0.000000000000000E+000	4.11696e-09
2	1	0	1	0	0	326.575	0.479494	0.479304	0.000123133	1	0.00169747	11	0	0.0999	5.90183e-08
2	0	0	1	0	0	329.271	0.466014	0.465766	0.000153853	1	0.00169721	11	0	0.1997	7.16594e-08
2	0	0	1	0	0	331.968	0.452532	0.452296	3.60382e-05	1	0.00169678	11	0	0.2996	1.62999e-08
2	0	0	1	0	1	334.521	0.460272	0.459987	0.00127614	2	0.00169977	11	0	2.0519	5.87007e-07
2	1	0	1	0	1	337.217	0.473753	0.473494	0.00152985	2	0.00170406	11	0	4.7481	7.24373e-07
2	1	0	1	0	1	339.914	0.487234	0.486996	0.00151763	2	0.0017083	11	0	7.4444	7.3908e-07
2	0	0	0	0	1	342.61	0.500715	0.500465	0.00135727	2	0.00171254	11	0	10.1406	6.79264e-07
2	1	0	1	0	1	345.306	0.514197	0.513942	0.00131594	2	0.00171675	11	0	12.8369	6.76318e-07
2	1	0	1	0	1	348.002	0.527678	0.527502	0.00146063	2	0.00172102	11	0	15.5331	7.70485e-07
2	1	0	0	0	1	350.699	0.541159	0.540918	0.00162696	2	0.0017255	11	0	18.2294	8.80055e-07
2	0	0	1	0	1	353.395	0.554641	0.554407	0.00189213	2	0.00173035	11	0	20.9257	1.04901e-06
2	1	0	1	0	1	356.091	0.568122	0.56792	0.00214862	2	0.00173583	11	0	23.6219	1.22024e-06
2	1	0	0	0	1	358.788	0.581603	0.581348	0.0026252	2	0.00174236	11	0	26.3182	1.52615e-06
2	1	0	1	0	1	361.484	0.595085	0.594841	0.00341232	2	0.0017507	11	0	29.0145	2.02979e-06
2	1	0	1	0	1	364.18	0.608565	0.608341	0.00480101	2	0.0017621	11	0	31.7107	2.92065e-06
2	1	0	0	0	1	366.876	0.622047	0.621786	0.00740387	2	0.00177892	11	0	34.407	4.60362e-06
2	1	0	1	0	1	369.573	0.635529	0.635296	0.0119849	2	0.00180501	11	0	37.1033	7.61394e-06
2	1	0	1	0	1	372.269	0.64901	0.648801	0.0193403	2	0.00184665	11	0	39.7995	1.2548e-05
2	1	0	0	0	1	374.965	0.662491	0.662294	0.0313834	2	0.00191392	11	0	42.4958	2.0785e-05
2	1	0	1	0	1	377.661	0.675973	0.675741	0.0504837	2	0.0020225	11	0	45.1921	3.41139e-05
2	1	0	1	0	1	380.358	0.689454	0.689259	0.0804073	2	0.00219626	11	0	47.8883	5.54214e-05
2	1	0	1	0	1	382.826	0.698192	0.697953	0.106398	2	0.00244021	11	0	50.3571	7.42609e-05
2	1	0	0	0	1	385.523	0.68471	0.684518	0.0646671	2	0.00266559	11	0	53.0534	4.42658e-05
2	1	0	1	0	1	388.219	0.671229	0.671012	0.0392773	2	0.00280242	11	0	55.7496	2.63555e-05
2	1	0	1	0	1	390.915	0.657748	0.657509	0.0236214	2	0.00288483	11	0	58.4459	1.55313e-05
2	1	0	1	0	1	393.611	0.644267	0.644031	0.0139599	2	0.00293386	11	0	61.1421	8.99063e-06
2	1	0	1	0	1	396.308	0.630785	0.630524	0.00809853	2	0.00296262	11	0	63.8384	5.10632e-06
2	1	0	1	0	1	399.004	0.617303	0.617112	0.00480286	2	0.00297929	11	0	66.5347	2.9639e-06
2	1	0	1	0	1	401.7	0.603823	0.603591	0.00296655	2	0.00298895	11	0	69.2309	1.79058e-06
2	1	0	1	0	1	404.397	0.590341	0.5901	0.00162402	2	0.00299452	11	0	71.9272	9.58334e-07
2	1	0	1	0	1	407.093	0.576859	0.576653	0.00103406	2	0.00299774	11	0	74.6235	5.96297e-07
2	1	0	1	0	1	409.789	0.563379	0.563153	0.000757442	2	0.0029997	11	0	77.3197	4.26556e-07
2	0	0	1	0	1	412.485	0.549897	0.549634	0.000396588	2	0.00300085	11	0	80.016	2.17979e-07
2	0	0	1	0	1	415.182	0.536415	0.536154	0.000247856	2	0.00300153	11	0	82.7123	1.32889e-07
2	1	0	1	0	1	417.878	0.522935	0.522721	0.000192187	2	0.00300192	11	0	0.000000000000000E+000	1.00461e-07
2	1	0	1	0	1	420.574	0.509453	0.509224	0.000253973	2	0.00300218	11	0	0.000000000000000E+000	1.29329e-07
2	1	0	0	0	1	423.27	0.495972	0.495732	0.000232249	2	0.00300226	11	0	0.000000000000000E+000	1.15133e-07
2	0	0	1	0	1	425.967	0.482491	0.482274	0.000151862	2	0.00300215	11	0	0.000000000000000E+000	7.32389e-08
2	1	0	1	0	1	428.663	0.46901	0.468795	4.18834e-05	2	0.00300189	11	0	0.000000000000000E+000	1.96347e-08
2	0	0	0	0	1	431.359	0.455528	0.455335	-0.00018683	2	0.0030015	11	0	0.3994	-8.50702e-08
2	0	0	1	0	0	433.913	0.457276	0.457051	0.00144857	3	0.00300338	11	0	1.3981	6.62071e-07
2	1	0	1	0	0	436.609	0.470756	0.470545	0.00148056	3	0.00300747	11	0	4.0943	6.96672e-07
2	1	0	0	0	0	439.305	0.484238	0.483976	0.00132267	3	0.00301155	11	0	6.7906	6.40139e-07
2	0	0	1	0	0	442.002	0.49772	0.497468	0.00127155	3	0.00301563	11	0	9.4869	6.32557e-07
2	1	0	1	0	0	444.698	0.511201	0.510964	0.00143827	3	0.00301972	11	0	12.1831	7.34906e-07
2	1	0	0	0	0	447.394	0.524682	0.524413	0.00152882	3	0.00302389	11	0	14.8794	8.01733e-07
2	1	0	1	0	0	450.09	0.538164	0.537932	0.0014901	3	0.00302814	11	0	17.5757	8.01572e-07
2	0	0	1	0	0	452.787	0.551645	0.551465	0.00149405	3	0.00303259	11	0	20.2719	8.23917e-07
2	0	0	0	0	0	455.483	0.565126	0.564982	0.00176796	3	0.00303749	11	0	22.9682	9.98866e-07
2	1	0	1	0	0	458.179	0.578607	0.57836	0.00223652	3	0.00304315	11	0	25.6644	1.29351e-06
2	1	0	1	0	0	460.875	0.592089	0.591832	0.00287652	3	0.00305016	11	0	28.3607	1.70242e-06
2	1	0	1	0	0	463.572	0.60557	0.605336	0.00388013	3	0.00305953	11	0	31.0569	2.34878e-06
2	1	0	1	0	0	466.268	0.619051	0.618809	0.00584474	3	0.003073	11	0	33.7532	3.61678e-06
2	1	0	1	0	0	468.964	0.632533	0.632319	0.00945472	3	0.00309362	11	0	36.4495	5.9784e-06
2	1	0	1	0	0	471.66	0.646014	0.645774	0.0153257	3	0.00312667	11	0	39.1457	9.89693e-06
2	1	0	1	0	0	474.357	0.659495	0.659259	0.0253399	3	0.00318069	11	0	41.842	1.67055e-05
2	1	0	1	0	0	477.053	0.672977	0.672773	0.0414351	3	0.00326953	11	0	44.5383	2.78764e-05
2	1	0	1	0	0	479.749	0.686457	0.686292	0.0674699	3	0.00341436	11	0	47.2345	4.6304e-05
2	1	0	1	0	0	482.426	0.699839	0.699604	0.107743	3	0.00364575	11	0	49.9108	7.53774e-05
2	1	0	1	0	0	484.914	0.687706	0.687475	0.0685306	3	0.00386155	11	0	52.3996	4.71131e-05
2	1	0	1	0	0	487.611	0.674224	0.673977	0.0414901	3	0.00400674	11	0	55.0959	2.79634e-05
2	1	0	1	0	0	490.307	0.660744	0.660505	0.0249501	3	0.00409428	11	0	57.7921	1.64797e-05
2	1	0	1	0	0	493.003	0.647262	0.647019	0.0147495	3	0.00414613	11	0	60.4884	9.54324e-06
2	1	0	1	0	0	495.699	0.63378	0.633589	0.00857211	3	0.00417619	11	0	63.1847	5.43119e-06
2	1	0	1	0	0	498.396	0.6203	0.620056	0.00489563	3	0.00419339	11	0	65.8809	3.03557e-06
2	1	0	1	0	0	501.092	0.606818	0.606588	0.00282045	3	0.00420323	11	0	68.5772	1.71085e-06
2	1	0	0	0	0	503.788	0.593337	0.593092	0.00171592	3	0.00420889	11	0	71.2734	1.0177e-06
2	0	0	1	0	0	506.484	0.579856	0.579624	0.00108615	3	0.00421221	11	0	73.9697	6.29558e-07
2	1	0	1	0	0	509.181	0.566375	0.566185	0.000715526	3	0.00421431	11	0	76.6659	4.0512e-07
2	1	0	0	0	0	511.877	0.552893	0.552664	0.000654871	3	0.00421562	11	0	79.3622	3.61923e-07
2	1	0	1	0	0	514.573	0.539411	0.539202	0.000486773	3	0.00421644	11	0	82.0585	2.62469e-07
2	1	0	1	0	0	517.269	0.525931	0.525724	0.00022298	3	0.00421697	11	0	0.1997	1.17226e-07
2	0	0	0	0	0	519.966	0.512449	0.512211	0.000134845	3	0.00421722	11	0	0.000000000000000E+000	6.90693e-08
2	1	0	1	0	0	522.662	0.498968	0.49869	0.000193734	3	0.00421732	11	0	0.000000000000000E+000	9.66131e-08
2	1	0	1	0	0	525.358	0.485487	0.485272	0.000242656	3	0.0042173	11	0	0.000000000000000E+000	1.17754e-07
2	1	0	0	0	0	528.055	0.472005	0.471757	0.000108782	3	0.00421716	11	0	0.0999	5.13185e-08
2	1	0	1	0	0	530.751	0.458523	0.458315	-4.0898e-05	3	0.00421694	11	0	0.000000000000000E+000	-1.87441e-08
2	0	0	1	0	1	533.304	0.45428	0.454016	0.00141765	4	0.00421805	11	0	0.7989	6.43638e-07
2	1	0	0	0	1	536.001	0.467761	0.467554	0.00146138	4	0.00422217	11	0	3.4952	6.83273e-07
2	0	0	1	0	1	538.697	0.481243	0.481009	0.00156724	4	0.00422633	11	0	6.1915	7.53858e-07
2	0	0	1	0	1	541.393	0.494724	0.494501	0.00140472	4	0.00423042	11	0	8.8877	6.94636e-07
2	1	0	0	0	1	544.09	0.508205	0.507967	0.00128004	4	0.00423447	11	0	11.584	6.50216e-07
2	1	0	1	0	1	546.786	0.521686	0.521475	0.00131258	4	0.00423854	11	0	14.2802	6.84477e-07
2	1	0	1	0	1	549.482	0.535168	0.534947	0.00139386	4	0.00424269	11	0	16.9765	7.45641e-07
2	1	0	1	0	1	552.178	0.548649	0.548413	0.0015639	4	0.00424708	11	0	19.6727	8.57663e-07
2	1	0	1	0	1	554.875	0.56213	0.561938	0.00189232	4	0.00425186	11	0	22.369	1.06336e-06
2	1	0	1	0	1	557.571	0.575612	0.575361	0.00205989	4	0.00425719	11	0	25.0653	1.18518e-06
2	1	0	1	0	1	560.267	0.589093	0.588822	0.00243399	4	0.00426353	11	0	27.7615	1.43319e-06
2	1	0	1	0	1	562.963	0.602574	0.602331	0.0033756	4	0.00427174	11	0	30.4578	2.03323e-06
2	1	0	1	0	1	565.66	0.616056	0.61579	0.00506054	4	0.00428326	11	0	33.1541	3.11623e-06
2	1	0	1	0	1	568.356	0.629537	0.629318	0.00785994	4	0.00430063	11	0	35.8503	4.94641e-06
2	1	0	1	0	1	571.052	0.643018	0.642834	0.0128937	4	0.0043285	11	0	38.5466	8.28851e-06
2	1	0	0	0	1	573.748	0.656499	0.65627	0.021872	4	0.00437472	11	0	41.2428	1.43539e-05
2	1	0	1	0	1	576.445	0.669981	0.669764	0.0365685	4	0.00445205	11	0	43.9391	2.44922e-05
2	1	0	1	0	1	579.141	0.683461	0.683299	0.0599541	4	0.00458	11	0	46.6353	4.09665e-05
2	1	0	0	0	1	581.837	0.696943	0.696736	0.0968901	4	0.00478841	11	0	49.3316	6.75068e-05
2	1	0	0	0	1	584.306	0.690702	0.690492	0.0766737	4	0.00501945	11	0	51.8004	5.29426e-05
2	1	0	1	0	1	587.002	0.677221	0.676985	0.046896	4	0.00518224	11	0	54.4967	3.17479e-05
2	1	0	1	0	1	589.698	0.66374	0.663525	0.0280652	4	0.00528076	11	0	57.1929	1.8622e-05
2	1	0	0	0	1	592.395	0.650258	0.650012	0.0162433	4	0.00533876	11	0	59.8892	1.05583e-05
2	1	0	1	0	1	595.091	0.636777	0.636546	0.00918031	4	0.0053719	11	0	62.5855	5.84369e-06
2	1	0	1	0	1	597.787	0.623296	0.623068	0.00513289	4	0.00539042	11	0	65.2817	3.19814e-06
2	1	0	0	0	1	600.484	0.609814	0.609573	0.0030152	4	0.00540073	11	0	67.978	1.83798e-06
2	1	0	1	0	1	603.18	0.596332	0.596108	0.00175212	4	0.0054065	11	0	70.6743	1.04445e-06
2	1	0	1	0	1	605.876	0.582852	0.58262	0.00102903	4	0.00540982	11	0	73.3705	5.99536e-07
2	1	0	0	0	1	608.572	0.56937	0.569136	0.000627187	4	0.00541182	11	0	76.0668	3.56955e-07
2	1	0	1	0	1	611.269	0.555888	0.555644	0.000372783	4	0.00541297	11	0	78.7631	2.07135e-07
2	1	0	1	0	1	613.965	0.542408	0.542139	0.000362717	4	0.00541358	11	0	81.4593	1.96643e-07
2	1	0	0	0	1	616.661	0.528926	0.528726	0.000316998	4	0.00541392	11	0	0.0999	1.67605e-07
2	0	0	1	0	1	619.357	0.515445	0.515231	0.000200256	4	0.00541402	11	0	0.0998	1.03178e-07
2	0	0	1	0	1	622.054	0.501964	0.501692	8.53041e-06	4	0.00541401	11	0	0.0999	4.27964e-09
2	1	0	1	0	1	624.75	0.488483	0.488258	-3.93491e-05	4	0.00541387	11	0	0.000000000000000E+000	-1.92125e-08
2	0	0	1	0	1	627.446	0.475001	0.474787	-4.0239e-05	4	0.0054136	11	0	0.000000000000000E+000	-1.9105e-08
2	1	0	1	0	1	630.142	0.461519	0.461284	0.000106711	4	0.00541326	11	0	0.699	4.92242e-08
2	1	0	1	0	0	632.696	0.451284	0.451054	0.00109436	5	0.00541315	11	0	0.1997	4.93617e-07
2	1	0	1	0	0	635.392	0.464765	0.464542	0.00123255	5	0.00541704	11	0	2.896	5.7257e-07
2	1	0	1	0	0	638.089	0.478247	0.478004	0.00141458	5	0.00542097	11	0	5.5923	6.76175e-07
2	1	0	1	0	0	640.785	0.491728	0.491511	0.00144137	5	0.005425	11	0	8.2885	7.08452e-07
2	0	0	1	0	0	643.481	0.505209	0.504945	0.00141529	5	0.00542897	11	0	10.9848	7.14643e-07
2	1	0	1	0	0	646.177	0.518691	0.518479	0.00125129	5	0.00543289	11	0	13.6811	6.48769e-07
2	0	0	1	0	0	648.874	0.532172	0.531913	0.00126447	5	0.00543686	11	0	16.3773	6.72586e-07
2	0	0	1	0	0	651.57	0.545653	0.545423	0.00153361	5	0.005441	11	0	19.0736	8.36464e-07
2	1	0	1	0	0	654.266	0.559135	0.558871	0.00157874	5	0.00544542	11	0	21.7699	8.82311e-07
2	1	0	1	0	0	656.962	0.572616	0.572397	0.00177837	5	0.00545031	11	0	24.4661	1.01793e-06
2	1	0	1	0	0	659.659	0.586097	0.585869	0.00214462	5	0.00545612	11	0	27.1623	1.25647e-06
2	1	0	0	0	0	662.355	0.599578	0.59934	0.00302094	5	0.00546338	11	0	29.8586	1.81057e-06
2	1	0	1	0	0	665.051	0.61306	0.612821	0.00430853	5	0.00547331	11	0	32.5549	2.64035e-06
2	1	0	1	0	0	667.747	0.626541	0.626346	0.00678748	5	0.00548825	11	0	35.2511	4.25131e-06
2	1	0	0	0	0	670.444	0.640022	0.639796	0.011237	5	0.0055124	11	0	37.9474	7.1894e-06
2	1	0	1	0	0	673.14	0.653504	0.653277	0.0192446	5	0.0055531	11	0	40.6437	1.25721e-05
2	1	0	1	0	0	675.836	0.666985	0.666745	0.0329947	5	0.00562239	11	0	43.3399	2.1999e-05
2	1	0	0	0	0	678.533	0.680466	0.680266	0.0548811	5	0.00573892	11	0	46.0362	3.73337e-05
2	1	0	1	0	0	681.229	0.693948	0.693745	0.0893114	5	0.00593048	11	0	48.7325	6.19593e-05
2	1	0	1	0	0	683.698	0.693698	0.693471	0.0876602	5	0.00617424	11	0	51.2013	6.07898e-05
2	1	0	1	0	0	686.394	0.680217	0.679994	0.0541241	5	0.00636125	11	0	53.8975	3.68041e-05
2	1	0	0	0	0	689.09	0.666735	0.666493	0.0326722	5	0.00647547	11	0	56.5938	2.17758e-05
2	1	0	1	0	0	691.786	0.653253	0.653048	0.0190203	5	0.00654297	11	0	59.2901	1.24212e-05
2	1	0	1	0	0	694.483	0.639773	0.639511	0.0106486	5	0.00658134	11	0	61.9863	6.8099e-06
2	1	0	0	0	0	697.179	0.626291	0.62605	0.0059222	5	0.0066024	11	0	64.6826	3.70759e-06
2	1	0	1	0	0	699.875	0.61281	0.612586	0.00332418	5	0.00661387	11	0	67.3788	2.03635e-06
2	1	0	1	0	0	702.571	0.599329	0.599097	0.00193081	5	0.00662021	11	0	70.0751	1.15674e-06
2	1	0	1	0	0	705.268	0.585848	0.585641	0.0010526	5	0.00662385	11	0	72.7713	6.16445e-07
2	1	0	1	0	0	707.964	0.572366	0.572151	0.000728203	5	0.00662603	11	0	75.4676	4.16642e-07
2	1	0	1	0	0	710.66	0.558885	0.558686	0.000575165	5	0.00662734	11	0	78.1639	3.21337e-07
2	1	0	1	0	0	713.356	0.545404	0.545174	0.000436023	5	0.00662811	11	0	80.8601	2.37708e-07
2	1	0	1	0	0	716.053	0.531922	0.531721	0.000333122	5	0.00662853	11	0	0.000000000000000E+000	1.77128e-07
2	1	0	1	0	0	718.749	0.51844	0.518206	0.000277824	5	0.00662878	11	0	0.000000000000000E+000	1.4397e-07
2	1	0	1	0	0	721.445	0.50496	0.504682	0.000172609	5	0.00662878	11	0	0.0998	8.71129e-08
2	0	0	1	0	0	724.142	0.491478	0.491249	0.000149792	5	0.00662865	11	0	0.0999	7.35849e-08
2	1	0	1	0	0	726.838	0.477996	0.477739	4.11372e-05	5	0.0066284	11	0	0.000000000000000E+000	1.96529e-08
2	0	0	1	0	0	729.534	0.464516	0.464283	-3.07745e-05	5	0.0066281	11	0	0.000000000000000E+000	-1.42881e-08
2	0	0	1	0	0	732.23	0.451034	0.450807	-0.000149575	5	0.00662761	11	0	0.7989	-6.74293e-08
2	1	0	1	0	1	734.784	0.46177	0.461503	0.00140127	6	0.00663088	11	0	2.2969	6.4669e-07
2	1	0	1	0	1	737.48	0.475251	0.474975	0.00133109	6	0.00663475	11	0	4.9931	6.32235e-07
2	1	0	1	0	1	740.176	0.488732	0.488528	0.00122566	6	0.00663854	11	0	7.6893	5.98768e-07
2	0	0	0	0	1	742.873	0.502213	0.501924	0.00110981	6	0.00664227	11	0	10.3856	5.57042e-07
2	1	0	1	0	1	745.569	0.515695	0.515489	0.00131779	6	0.00664606	11	0	13.0819	6.79307e-07
2	1	0	1	0	1	748.265	0.529175	0.528931	0.00145481	6	0.0066499	11	0	15.7781	7.69495e-07
2	1	0	0	0	1	750.962	0.542657	0.542416	0.00138989	6	0.00665394	11	0	18.4744	7.53897e-07
2	1	0	1	0	1	753.658	0.556139	0.555912	0.00138733	6	0.0066582	11	0	21.1707	7.71233e-07
2	1	0	1	0	1	756.354	0.56962	0.569414	0.00158128	6	0.00666286	11	0	23.8669	9.00403e-07
2	1	0	0	0	1	759.05	0.583101	0.582842	0.00208802	6	0.00666821	11	0	26.5632	1.21698e-06
2	1	0	1	0	1	761.747	0.596583	0.596348	0.00267788	6	0.00667487	11	0	29.2595	1.59695e-06
2	1	0	1	0	1	764.443	0.610064	0.609844	0.00373628	6	0.00668384	11	0	31.9557	2.27855e-06
2	1	0	0	0	1	767.139	0.623545	0.623313	0.00591131	6	0.00669703	11	0	34.652	3.68459e-06
2	1	0	1	0	1	769.835	0.637026	0.636827	0.0099791	6	0.00671829	11	0	37.3482	6.35496e-06
2	1	0	1	0	1	772.532	0.650508	0.650289	0.0173645	6	0.00675464	11	0	40.0445	1.1292e-05
2	1	0	1	0	1	775.228	0.663989	0.663786	0.0302033	6	0.00681785	11	0	42.7407	2.00485e-05
2	1	0	1	0	1	777.924	0.67747	0.677204	0.0513171	6	0.00692616	11	0	45.437	3.47522e-05
2	1	0	1	0	1	780.62	0.690952	0.690737	0.0841283	6	0.0071061	11	0	48.1333	5.81105e-05
2	1	0	1	0	1	783.089	0.696693	0.69647	0.102369	6	0.00735671	11	0	50.6021	7.12972e-05
2	1	0	1	0	1	785.785	0.683213	0.683039	0.0638629	6	0.0075764	11	0	53.2983	4.36208e-05
2	1	0	1	0	1	788.482	0.669731	0.669535	0.0388913	6	0.00771193	11	0	55.9946	2.60391e-05
2	1	0	1	0	1	791.178	0.65625	0.656016	0.0226356	6	0.00779255	11	0	58.6909	1.48494e-05
2	1	0	1	0	1	793.874	0.642769	0.6425	0.0125213	6	0.00783815	11	0	61.3871	8.04495e-06
2	1	0	1	0	1	796.571	0.629287	0.629056	0.00668556	6	0.00786268	11	0	64.0834	4.20559e-06
2	1	0	1	0	1	799.267	0.615806	0.615549	0.00362486	6	0.00787557	11	0	66.7797	2.23128e-06
2	1	0	1	0	1	801.963	0.602325	0.602076	0.00207626	6	0.00788243	11	0	69.4759	1.25006e-06
2	0	0	1	0	1	804.659	0.588843	0.588625	0.00124322	6	0.00788617	11	0	72.1722	7.31792e-07
2	1	0	1	0	1	807.356	0.575361	0.575145	0.000782989	6	0.00788836	11	0	74.8685	4.50332e-07
2	1	0	1	0	1	810.052	0.561881	0.561654	0.000561847	6	0.00788972	11	0	77.5647	3.15564e-07
2	1	0	1	0	1	812.748	0.548399	0.548247	0.000379581	6	0.0078906	11	0	80.261	2.08104e-07
2	1	0	0	0	1	815.444	0.534918	0.534652	0.000234675	6	0.00789115	11	0	82.9572	1.2547e-07
2	1	0	1	0	1	818.141	0.521437	0.521179	0.000251767	6	0.00789152	11	0	0.000000000000000E+000	1.31215e-07
2	1	0	1	0	1	820.837	0.507956	0.507743	0.000315903	6	0.00789176	11	0	0.000000000000000E+000	1.60397e-07
2	1	0	0	0	1	823.533	0.494474	0.494238	0.000202803	6	0.00789182	11	0	0.000000000000000E+000	1.00233e-07
2	1	0	1	0	1	826.229	0.480993	0.480751	3.40584e-05	6	0.00789168	11	0	0.0999	1.63736e-08
2	0	0	1	0	1	828.926	0.467512	0.467324	-8.74606e-05	6	0.00789145	11	0	0.000000000000000E+000	-4.08724e-08
2	1	0	0	0	1	831.622	0.45403	0.453764	-4.67732e-06	6	0.00789104	11	0	0.4993	-2.1224e-09
2	1	0	1	0	0	834.176	0.458774	0.458519	0.0013335	7	0.00789337	11	0	1.6977	6.11436e-07
2	0	0	1	0	0	836.872	0.472255	0.472041	0.00125549	7	0.00789726	11	0	4.3939	5.92641e-07
2	0	0	0	0	0	839.568	0.485736	0.485455	0.00127672	7	0.00790115	11	0	7.0902	6.19791e-07
2	1	0	1	0	0	842.264	0.499218	0.49896	0.00127144	7	0.00790503	11	0	9.7865	6.34399e-07
2	1	0	1	0	0	844.961	0.512699	0.512476	0.0013896	7	0.00790897	11	0	12.4827	7.12136e-07
2	1	0	0	0	0	847.657	0.52618	0.525996	0.00134939	7	0.0079129	11	0	15.179	7.09774e-07
2	1	0	1	0	0	850.353	0.539662	0.539428	0.00125525	7	0.00791691	11	0	17.8753	6.77116e-07
2	1	0	1	0	0	853.049	0.553143	0.552944	0.00137559	7	0.00792109	11	0	20.5715	7.60623e-07
2	1	0	0	0	0	855.746	0.566624	0.56642	0.00153331	7	0.00792563	11	0	23.2678	8.68498e-07
2	1	0	1	0	0	858.442	0.580105	0.579841	0.00190794	7	0.0079307	11	0	25.964	1.1063e-06
2	1	0	1	0	0	861.138	0.593587	0.593356	0.00250193	7	0.00793681	11	0	28.6603	1.48454e-06
2	1	0	1	0	0	863.834	0.607068	0.60688	0.00345787	7	0.00794486	11	0	31.3565	2.09852e-06
2	1	0	1	0	0	866.531	0.620549	0.620344	0.00521354	7	0.00795651	11	0	34.0528	3.23419e-06
2	1	0	1	0	0	869.227	0.634031	0.633832	0.00878795	7	0.0079753	11	0	36.7491	5.57008e-06
2	1	0	1	0	0	871.923	0.647512	0.6473	0.0157875	7	0.00800808	11	0	39.4453	1.02193e-05
2	1	0	1	0	0	874.62	0.660993	0.660798	0.0283099	7	0.00806648	11	0	42.1416	1.87071e-05
2	1	0	1	0	0	877.316	0.674475	0.674299	0.0487955	7	0.00816869	11	0	44.8379	3.29028e-05
2	1	0	1	0	0	880.012	0.687956	0.687779	0.0806595	7	0.00834056	11	0	47.5341	5.54759e-05
2	1	0	1	0	0	882.481	0.69969	0.699474	0.120283	7	0.0085896	11	0	50.0029	8.41346e-05
2	1	0	1	0	0	885.177	0.686208	0.685997	0.076316	7	0.00884996	11	0	52.6992	5.23525e-05
2	1	0	1	0	0	887.873	0.672726	0.672509	0.0470066	7	0.00901317	11	0	55.3955	3.16124e-05
2	1	0	1	0	0	890.57	0.659246	0.659031	0.0275994	7	0.00911142	11	0	58.0917	1.81889e-05
2	1	0	1	0	0	893.266	0.645764	0.64556	0.0151607	7	0.00916719	11	0	60.788	9.78717e-06
2	1	0	0	0	0	895.962	0.632283	0.632073	0.00780509	7	0.00919688	11	0	63.4842	4.93339e-06
2	1	0	1	0	0	898.658	0.618802	0.618553	0.0041767	7	0.00921191	11	0	66.1805	2.58351e-06
2	1	0	1	0	0	901.355	0.605321	0.605106	0.00215382	7	0.00921967	11	0	68.8767	1.30329e-06
2	1	0	0	0	0	904.051	0.591839	0.591619	0.00119102	7	0.00922378	11	0	71.573	7.0463e-07
2	1	0	1	0	0	906.747	0.578358	0.578118	0.000828492	7	0.00922611	11	0	74.2693	4.78966e-07
2	1	0	1	0	0	909.443	0.564877	0.564699	0.000635352	7	0.00922757	11	0	76.9655	3.58783e-07
2	0	0	0	0	0	912.14	0.551395	0.551122	0.000330251	7	0.00922845	11	0	79.6618	1.82009e-07
2	0	0	1	0	0	914.836	0.537913	0.537725	0.000171695	7	0.00922896	11	0	0.1998	9.23248e-08
2	1	0	1	0	0	917.532	0.524433	0.524183	0.000181649	7	0.00922916	11	0	0.0998	9.52173e-08
2	1	0	0	0	0	920.229	0.510951	0.510725	0.000273853	7	0.00922926	11	0	0.000000000000000E+000	1.39863e-07
2	1	0	1	0	0	922.925	0.497469	0.497256	0.000100572	7	0.00922919	11	0	0.000000000000000E+000	5.00098e-08
2	0	0	1	0	0	925.621	0.483989	0.483713	9.83456e-05	7	0.00922901	11	0	0.0998	4.7571e-08
2	1	0	0	0	0	928.317	0.470507	0.470251	0.000171364	7	0.00922882	11	0	0.000000000000000E+000	8.05842e-08
2	1	0	1	0	0	931.014	0.457026	0.456733	2.38209e-05	7	0.00922854	11	0	0.000000000000000E+000	1.08798e-08
2	0	0	1	0	1	933.567	0.455778	0.455559	0.00128269	8	0.00922995	11	0	1.0985	5.84341e-07
2	1	0	1	0	1	936.263	0.469259	0.469015	0.0014775	8	0.0092339	11	0	3.7947	6.92968e-07
2	1	0	1	0	1	938.96	0.48274	0.482522	0.00125371	8	0.00923782	11	0	6.491	6.04945e-07
2	1	0	1	0	1	941.656	0.496222	0.49594	0.00129496	8	0.00924173	11	0	9.1873	6.42225e-07
2	1	0	1	0	1	944.352	0.509702	0.509497	0.00137139	8	0.00924566	11	0	11.8835	6.98722e-07
2	0	0	1	0	1	947.049	0.523184	0.52296	0.00117696	8	0.00924953	11	0	14.5798	6.15502e-07
2	1	0	1	0	1	949.745	0.536666	0.536408	0.00147291	8	0.00925355	11	0	17.2761	7.90078e-07
2	1	0	1	0	1	952.441	0.550147	0.549951	0.00147849	8	0.00925769	11	0	19.9723	8.13097e-07
2	1	0	1	0	1	955.137	0.563628	0.563411	0.00143347	8	0.00926206	11	0	22.6686	8.07636e-07
2	1	0	1	0	1	957.834	0.57711	0.576899	0.0019003	8	0.00926694	11	0	25.3649	1.09628e-06
2	1	0	1	0	1	960.53	0.590591	0.59037	0.00222715	8	0.00927271	11	0	28.0611	1.31484e-06
2	1	0	1	0	1	963.226	0.604072	0.60391	0.00311474	8	0.00928012	11	0	30.7574	1.88102e-06
2	1	0	1	0	1	965.922	0.617554	0.617344	0.00470913	8	0.00929059	11	0	33.4537	2.90715e-06
2	1	0	1	0	1	968.619	0.631035	0.630796	0.00796624	8	0.0093074	11	0	36.1499	5.02507e-06
2	1	0	1	0	1	971.315	0.644516	0.644288	0.014412	8	0.00933704	11	0	38.8462	9.2855e-06
2	1	0	0	0	1	974.011	0.657997	0.657772	0.0265129	8	0.00939128	11	0	41.5424	1.74394e-05
2	1	0	1	0	1	976.707	0.671479	0.67123	0.0467872	8	0.00948833	11	0	44.2387	3.1405e-05
2	1	0	1	0	1	979.404	0.68496	0.684792	0.078	8	0.00965395	11	0	46.9349	5.34138e-05
2	1	0	0	0	1	982.1	0.698441	0.698229	0.124529	8	0.00992347	11	0	49.6312	8.69501e-05
2	1	0	0	0	1	984.569	0.689204	0.688951	0.0918442	8	0.0102001	11	0	52.1	6.32762e-05
2	1	0	1	0	1	987.265	0.675722	0.675503	0.0572696	8	0.0103975	11	0	54.7963	3.86858e-05
2	1	0	1	0	1	989.961	0.662242	0.662009	0.0339359	8	0.0105181	11	0	57.4925	2.24658e-05
2	1	0	0	0	1	992.658	0.64876	0.648533	0.0187974	8	0.0105871	11	0	60.1888	1.21907e-05
2	1	0	1	0	1	995.354	0.635278	0.635064	0.00970291	8	0.0106239	11	0	62.8851	6.16197e-06
2	1	0	1	0	1	998.05	0.621798	0.621563	0.00470173	8	0.0106423	11	0	65.5813	2.92242e-06
2	1	0	0	0	1	1000.75	0.608316	0.608063	0.00261894	8	0.0106514	11	0	68.2776	1.59248e-06
2	1	0	1	0	1	1003.44	0.594834	0.594658	0.00149199	8	0.0106561	11	0	70.9739	8.87223e-07
2	0	0	1	0	1	1006.14	0.581354	0.581084	0.000864963	8	0.0106588	11	0	73.6701	5.02616e-07
2	1	0	0	0	1	1008.84	0.567872	0.56768	0.000565709	8	0.0106605	11	0	76.3664	3.21142e-07
2	1	0	1	0	1	1011.53	0.554391	0.554108	0.000507636	8	0.0106614	11	0	79.0626	2.81286e-07
2	0	0	1	0	1	1014.23	0.54091	0.540658	0.000249311	8	0.0106619	11	0	81.7589	1.34792e-07
2	0	0	1	0	1	1016.92	0.527429	0.527245	0.000187219	8	0.0106622	11	0	0.0998	9.87102e-08
2	1	0	1	0	1	1019.62	0.513947	0.513686	0.000255078	8	0.0106624	11	0	0.0999	1.3103e-07
2	1	0	1	0	1	1022.32	0.500466	0.500171	-3.17851e-05	8	0.0106624	11	0	0.000000000000000E+000	-1.5898e-08
2	1	0	1	0	1	1025.01	0.486985	0.486748	0.000164519	8	0.0106623	11	0	0.1997	8.00793e-08
2	0	0	1	0	1	1027.71	0.473503	0.473242	6.58571e-05	8	0.0106621	11	0	0.000000000000000E+000	3.11664e-08
2	0	0	1	0	1	1030.41	0.460021	0.459771	-8.65929e-05	8	0.0106618	11	0	0.0999	-3.98129e-08
2	1	0	1	0	0	1032.96	0.452782	0.452545	0.0013033	9	0.0106623	11	0	0.4993	5.898e-07
2	1	0	1	0	0	1035.66	0.466263	0.466019	0.00117254	9	0.0106661	11	0	3.1956	5.46426e-07
2	1	0	1	0	0	1038.35	0.479745	0.479532	0.00125334	9	0.0106699	11	0	5.8919	6.01016e-07
2	1	0	1	0	0	1041.05	0.493226	0.492986	0.00141423	9	0.0106738	11	0	8.5881	6.97195e-07
2	1	0	1	0	0	1043.74	0.506707	0.5065	0.00129285	9	0.0106776	11	0	11.2844	6.54827e-07
2	0	0	1	0	0	1046.44	0.520189	0.51995	0.00119833	9	0.0106814	11	0	13.9807	6.23072e-07
2	1	0	1	0	0	1049.14	0.53367	0.533481	0.00125076	9	0.0106853	11	0	16.6769	6.67257e-07
2	1	0	1	0	0	1051.83	0.547151	0.546942	0.00149429	9	0.0106893	11	0	19.3732	8.1729e-07
2	1	0	0	0	0	1054.53	0.560632	0.560432	0.00155399	9	0.0106935	11	0	22.0694	8.70906e-07
2	0	0	1	0	0	1057.23	0.574114	0.573857	0.00159911	9	0.0106982	11	0	24.7657	9.17659e-07
2	1	0	1	0	0	1059.92	0.587594	0.587354	0.00209292	9	0.0107035	11	0	27.4619	1.22928e-06
2	1	0	0	0	0	1062.62	0.601076	0.600776	0.00277149	9	0.0107102	11	0	30.1582	1.66505e-06
2	1	0	1	0	0	1065.31	0.614558	0.614371	0.00406533	9	0.0107195	11	0	32.8545	2.49762e-06
2	1	0	1	0	0	1068.01	0.628039	0.627776	0.00703322	9	0.0107344	11	0	35.5507	4.41529e-06
2	1	0	0	0	0	1070.71	0.64152	0.641266	0.0132856	9	0.0107611	11	0	38.247	8.51961e-06
2	1	0	1	0	0	1073.4	0.655002	0.654763	0.0247019	9	0.0108112	11	0	40.9433	1.61739e-05
2	1	0	1	0	0	1076.1	0.668483	0.668281	0.0447335	9	0.0109032	11	0	43.6395	2.98945e-05
2	1	0	0	0	0	1078.8	0.681964	0.681737	0.0757026	9	0.0110631	11	0	46.3358	5.16093e-05
2	1	0	1	0	0	1081.49	0.695445	0.695239	0.121416	9	0.0113255	11	0	49.032	8.44132e-05
2	1	0	1	0	0	1083.96	0.692199	0.691973	0.109676	9	0.0116385	11	0	51.5009	7.58929e-05
2	1	0	1	0	0	1086.66	0.678719	0.678495	0.0696627	9	0.0118764	11	0	54.1971	4.72658e-05
2	1	0	0	0	0	1089.35	0.665237	0.66501	0.041995	9	0.0120242	11	0	56.8934	2.79271e-05
2	1	0	1	0	0	1092.05	0.651756	0.651527	0.0234412	9	0.01211	11	0	59.5896	1.52726e-05
2	1	0	1	0	0	1094.75	0.638274	0.638066	0.0119806	9	0.0121557	11	0	62.2859	7.64444e-06
2	1	0	1	0	0	1097.44	0.624794	0.62459	0.00574891	9	0.0121783	11	0	64.9821	3.59072e-06
2	1	0	1	0	0	1100.14	0.611312	0.611097	0.00281088	9	0.0121891	11	0	67.6784	1.71772e-06
2	1	0	1	0	0	1102.83	0.59783	0.597606	0.00149179	9	0.0121945	11	0	70.3747	8.91504e-07
2	1	0	1	0	0	1105.53	0.58435	0.584121	0.000906822	9	0.0121974	11	0	73.0709	5.29694e-07
2	1	0	1	0	0	1108.23	0.570868	0.570632	0.000553782	9	0.0121991	11	0	75.7672	3.16005e-07
2	1	0	1	0	0	1110.92	0.557387	0.557177	0.000518877	9	0.0122001	11	0	78.4635	2.89107e-07
2	0	0	1	0	0	1113.62	0.543906	0.543661	0.000385877	9	0.0122007	11	0	81.1597	2.09786e-07
2	1	0	1	0	0	1116.32	0.530424	0.530193	0.000370966	9	0.0122011	11	0	1.5978	1.96684e-07
2	1	0	1	0	0	1119.01	0.516942	0.51668	0.000237828	9	0.0122013	11	0	0.0999	1.22881e-07
2	1	0	1	0	0	1121.71	0.503462	0.50317	0.000182058	9	0.0122014	11	0	0.0998	9.16062e-08
2	1	0	1	0	0	1124.4	0.48998	0.48976	0.000193011	9	0.0122013	11	0	0.0999	9.45289e-08
2	0	0	0	0	0	1127.1	0.476499	0.476248	7.87387e-05	9	0.0122012	11	0	0.0998	3.74992e-08
2	0	0	1	0	0	1129.8	0.463018	0.46276	0.000107197	9	0.012201	11	0	0.000000000000000E+000	4.96063e-08
2	1	0	0	0	1	1132.4	0.450011	0.449831	-0.00057072	9	0.0122007	11	0	0.3021	-2.56727e-07
2	0	0	0	0	1	1135.05	0.463267	0.462964	0.00129918	10	0.0122044	11	0	2.5964	6.01473e-07
2	1	0	1	0	1	1137.74	0.476749	0.476511	0.00143875	10	0.0122083	11	0	5.2927	6.85582e-07
2	1	0	1	0	1	1140.44	0.49023	0.489979	0.00129968	10	0.0122122	11	0	7.9889	6.36816e-07
2	1	0	0	0	1	1143.14	0.503711	0.50345	0.00111607	10	0.012216	11	0	10.6852	5.61885e-07
2	0	0	1	0	1	1145.83	0.517193	0.516941	0.00129874	10	0.0122198	11	0	13.3815	6.7137e-07
2	1	0	1	0	1	1148.53	0.530674	0.530499	0.00150008	10	0.0122238	11	0	16.0777	7.95792e-07
2	1	0	0	0	1	1151.22	0.544155	0.543966	0.00137303	10	0.0122279	11	0	18.774	7.46879e-07
2	1	0	1	0	1	1153.92	0.557637	0.557454	0.00142525	10	0.0122321	11	0	21.4703	7.94509e-07
2	1	0	1	0	1	1156.62	0.571118	0.570864	0.00162456	10	0.0122366	11	0	24.1665	9.27405e-07
2	1	0	0	0	1	1159.31	0.584599	0.584342	0.00196337	10	0.0122418	11	0	26.8628	1.14728e-06
2	1	0	1	0	1	1162.01	0.598081	0.597845	0.00244119	10	0.012248	11	0	29.5591	1.45945e-06
2	1	0	1	0	1	1164.71	0.611562	0.611365	0.00371771	10	0.0122566	11	0	32.2553	2.27288e-06
2	1	0	0	0	1	1167.4	0.625043	0.624829	0.00633252	10	0.0122701	11	0	34.9516	3.95674e-06
2	1	0	1	0	1	1170.1	0.638524	0.638308	0.0119321	10	0.0122943	11	0	37.6478	7.61638e-06
2	1	0	1	0	1	1172.79	0.652006	0.651798	0.0232157	10	0.0123406	11	0	40.3441	1.51319e-05
2	1	0	1	0	1	1175.49	0.665486	0.665243	0.0428021	10	0.0124277	11	0	43.0403	2.84738e-05
2	1	0	1	0	1	1178.19	0.678968	0.678764	0.073411	10	0.0125821	11	0	45.7366	4.98287e-05
2	1	0	1	0	1	1180.88	0.69245	0.692204	0.118617	10	0.0128383	11	0	48.4329	8.2107e-05
2	1	0	1	0	1	1183.35	0.695196	0.69495	0.130044	10	0.0131762	11	0	50.9017	9.03738e-05
2	1	0	1	0	1	1186.05	0.681715	0.681507	0.0845924	10	0.0134615	11	0	53.5979	5.76503e-05
2	1	0	1	0	1	1188.74	0.668233	0.667999	0.0518507	10	0.0136421	11	0	56.2942	3.46362e-05
2	1	0	1	0	1	1191.44	0.654751	0.654522	0.0294546	10	0.013749	11	0	58.9905	1.92787e-05
2	1	0	1	0	1	1194.14	0.641271	0.641036	0.0151245	10	0.0138068	11	0	61.6867	9.69533e-06
2	1	0	1	0	1	1196.83	0.627789	0.627588	0.00728945	10	0.0138354	11	0	64.383	4.57477e-06
2	1	0	1	0	1	1199.53	0.614307	0.614103	0.00346048	10	0.0138487	11	0	67.0793	2.12509e-06
2	1	0	1	0	1	1202.23	0.600827	0.600605	0.00171633	10	0.0138551	11	0	69.7755	1.03084e-06
2	1	0	1	0	1	1204.92	0.587345	0.587084	0.00111239	10	0.0138585	11	0	72.4718	6.53065e-07
2	1	0	0	0	1	1207.62	0.573864	0.573657	0.00084513	10	0.0138605	11	0	75.168	4.84815e-07
2	1	0	1	0	1	1210.31	0.560382	0.560157	0.000530809	10	0.0138618	11	0	77.8643	2.97337e-07
2	1	0	1	0	1	1213.01	0.546902	0.546686	0.000292684	10	0.0138627	11	0	80.5605	1.60006e-07
2	1	0	0	0	1	1215.71	0.53342	0.533147	0.000375752	10	0.0138633	11	0	83.2568	2.00331e-07
2	1	0	1	0	1	1218.4	0.519939	0.519721	0.000376831	10	0.0138637	11	0	0.0999	1.95847e-07
2	1	0	1	0	1	1221.1	0.506458	0.506242	0.000103939	10	0.0138639	11	0	0.000000000000000E+000	5.26182e-08
2	0	0	0	0	1	1223.8	0.492976	0.492746	0.000159584	10	0.013864	11	0	0.0999	7.86344e-08
2	1	0	1	0	1	1226.49	0.479494	0.479255	0.0002008	10	0.0138641	11	0	0.000000000000000E+000	9.62343e-08
2	1	0	1	0	1	1229.19	0.466014	0.46573	0.000239534	10	0.0138641	11	0	0.0998	1.11558e-07
2	1	0	0	0	1	1231.88	0.452532	0.45228	-3.86193e-05	10	0.013864	11	0	0.000000000000000E+000	-1.74667e-08
2	1	0	1	0	0	1234.44	0.460272	0.459999	0.00138132	11	0.0138669	11	0	2.0519	6.35405e-07
2	1	0	1	0	0	1237.13	0.473753	0.473535	0.00140555	11	0.0138709	11	0	4.7481	6.65579e-07
2	0	0	0	0	0	1239.83	0.487234	0.487018	0.00126995	11	0.0138749	11	0	7.4444	6.18489e-07
2	0	0	1	0	0	1242.53	0.500715	0.500447	0.00121015	11	0.0138788	11	0	10.1406	6.05617e-07
2	0	0	1	0	0	1245.22	0.514197	0.513963	0.00142223	11	0.0138827	11	0	12.8369	7.30976e-07
2	0	0	1	0	0	1247.92	0.527678	0.52752	0.00117592	11	0.0138867	11	0	15.5331	6.20321e-07
2	1	0	1	0	0	1250.62	0.541159	0.54091	0.00133702	11	0.0138907	11	0	18.2294	7.23209e-07
2	1	0	1	0	0	1253.31	0.554641	0.554418	0.00149089	11	0.0138949	11	0	20.9257	8.26579e-07
2	1	0	1	0	0	1256.01	0.568122	0.567929	0.00166098	11	0.0138993	11	0	23.6219	9.43316e-07
2	0	0	1	0	0	1258.7	0.581603	0.58137	0.00177142	11	0.0139042	11	0	26.3182	1.02985e-06
2	1	0	1	0	0	1261.4	0.595085	0.594837	0.00230633	11	0.0139102	11	0	29.0145	1.37189e-06
2	1	0	1	0	0	1264.1	0.608565	0.608317	0.00328763	11	0.0139182	11	0	31.7107	1.99992e-06
2	1	0	1	0	0	1266.79	0.622047	0.621808	0.00568844	11	0.0139304	11	0	34.407	3.53711e-06
2	1	0	1	0	0	1269.49	0.635529	0.635296	0.0108831	11	0.0139522	11	0	37.1033	6.91397e-06
2	1	0	1	0	0	1272.19	0.64901	0.64881	0.0214799	11	0.0139945	11	0	39.7995	1.39364e-05
2	1	0	1	0	0	1274.88	0.662491	0.662249	0.0405115	11	0.0140763	11	0	42.4958	2.68287e-05
2	1	0	1	0	0	1277.58	0.675973	0.675725	0.0708768	11	0.0142242	11	0	45.1921	4.78933e-05
2	1	0	1	0	0	1280.27	0.689454	0.689239	0.11566	11	0.0144731	11	0	47.8883	7.97177e-05
2	1	0	1	0	0	1282.74	0.698192	0.697933	0.154084	11	0.0148226	11	0	50.3571	0.000107541
2	1	0	1	0	0	1285.44	0.68471	0.684536	0.101562	11	0.0151624	11	0	53.0534	6.95227e-05
2	1	0	0	0	0	1288.14	0.671229	0.670981	0.0635061	11	0.0153815	11	0	55.7496	4.26114e-05
2	1	0	1	0	0	1290.83	0.657748	0.657494	0.0366474	11	0.0155135	11	0	58.4459	2.40955e-05
2	1	0	1	0	0	1293.53	0.644267	0.644057	0.0189796	11	0.015586	11	0	61.1421	1.2224e-05
2	1	0	0	0	0	1296.22	0.630785	0.630532	0.00892713	11	0.0156219	11	0	63.8384	5.62884e-06
2	1	0	1	0	0	1298.92	0.617303	0.617045	0.00410315	11	0.0156383	11	0	66.5347	2.53183e-06
2	1	0	1	0	0	1301.62	0.603823	0.603605	0.00199232	11	0.0156458	11	0	69.2309	1.20257e-06
2	1	0	0	0	0	1304.31	0.590341	0.590084	0.0012765	11	0.0156495	11	0	71.9272	7.53243e-07
2	0	0	1	0	0	1307.01	0.576859	0.57659	0.000773917	11	0.0156515	11	0	74.6235	4.46233e-07
2	0	0	1	0	0	1309.71	0.563379	0.563132	0.000468553	11	0.0156528	11	0	77.3197	2.63857e-07
2	1	0	0	0	0	1312.4	0.549897	0.549681	0.000279522	11	0.0156536	11	0	80.016	1.53648e-07
2	0	0	1	0	0	1315.1	0.536415	0.536173	0.00017827	11	0.0156541	11	0	82.7123	9.55838e-08
2	0	0	1	0	0	1317.8	0.522935	0.522702	0.000152797	11	0.0156544	11	0	0.000000000000000E+000	7.98673e-08
2	1	0	0	0	0	1320.49	0.509453	0.509221	0.000217455	11	0.0156546	11	0	0.000000000000000E+000	1.10732e-07
2	1	0	1	0	0	1323.19	0.495972	0.495732	0.000281562	11	0.0156546	11	0	0.000000000000000E+000	1.39579e-07
2	1	0	1	0	0	1325.88	0.482491	0.482246	9.10426e-05	11	0.0156546	11	0	0.000000000000000E+000	4.3905e-08
2	1	0	1	0	0	1328.58	0.46901	0.468759	-4.56604e-05	11	0.0156545	11	0	0.000000000000000E+000	-2.14038e-08
2	1	0	1	0	0	1331.28	0.455528	0.455308	8.19077e-05	11	0.0156543	11	0	0.0999	3.72933e-08
2	1	0	1	0	1	1333.83	0.457276	0.457024	0.00138579	12	0.0156563	11	0	1.4527	6.33339e-07
2	0	0	1	0	1	1336.53	0.470756	0.470531	0.00121395	12	0.0156602	11	0	4.1489	5.71204e-07
2	0	0	1	0	1	1339.22	0.484238	0.483964	0.00120943	12	0.0156641	11	0	6.8452	5.85319e-07
2	1	0	1	0	1	1341.92	0.49772	0.497459	0.00131604	12	0.0156679	11	0	9.5415	6.54676e-07
2	1	0	1	0	1	1344.62	0.511201	0.510917	0.00138963	12	0.0156717	11	0	12.2377	7.09983e-07
2	1	0	1	0	1	1347.31	0.524682	0.524413	0.00141499	12	0.0156756	11	0	14.934	7.42041e-07
2	1	0	1	0	1	1350.01	0.538164	0.537912	0.00140059	12	0.0156797	11	0	17.6303	7.53396e-07
2	1	0	1	0	1	1352.7	0.551645	0.551426	0.00128691	12	0.0156837	11	0	20.3265	7.09638e-07
2	0	0	1	0	1	1355.4	0.565126	0.56492	0.0014588	12	0.015688	11	0	23.0228	8.24106e-07
2	1	0	0	0	1	1358.1	0.578607	0.578349	0.00181062	12	0.0156927	11	0	25.719	1.04717e-06
2	1	0	1	0	1	1360.79	0.592089	0.591874	0.00223123	12	0.0156982	11	0	28.4153	1.32061e-06
2	1	0	1	0	1	1363.49	0.60557	0.605358	0.00308767	12	0.0157055	11	0	31.1115	1.86915e-06
2	1	0	0	0	1	1366.19	0.619051	0.618793	0.00497169	12	0.0157164	11	0	33.8078	3.07645e-06
2	1	0	1	0	1	1368.88	0.632533	0.632283	0.00966826	12	0.0157359	11	0	36.5041	6.11308e-06
2	1	0	1	0	1	1371.58	0.646014	0.645816	0.0196874	12	0.0157745	11	0	39.2003	1.27144e-05
2	1	0	0	0	1	1374.27	0.659495	0.659288	0.0382518	12	0.0158506	11	0	41.8966	2.52189e-05
2	1	0	1	0	1	1376.97	0.672977	0.67274	0.0682228	12	0.0159916	11	0	44.5929	4.58962e-05
2	1	0	1	0	1	1379.67	0.686457	0.686216	0.112645	12	0.0162326	11	0	47.2891	7.72989e-05
2	1	0	0	0	1	1382.34	0.699839	0.699579	0.174104	12	0.0166127	11	0	49.9654	0.0001218
2	1	0	0	0	1	1384.83	0.687706	0.687494	0.120562	12	0.0169761	11	0	52.4542	8.28855e-05
2	1	0	1	0	1	1387.53	0.674224	0.674003	0.0766418	12	0.0172386	11	0	55.1505	5.16568e-05
2	1	0	1	0	1	1390.22	0.660744	0.660505	0.0452397	12	0.0174	11	0	57.8467	2.98811e-05
2	1	0	0	0	1	1392.92	0.647262	0.647051	0.0238776	12	0.0174905	11	0	60.543	1.54501e-05
2	1	0	1	0	1	1395.62	0.63378	0.633522	0.0114641	12	0.017536	11	0	63.2393	7.26273e-06
2	1	0	1	0	1	1398.31	0.6203	0.620058	0.00518693	12	0.0175568	11	0	65.9355	3.2162e-06
2	1	0	0	0	1	1401.01	0.606818	0.606575	0.00233157	12	0.017566	11	0	68.6318	1.41427e-06
2	1	0	1	0	1	1403.71	0.593337	0.593122	0.0012378	12	0.0175703	11	0	71.328	7.34168e-07
2	1	0	1	0	1	1406.4	0.579856	0.579608	0.000886491	12	0.0175726	11	0	74.0243	5.13817e-07
2	1	0	1	0	1	1409.1	0.566375	0.566169	0.000418112	12	0.017574	11	0	76.7205	2.36722e-07
2	1	0	1	0	1	1411.79	0.552893	0.552665	0.000317366	12	0.0175749	11	0	79.4168	1.75397e-07
2	1	0	1	0	1	1414.49	0.539411	0.539132	0.000343629	12	0.0175755	11	0	82.1131	1.85262e-07
2	1	0	1	0	1	1417.19	0.525931	0.525722	0.000382891	12	0.017576	11	0	0.0998	2.01294e-07
2	0	0	1	0	1	1419.88	0.512449	0.512157	0.000163265	12	0.0175763	11	0	0.1997	8.36175e-08
2	0	0	1	0	1	1422.58	0.498968	0.498737	9.41545e-05	12	0.0175764	11	0	0.0999	4.69583e-08
2	1	0	1	0	1	1425.28	0.485487	0.485261	0.000240688	12	0.0175764	11	0	0.000000000000000E+000	1.16797e-07
2	1	0	1	0	1	1427.97	0.472005	0.471713	2.66877e-05	12	0.0175764	11	0	0.000000000000000E+000	1.25889e-08
2	1	0	1	0	1	1430.67	0.458523	0.458253	-2.4478e-05	12	0.0175763	11	0	0.0999	-1.12171e-08
2	1	0	1	0	0	1433.22	0.45428	0.454033	0.00136675	13	0.0175774	11	0	0.7989	6.20549e-07
2	1	0	1	0	0	1435.92	0.467761	0.467502	0.00117637	13	0.0175812	11	0	3.4952	5.49955e-07
2	1	0	1	0	0	1438.61	0.481243	0.480995	0.0012996	13	0.0175851	11	0	6.1915	6.25103e-07
2	1	0	1	0	0	1441.31	0.494724	0.494537	0.00135466	13	0.017589	11	0	8.8877	6.69927e-07
2	0	0	1	0	0	1444.01	0.508205	0.507936	0.0012098	13	0.0175928	11	0	11.584	6.14499e-07
2	1	0	0	0	0	1446.7	0.521686	0.521444	0.00136876	13	0.0175967	11	0	14.2802	7.1373e-07
2	1	0	1	0	0	1449.4	0.535168	0.534928	0.00139161	13	0.0176006	11	0	16.9765	7.44413e-07
2	1	0	1	0	0	1452.1	0.548649	0.548393	0.00144313	13	0.0176047	11	0	19.6727	7.91402e-07
2	1	0	0	0	0	1454.79	0.56213	0.561919	0.0013061	13	0.0176088	11	0	22.369	7.33922e-07
2	1	0	1	0	0	1457.49	0.575612	0.575354	0.00162901	13	0.0176134	11	0	25.0653	9.37256e-07
2	1	0	1	0	0	1460.18	0.589093	0.588892	0.00212058	13	0.0176186	11	0	27.7615	1.24879e-06
2	1	0	0	0	0	1462.88	0.602574	0.602276	0.00290851	13	0.0176254	11	0	30.4578	1.75173e-06
2	1	0	1	0	0	1465.58	0.616056	0.615834	0.00446459	13	0.0176353	11	0	33.1541	2.74945e-06
2	1	0	1	0	0	1468.27	0.629537	0.629278	0.00870612	13	0.0176528	11	0	35.8503	5.47857e-06
2	1	0	0	0	0	1470.97	0.643018	0.642815	0.0178723	13	0.0176874	11	0	38.5466	1.14886e-05
2	1	0	1	0	0	1473.67	0.656499	0.656245	0.0355662	13	0.0177574	11	0	41.2428	2.33402e-05
2	1	0	1	0	0	1476.36	0.669981	0.669716	0.0648859	13	0.0178904	11	0	43.9391	4.34551e-05
2	1	0	1	0	0	1479.06	0.683461	0.683287	0.109165	13	0.0181221	11	0	46.6353	7.45911e-05
2	1	0	1	0	0	1481.75	0.696943	0.696701	0.170446	13	0.0184953	11	0	49.3316	0.00011875
2	1	0	1	0	0	1484.22	0.690702	0.69047	0.142186	13	0.018908	11	0	51.8004	9.81749e-05
2	1	0	1	0	0	1486.92	0.677221	0.677055	0.0925009	13	0.0192208	11	0	54.4967	6.26282e-05
2	1	0	1	0	0	1489.62	0.66374	0.663504	0.0556406	13	0.0194173	11	0	57.1929	3.69177e-05
2	1	0	1	0	0	1492.31	0.650258	0.6501	0.0300697	13	0.01953	11	0	59.8892	1.95483e-05
2	1	0	1	0	0	1495.01	0.636777	0.636582	0.0145754	13	0.0195878	11	0	62.5855	9.27847e-06
2	1	0	1	0	0	1497.7	0.623296	0.623034	0.00642039	13	0.0196142	11	0	65.2817	4.00012e-06
2	1	0	1	0	0	1500.4	0.609814	0.60961	0.00293229	13	0.0196257	11	0	67.978	1.78756e-06
2	1	0	1	0	0	1503.1	0.596332	0.59615	0.00160012	13	0.019631	11	0	70.6743	9.53915e-07
2	0	0	1	0	0	1505.79	0.582852	0.582581	0.000876723	13	0.0196337	11	0	73.3705	5.10762e-07
2	1	0	1	0	0	1508.49	0.56937	0.569145	0.000613272	13	0.0196353	11	0	76.0668	3.49041e-07
2	1	0	1	0	0	1511.19	0.555888	0.555685	0.000498201	13	0.0196364	11	0	78.7631	2.76843e-07
2	0	0	1	0	0	1513.88	0.542408	0.542153	0.000306989	13	0.0196371	11	0	81.4593	1.66435e-07
2	1	0	1	0	0	1516.58	0.528926	0.528743	0.000261999	13	0.0196375	11	0	0.2996	1.3853e-07
2	1	0	0	0	0	1519.27	0.515445	0.515263	0.000275634	13	0.0196378	11	0	0.0998	1.42024e-07
2	1	0	1	0	0	1521.97	0.501964	0.501693	0.00013182	13	0.0196379	11	0	0.000000000000000E+000	6.6133e-08
2	0	0	1	0	0	1524.67	0.488483	0.488276	0.000145561	13	0.019638	11	0	0.0998	7.10739e-08
2	0	0	0	0	0	1527.36	0.475001	0.474751	0.00022224	13	0.0196379	11	0	0.000000000000000E+000	1.05509e-07
2	1	0	1	0	0	1530.06	0.461519	0.461264	8.03433e-05	13	0.0196378	11	0	0.0999	3.70594e-08
2	1	0	1	0	1	1532.61	0.451284	0.451075	0.00124944	14	0.0196379	11	0	0.1997	5.63593e-07
2	1	0	0	0	1	1535.31	0.464765	0.464511	0.00139732	14	0.0196417	11	0	2.896	6.49071e-07
2	0	0	1	0	1	1538.01	0.478247	0.478036	0.00121781	14	0.0196456	11	0	5.5923	5.82156e-07
2	1	0	1	0	1	1540.7	0.491728	0.491495	0.00131814	14	0.0196494	11	0	8.2885	6.47859e-07
2	1	0	0	0	1	1543.4	0.505209	0.504956	0.00138135	14	0.0196534	11	0	10.9848	6.97519e-07
2	1	0	1	0	1	1546.09	0.518691	0.51849	0.00125024	14	0.0196573	11	0	13.6811	6.4824e-07
2	1	0	1	0	1	1548.79	0.532172	0.531936	0.00131131	14	0.0196612	11	0	16.3773	6.97532e-07
2	1	0	0	0	1	1551.49	0.545653	0.545419	0.00147647	14	0.0196652	11	0	19.0736	8.05296e-07
2	1	0	1	0	1	1554.18	0.559135	0.558873	0.00138808	14	0.0196693	11	0	21.7699	7.7576e-07
2	1	0	1	0	1	1556.88	0.572616	0.572396	0.00159524	14	0.0196737	11	0	24.4661	9.13109e-07
2	1	0	1	0	1	1559.58	0.586097	0.585884	0.00196207	14	0.0196788	11	0	27.1623	1.14955e-06
2	1	0	1	0	1	1562.27	0.599578	0.599343	0.00245482	14	0.0196851	11	0	29.8586	1.47128e-06
2	1	0	1	0	1	1564.97	0.61306	0.612866	0.00411592	14	0.0196941	11	0	32.5549	2.52251e-06
2	1	0	1	0	1	1567.66	0.626541	0.62632	0.00774548	14	0.0197096	11	0	35.2511	4.85115e-06
2	1	0	1	0	1	1570.36	0.640022	0.639789	0.0158902	14	0.0197405	11	0	37.9474	1.01663e-05
2	1	0	1	0	1	1573.06	0.653504	0.653291	0.0326778	14	0.0198042	11	0	40.6437	2.13481e-05
2	1	0	1	0	1	1575.75	0.666985	0.66672	0.0613453	14	0.0199284	11	0	43.3399	4.09001e-05
2	1	0	1	0	1	1578.45	0.680466	0.680215	0.104931	14	0.0201497	11	0	46.0362	7.13753e-05
2	1	0	1	0	1	1581.15	0.693948	0.693702	0.165995	14	0.0205114	11	0	48.7325	0.000115151
2	1	0	1	0	1	1583.61	0.693698	0.69344	0.166476	14	0.020962	11	0	51.2013	0.000115441
2	1	0	1	0	1	1586.31	0.680217	0.679965	0.109834	14	0.0213302	11	0	53.8975	7.46836e-05
2	1	0	1	0	1	1589.01	0.666735	0.66651	0.0674331	14	0.0215658	11	0	56.5938	4.49448e-05
2	1	0	1	0	1	1591.7	0.653253	0.653011	0.0374052	14	0.0217042	11	0	59.2901	2.4426e-05
2	1	0	1	0	1	1594.4	0.639773	0.639583	0.0182873	14	0.0217767	11	0	61.9863	1.16962e-05
2	1	0	1	0	1	1597.1	0.626291	0.626088	0.00805414	14	0.0218102	11	0	64.6826	5.0426e-06
2	1	0	0	0	1	1599.79	0.61281	0.612554	0.00357541	14	0.0218245	11	0	67.3788	2.19013e-06
2	1	0	1	0	1	1602.49	0.599329	0.599084	0.00163601	14	0.0218307	11	0	70.0751	9.80106e-07
2	0	0	1	0	1	1605.18	0.585848	0.585622	0.00090629	14	0.0218337	11	0	72.7713	5.30743e-07
2	0	0	0	0	1	1607.88	0.572366	0.572136	0.000679757	14	0.0218353	11	0	75.4676	3.88913e-07
2	1	0	1	0	1	1610.58	0.558885	0.558621	0.000516494	14	0.0218364	11	0	78.1639	2.88524e-07
2	0	0	1	0	1	1613.27	0.545404	0.545161	0.000306278	14	0.0218371	11	0	80.8601	1.66971e-07
2	0	0	0	0	1	1615.97	0.531922	0.531747	0.000216056	14	0.0218376	11	0	0.000000000000000E+000	1.14887e-07
2	1	0	1	0	1	1618.67	0.51844	0.518227	0.000285048	14	0.0218379	11	0	0.000000000000000E+000	1.47719e-07
2	1	0	1	0	1	1621.36	0.50496	0.504699	0.000225727	14	0.0218381	11	0	0.0998	1.13924e-07
2	1	0	0	0	1	1624.06	0.491478	0.491259	7.85209e-05	14	0.0218382	11	0	0.000000000000000E+000	3.85741e-08
2	1	0	1	0	1	1626.76	0.477996	0.477747	0.000119539	14	0.0218381	11	0	0.0999	5.71093e-08
2	1	0	1	0	1	1629.45	0.464516	0.464271	0.00016408	14	0.0218381	11	0	0.0998	7.61776e-08
2	1	0	0	0	1	1632.15	0.451034	0.450808	-3.27291e-05	14	0.0218379	11	0	0.0999	-1.47545e-08
2	1	0	1	0	0	1634.7	0.46177	0.46153	0.00139728	15	0.0218413	11	0	2.2969	6.44887e-07
2	1	0	1	0	0	1637.4	0.475251	0.475021	0.00128769	15	0.0218453	11	0	4.9931	6.11682e-07
2	1	0	1	0	0	1640.09	0.488732	0.488521	0.00141217	15	0.0218493	11	0	7.6893	6.89874e-07
2	1	0	1	0	0	1642.79	0.502213	0.50194	0.00135105	15	0.0218532	11	0	10.3856	6.78145e-07
2	1	0	1	0	0	1645.49	0.515695	0.515487	0.00117589	15	0.0218571	11	0	13.0819	6.06156e-07
2	1	0	1	0	0	1648.18	0.529175	0.528963	0.00132614	15	0.021861	11	0	15.7781	7.01482e-07
2	1	0	1	0	0	1650.88	0.542657	0.542407	0.00148737	15	0.021865	11	0	18.4744	8.06759e-07
2	0	0	1	0	0	1653.58	0.556139	0.555937	0.0013866	15	0.0218692	11	0	21.1707	7.7086e-07
2	1	0	1	0	0	1656.27	0.56962	0.569428	0.00153415	15	0.0218735	11	0	23.8669	8.73587e-07
2	1	0	1	0	0	1658.97	0.583101	0.582863	0.00189843	15	0.0218784	11	0	26.5632	1.10652e-06
2	0	0	1	0	0	1661.66	0.596583	0.596354	0.00227924	15	0.0218843	11	0	29.2595	1.35923e-06
2	1	0	1	0	0	1664.36	0.610064	0.609833	0.00374537	15	0.0218926	11	0	31.9557	2.28405e-06
2	1	0	1	0	0	1667.06	0.623545	0.623345	0.00681662	15	0.0219066	11	0	34.652	4.2491e-06
2	1	0	0	0	0	1669.75	0.637026	0.636794	0.0142941	15	0.0219341	11	0	37.3482	9.1024e-06
2	1	0	1	0	0	1672.45	0.650508	0.650278	0.0298828	15	0.0219917	11	0	40.0445	1.94321e-05
2	1	0	1	0	0	1675.15	0.663989	0.663766	0.0573952	15	0.0221067	11	0	42.7407	3.8097e-05
2	1	0	0	0	0	1677.84	0.67747	0.677248	0.100327	15	0.0223162	11	0	45.437	6.79464e-05
2	1	0	1	0	0	1680.54	0.690952	0.690718	0.160702	15	0.0226647	11	0	48.1333	0.000111
2	1	0	1	0	0	1683.01	0.696693	0.696458	0.193174	15	0.0231344	11	0	50.6021	0.000134538
2	1	0	1	0	0	1685.7	0.683213	0.683011	0.129364	15	0.0235645	11	0	53.2983	8.8357e-05
2	1	0	0	0	0	1688.4	0.669731	0.669533	0.0813064	15	0.0238448	11	0	55.9946	5.44373e-05
2	1	0	1	0	0	1691.1	0.65625	0.656023	0.0460259	15	0.0240131	11	0	58.6909	3.0194e-05
2	1	0	1	0	0	1693.79	0.642769	0.642572	0.0232924	15	0.0241033	11	0	61.3871	1.4967e-05
2	1	0	0	0	0	1696.49	0.629287	0.629099	0.0102836	15	0.0241461	11	0	64.0834	6.46942e-06
2	1	0	1	0	0	1699.18	0.615806	0.615558	0.00438388	15	0.0241643	11	0	66.7797	2.69853e-06
2	1	0	1	0	0	1701.88	0.602325	0.602039	0.00214923	15	0.0241721	11	0	69.4759	1.29392e-06
2	1	0	0	0	0	1704.58	0.588843	0.588629	0.00105783	15	0.0241758	11	0	72.1722	6.22669e-07
2	1	0	1	0	0	1707.27	0.575361	0.575141	0.000794197	15	0.0241778	11	0	74.8685	4.56776e-07
2	1	0	1	0	0	1709.97	0.561881	0.561667	0.000543697	15	0.024179	11	0	77.5647	3.05377e-07
2	0	0	0	0	0	1712.67	0.548399	0.548161	0.000287253	15	0.0241799	11	0	80.261	1.57461e-07
2	1	0	1	0	0	1715.36	0.534918	0.534768	0.000365714	15	0.0241805	11	0	82.9572	1.95572e-07
2	1	0	1	0	0	1718.06	0.521437	0.521215	0.000271531	15	0.0241809	11	0	85.6535	1.41526e-07
2	0	0	1	0	0	1720.75	0.507956	0.507764	0.000141997	15	0.0241812	11	0	0.000000000000000E+000	7.2101e-08
2	0	0	1	0	0	1723.45	0.494474	0.494245	0.000277092	15	0.0241814	11	0	0.000000000000000E+000	1.36952e-07
2	0	0	1	0	0	1726.15	0.480993	0.480773	0.000160463	15	0.0241816	11	0	0.0999	7.71463e-08
2	0	0	1	0	0	1728.84	0.467512	0.467273	-1.7365e-05	15	0.0241816	11	0	0.0998	-8.1142e-09
2	1	0	1	0	0	1731.54	0.45403	0.45384	0.000150528	15	0.0241815	11	0	0.000000000000000E+000	6.83156e-08
2	1	0	1	0	0	1732.34	0.450011	0.449773	8.03834e-05	15	0.0241814	11	0	0.3017	3.61543e-08