File: ACS_Catal_2026/Figures_Na_K/main_figures/data/EC/20251112_2-148_alpha_reproducibility/20251112_2-148_002_alpha_reproducibility_2_Na1_02_PEIS_C02.mpt
EC-Lab ASCII FILE
Nb header lines : 63

Potentio Electrochemical Impedance Spectroscopy

Run on channel : 2 (SN 69290)
User :
CE vs. WE compliance from -10 V to 10 V
Electrode connection : standard
Potential control : Ewe
Ewe ctrl range : min = -1.00 V, max = 1.00 V
Safety Limits :
	Do not start on E overload
Acquisition started on : 11/12/2025 13:57:42.969
Loaded Setting File :  C:\Users\User\Documents\EC-Lab\Data\Yatsuzuka\20251112_2-148_alpha_reproducibility\20251112_2-148_002_alpha_reproducibility_2_K1.mps
Saved on :
	File : 20251112_2-148_002_alpha_reproducibility_2_Na1_02_PEIS_C02.mpr
	Directory : C:\Users\User\Documents\EC-Lab\Data\Yatsuzuka\20251112_2-148_alpha_reproducibility\
	Host : 192.109.209.127
Device : SP-150e (SN .003883)
Address : 192.109.209.128
EC-LAB for windows v11.52 (software)
Internet server v11.52 (firmware)
Command interpretor v11.50 (firmware)
Electrode material :
Initial state :
Electrolyte :
Comments :
Electrode surface area : 0.001 cm2
Characteristic mass : 0.001 g
Equivalent Weight : 0.000 g/eq.
Density : 0.000 g/cm3
Volume (V) : 0.001 cm3
Cycle Definition : Charge/Discharge alternance
Mode                Single sine
E (V)               0.4500
vs.                 Ref
tE (h:m:s)          0:00:0.0000
record              0
dI                  0.000
unit dI             mA
dt (s)              0.000
fi                  500.000
unit fi             kHz
ff                  1.000
unit ff             Hz
Nd                  6
Points              per decade
spacing             Logarithmic
Va (mV)             10.0
pw                  0.10
Na                  2
corr                0
E range min (V)     -1.000
E range max (V)     1.000
I Range             Auto
Bandwidth           5
nc cycles           0
goto Ns'            0
nr cycles           0
inc. cycle          0

freq/Hz	Re(Z)/Ohm	-Im(Z)/Ohm	|Z|/Ohm	Phase(Z)/deg	time/s	<Ewe>/V	<I>/mA	Cs/uF	Cp/uF	cycle number	I Range	|Ewe|/V	|I|/A	Ns	(Q-Qo)/mA.h	Re(Y)/Ohm-1	Im(Y)/Ohm-1	|Y|/Ohm-1	Phase(Y)/deg	Re(C)/nF	Im(C)/nF	|C|/nF	Phase(C)/deg	Re(M)	Im(M)	|M|	Phase(M)/deg	Re(Permittivity)	Im(Permittivity)	|Permittivity|	Phase(Permittivity)/deg	Re(Resistivity)/Ohm.cm	Im(Resistivity)/Ohm.cm	|Resistivity|/Ohm.cm	Phase(Resistivity)/deg	Re(Conductivity)/mS/cm	Im(Conductivity)/mS/cm	|Conductivity|/mS/cm	Phase(Conductivity)/deg	Tan(Delta)	Loss Angle(Delta)/deg	dq/mA.h	Pwe/W	Rwe/Ohm
500019	13.352	-2.67426	13.6172	11.3259	201.614	0.449781	0.0197475	-0.119023	-0.00459055	1	10	0.00448075	0.000329052	0	3.25877e-05	0.0720066	-0.0144222	0.0734367	-11.3259	-4.59055	22.9196	23.3748	-101.326	0.0000000E+000	0.0000000E+000	0.0000000E+000	101.326	0.0000000E+000	0.0000000E+000	0.0000000E+000	-101.326	0.0000000E+000	0.0000000E+000	0.0000000E+000	11.3259	0.0000000E+000	0.0000000E+000	0.0000000E+000	-11.3259	4.99277	78.6741	3.25877e-05	8.88206e-06	22776.6
339899	9.30448	-1.39226	9.40806	8.51021	202.036	0.449667	0.0201167	-0.336318	-0.00736527	1	10	0.00709141	0.000753759	0	3.57854e-05	0.105121	-0.0157297	0.106292	-8.51021	-7.36527	49.2222	49.7702	-98.5102	0.0000000E+000	0.0000000E+000	0.0000000E+000	98.5102	0.0000000E+000	0.0000000E+000	0.0000000E+000	-98.5102	0.0000000E+000	0.0000000E+000	0.0000000E+000	8.51021	0.0000000E+000	0.0000000E+000	0.0000000E+000	-8.51021	6.68301	81.4898	3.19764e-06	9.04581e-06	22352.9
231063	7.94777	-0.626609	7.97243	4.50792	202.459	0.449535	0.0209446	-1.09924	-0.00679055	1	10	0.0101502	0.00127316	0	3.88554e-05	0.125044	-0.00985858	0.125432	-4.50792	-6.79055	86.1299	86.3972	-94.5079	0.0000000E+000	0.0000000E+000	0.0000000E+000	94.5079	0.0000000E+000	0.0000000E+000	0.0000000E+000	-94.5079	0.0000000E+000	0.0000000E+000	0.0000000E+000	4.50792	0.0000000E+000	0.0000000E+000	0.0000000E+000	-4.50792	12.6838	85.4921	3.07003e-06	9.41532e-06	21463.1
157076	7.5158	-0.200007	7.51846	1.52437	202.881	0.449521	0.0199545	-5.06602	-0.00358507	1	10	0.0109595	0.00145768	0	4.22239e-05	0.132959	-0.00353824	0.133006	-1.52437	-3.58507	134.719	134.767	-91.5244	0.0000000E+000	0.0000000E+000	0.0000000E+000	91.5244	0.0000000E+000	0.0000000E+000	0.0000000E+000	-91.5244	0.0000000E+000	0.0000000E+000	0.0000000E+000	1.52437	0.0000000E+000	0.0000000E+000	0.0000000E+000	-1.52437	37.5777	88.4756	3.36852e-06	8.96998e-06	22527.3
106786	7.4367	-0.0238254	7.43673	0.183561	203.303	0.449524	0.0181217	-62.5554	-0.000642067	1	10	0.0109517	0.00147265	0	4.66151e-05	0.134467	-0.0004308	0.134468	-0.183561	-0.642073	200.41	200.411	-90.1836	0.0000000E+000	0.0000000E+000	0.0000000E+000	90.1836	0.0000000E+000	0.0000000E+000	0.0000000E+000	-90.1836	0.0000000E+000	0.0000000E+000	0.0000000E+000	0.183561	0.0000000E+000	0.0000000E+000	0.0000000E+000	-0.183561	312.133	89.8164	4.39118e-06	8.14613e-06	24805.9
72595	7.42858	0.040966	7.42869	-0.315963	203.726	0.449533	0.0176928	53.5168	0.00162747	1	10	0.0107331	0.00144481	0	4.72548e-05	0.134611	0.000742333	0.134613	0.315963	1.62747	295.117	295.122	-89.684	0.0000000E+000	0.0000000E+000	0.0000000E+000	89.684	0.0000000E+000	0.0000000E+000	0.0000000E+000	-89.684	0.0000000E+000	0.0000000E+000	0.0000000E+000	-0.315963	0.0000000E+000	0.0000000E+000	0.0000000E+000	0.315963	181.335	89.684	6.39724e-07	7.95351e-06	25407.6
49352.4	7.43958	0.0566899	7.4398	-0.436587	204.148	0.449543	0.0192143	56.8862	0.0033029	1	10	0.0106044	0.00142536	0	4.82779e-05	0.134408	0.0010242	0.134412	0.436587	3.30288	433.449	433.462	-89.5634	0.0000000E+000	0.0000000E+000	0.0000000E+000	89.5634	0.0000000E+000	0.0000000E+000	0.0000000E+000	-89.5634	0.0000000E+000	0.0000000E+000	0.0000000E+000	-0.436587	0.0000000E+000	0.0000000E+000	0.0000000E+000	0.436587	131.233	89.5634	1.02311e-06	8.63765e-06	23396.3
33551.1	7.44108	0.0525404	7.44126	-0.40455	204.57	0.449543	0.0208271	90.286	0.00450105	1	10	0.0105319	0.00141534	0	4.86661e-05	0.134382	0.000948855	0.134386	0.40455	4.50103	637.465	637.481	-89.5955	0.0000000E+000	0.0000000E+000	0.0000000E+000	89.5955	0.0000000E+000	0.0000000E+000	0.0000000E+000	-89.5955	0.0000000E+000	0.0000000E+000	0.0000000E+000	-0.40455	0.0000000E+000	0.0000000E+000	0.0000000E+000	0.40455	141.626	89.5955	3.88194e-07	9.36269e-06	21584.5
22806.6	7.45172	0.0518185	7.4519	-0.398422	204.992	0.44954	0.0200272	134.672	0.00651195	1	10	0.0105059	0.00140983	0	5.03104e-05	0.134191	0.000933149	0.134194	0.398422	6.51195	936.446	936.469	-89.6016	0.0000000E+000	0.0000000E+000	0.0000000E+000	89.6016	0.0000000E+000	0.0000000E+000	0.0000000E+000	-89.6016	0.0000000E+000	0.0000000E+000	0.0000000E+000	-0.398422	0.0000000E+000	0.0000000E+000	0.0000000E+000	0.398422	143.804	89.6016	1.64422e-06	9.00303e-06	22446.4
15504.4	7.45353	0.0434249	7.45365	-0.333807	205.414	0.449542	0.017829	236.389	0.00802355	1	10	0.0103821	0.00139289	0	5.15765e-05	0.13416	0.000781629	0.134162	0.333807	8.0236	1377.17	1377.2	-89.6662	0.0000000E+000	0.0000000E+000	0.0000000E+000	89.6662	0.0000000E+000	0.0000000E+000	0.0000000E+000	-89.6662	0.0000000E+000	0.0000000E+000	0.0000000E+000	-0.333807	0.0000000E+000	0.0000000E+000	0.0000000E+000	0.333807	171.642	89.6662	1.2661e-06	8.01486e-06	25214.2
10540.4	7.46167	0.0439304	7.4618	-0.337324	205.836	0.449544	0.0168035	343.715	0.0119136	1	10	0.0102865	0.00137856	0	5.28181e-05	0.134014	0.000789002	0.134016	0.337324	11.9137	2023.54	2023.58	-89.6627	0.0000000E+000	0.0000000E+000	0.0000000E+000	89.6627	0.0000000E+000	0.0000000E+000	0.0000000E+000	-89.6627	0.0000000E+000	0.0000000E+000	0.0000000E+000	-0.337324	0.0000000E+000	0.0000000E+000	0.0000000E+000	0.337324	169.852	89.6627	1.2416e-06	7.55389e-06	26753
7163.78	7.47215	0.0446019	7.47228	-0.341999	206.36	0.449526	0.0150844	498.109	0.017747	1	10	0.0102516	0.00137196	0	5.44934e-05	0.133826	0.000798816	0.133828	0.341999	17.7472	2973.15	2973.2	-89.658	0.0000000E+000	0.0000000E+000	0.0000000E+000	89.658	0.0000000E+000	0.0000000E+000	0.0000000E+000	-89.658	0.0000000E+000	0.0000000E+000	0.0000000E+000	-0.341999	0.0000000E+000	0.0000000E+000	0.0000000E+000	0.341999	167.53	89.658	1.67538e-06	6.78083e-06	29800.8
4871.56	7.47838	0.0440208	7.47851	-0.337263	207.05	0.449546	0.0172006	742.154	0.0257146	1	10	0.0101162	0.00135271	0	5.48482e-05	0.133714	0.000787097	0.133717	0.337263	25.7148	4368.47	4368.55	-89.6627	0.0000000E+000	0.0000000E+000	0.0000000E+000	89.6627	0.0000000E+000	0.0000000E+000	0.0000000E+000	-89.6627	0.0000000E+000	0.0000000E+000	0.0000000E+000	-0.337263	0.0000000E+000	0.0000000E+000	0.0000000E+000	0.337263	169.883	89.6627	3.54744e-07	7.73247e-06	26135.5
3311.06	7.48615	0.0530588	7.48634	-0.406082	207.515	0.449536	0.0174635	905.933	0.0455063	1	10	0.0106794	0.00142651	0	5.76972e-05	0.133573	0.000946712	0.133577	0.406082	45.5063	6420.56	6420.72	-89.5939	0.0000000E+000	0.0000000E+000	0.0000000E+000	89.5939	0.0000000E+000	0.0000000E+000	0.0000000E+000	-89.5939	0.0000000E+000	0.0000000E+000	0.0000000E+000	-0.406082	0.0000000E+000	0.0000000E+000	0.0000000E+000	0.406082	141.092	89.5939	2.84898e-06	7.85047e-06	25741.4
2250.72	7.49429	0.0643395	7.49457	-0.491879	207.979	0.449532	0.0185505	1099.06	0.0809996	1	10	0.0109752	0.00146442	0	6.11271e-05	0.133425	0.00114547	0.13343	0.491879	81	9434.87	9435.22	-89.5081	0.0000000E+000	0.0000000E+000	0.0000000E+000	89.5081	0.0000000E+000	0.0000000E+000	0.0000000E+000	-89.5081	0.0000000E+000	0.0000000E+000	0.0000000E+000	-0.491879	0.0000000E+000	0.0000000E+000	0.0000000E+000	0.491879	116.481	89.5081	3.42993e-06	8.33906e-06	24232.9
1530.49	7.49908	0.0819678	7.49953	-0.62624	208.665	0.449543	0.0185431	1268.66	0.151553	1	10	0.0101559	0.00135421	0	6.74113e-05	0.133334	0.00145739	0.133342	0.62624	151.552	13865.3	13866.1	-89.3738	0.0000000E+000	0.0000000E+000	0.0000000E+000	89.3738	0.0000000E+000	0.0000000E+000	0.0000000E+000	-89.3738	0.0000000E+000	0.0000000E+000	0.0000000E+000	-0.62624	0.0000000E+000	0.0000000E+000	0.0000000E+000	0.62624	91.4882	89.3738	6.28419e-06	8.3359e-06	24243.2
1040.33	7.50348	0.101672	7.50417	-0.776309	209.13	0.449536	0.0173927	1504.69	0.276213	1	10	0.0102232	0.00136233	0	6.99034e-05	0.133247	0.00180549	0.133259	0.776309	276.212	20384.7	20386.6	-89.2237	0.0000000E+000	0.0000000E+000	0.0000000E+000	89.2237	0.0000000E+000	0.0000000E+000	0.0000000E+000	-89.2237	0.0000000E+000	0.0000000E+000	0.0000000E+000	-0.776309	0.0000000E+000	0.0000000E+000	0.0000000E+000	0.776309	73.8009	89.2237	2.49215e-06	7.81863e-06	25846.3
707.036	7.51522	0.139069	7.5165	-1.06013	209.595	0.449537	0.016218	1618.64	0.554085	1	10	0.0102627	0.00136536	0	7.21236e-05	0.133018	0.00246149	0.133041	1.06013	554.085	29942.5	29947.6	-88.9399	0.0000000E+000	0.0000000E+000	0.0000000E+000	88.9399	0.0000000E+000	0.0000000E+000	0.0000000E+000	-88.9399	0.0000000E+000	0.0000000E+000	0.0000000E+000	-1.06013	0.0000000E+000	0.0000000E+000	0.0000000E+000	1.06013	54.0396	88.9399	2.22013e-06	7.2906e-06	27718.4
480.769	7.5165	0.19669	7.51908	-1.49896	210.06	0.449529	0.0178271	1683.07	1.15169	1	10	0.0102699	0.00136584	0	7.41781e-05	0.13295	0.00347898	0.132995	1.49896	1151.69	44011.9	44027	-88.501	0.0000000E+000	0.0000000E+000	0.0000000E+000	88.501	0.0000000E+000	0.0000000E+000	0.0000000E+000	-88.501	0.0000000E+000	0.0000000E+000	0.0000000E+000	-1.49896	0.0000000E+000	0.0000000E+000	0.0000000E+000	1.49896	38.215	88.501	2.05453e-06	8.01378e-06	25216
326.778	7.52382	0.277207	7.52893	-2.11004	210.523	0.449527	0.0169806	1756.97	2.3818	1	10	0.010275	0.00136473	0	7.67451e-05	0.132731	0.00489032	0.132821	2.11004	2381.79	64645.7	64689.6	-87.89	0.0000000E+000	0.0000000E+000	0.0000000E+000	87.89	0.0000000E+000	0.0000000E+000	0.0000000E+000	-87.89	0.0000000E+000	0.0000000E+000	0.0000000E+000	-2.11004	0.0000000E+000	0.0000000E+000	0.0000000E+000	2.11004	27.1416	87.89	2.56704e-06	7.63324e-06	26473
222.061	7.53824	0.398367	7.54876	-3.02505	210.984	0.449535	0.0157407	1799.14	5.0105	1	10	0.0102805	0.00136189	0	7.77037e-05	0.132288	0.0069909	0.132472	3.02505	5010.51	94812.8	94945.1	-86.9749	0.0000000E+000	0.0000000E+000	0.0000000E+000	86.9749	0.0000000E+000	0.0000000E+000	0.0000000E+000	-86.9749	0.0000000E+000	0.0000000E+000	0.0000000E+000	-3.02505	0.0000000E+000	0.0000000E+000	0.0000000E+000	3.02505	18.9228	86.9749	9.58564e-07	7.07599e-06	28558.8
151.015	7.561	0.566039	7.58216	-4.28135	211.446	0.44953	0.0172416	1861.89	10.3767	1	10	0.0102868	0.00135671	0	8.04798e-05	0.13152	0.00984601	0.131889	4.28135	10376.7	138610	138998	-85.7187	0.0000000E+000	0.0000000E+000	0.0000000E+000	85.7187	0.0000000E+000	0.0000000E+000	0.0000000E+000	-85.7187	0.0000000E+000	0.0000000E+000	0.0000000E+000	-4.28135	0.0000000E+000	0.0000000E+000	0.0000000E+000	4.28135	13.3577	85.7187	2.77609e-06	7.75063e-06	26072.4
102.667	7.58773	0.800627	7.62985	-6.02334	211.921	0.449543	0.0170738	1936.23	21.32	1	10	0.0102882	0.00134842	0	8.35001e-05	0.130341	0.013753	0.131064	6.02334	21320	202054	203176	-83.9767	0.0000000E+000	0.0000000E+000	0.0000000E+000	83.9767	0.0000000E+000	0.0000000E+000	0.0000000E+000	-83.9767	0.0000000E+000	0.0000000E+000	0.0000000E+000	-6.02334	0.0000000E+000	0.0000000E+000	0.0000000E+000	6.02334	9.47723	83.9767	3.02031e-06	7.67542e-06	26329.4
69.7545	7.6249	1.1454	7.71045	-8.54303	212.388	0.44954	0.0169153	1992	43.959	1	10	0.0102902	0.00133458	0	8.59341e-05	0.128255	0.0192663	0.129694	8.54303	43959	292633	295916	-81.457	0.0000000E+000	0.0000000E+000	0.0000000E+000	81.457	0.0000000E+000	0.0000000E+000	0.0000000E+000	-81.457	0.0000000E+000	0.0000000E+000	0.0000000E+000	-8.54303	0.0000000E+000	0.0000000E+000	0.0000000E+000	8.54303	6.65696	81.457	2.43401e-06	7.60412e-06	26575.9
47.4443	7.67882	1.6401	7.85202	-12.0565	212.832	0.449528	0.0168687	2045.34	89.2367	1	10	0.0102989	0.00131163	0	8.88623e-05	0.124547	0.0266016	0.127356	12.0565	89236.7	417799	427223	-77.9435	0.0000000E+000	0.0000000E+000	0.0000000E+000	77.9435	0.0000000E+000	0.0000000E+000	0.0000000E+000	-77.9435	0.0000000E+000	0.0000000E+000	0.0000000E+000	-12.0565	0.0000000E+000	0.0000000E+000	0.0000000E+000	12.0565	4.68192	77.9435	2.92822e-06	7.58296e-06	26648.6
32.2387	7.74544	2.34135	8.09159	-16.8194	213.269	0.449521	0.0162311	2108.52	176.54	1	10	0.0103082	0.00127395	0	9.07828e-05	0.118298	0.0357601	0.123585	16.8194	176540	584012	610112	-73.1806	0.0000000E+000	0.0000000E+000	0.0000000E+000	73.1806	0.0000000E+000	0.0000000E+000	0.0000000E+000	-73.1806	0.0000000E+000	0.0000000E+000	0.0000000E+000	-16.8194	0.0000000E+000	0.0000000E+000	0.0000000E+000	16.8194	3.30811	73.1806	1.92052e-06	7.2962e-06	27695.1
21.9144	7.81117	3.34948	8.49902	-23.21	213.7	0.449521	0.0158563	2168.26	336.767	1	10	0.0103077	0.00121281	0	9.52809e-05	0.108138	0.0463703	0.117661	23.21	336767	785358	854517	-66.79	0.0000000E+000	0.0000000E+000	0.0000000E+000	66.79	0.0000000E+000	0.0000000E+000	0.0000000E+000	-66.79	0.0000000E+000	0.0000000E+000	0.0000000E+000	-23.21	0.0000000E+000	0.0000000E+000	0.0000000E+000	23.21	2.33205	66.79	4.49808e-06	7.12773e-06	28349.7
14.9093	7.91175	4.81354	9.26099	-31.3165	214.168	0.449545	0.0173348	2217.67	599.117	1	10	0.0103115	0.00111344	0	9.73559e-05	0.0922482	0.0561242	0.10798	31.3165	599117	984735	1.15267e+06	-58.6835	0.0000000E+000	0.0000000E+000	0.0000000E+000	58.6835	0.0000000E+000	0.0000000E+000	0.0000000E+000	-58.6835	0.0000000E+000	0.0000000E+000	0.0000000E+000	-31.3165	0.0000000E+000	0.0000000E+000	0.0000000E+000	31.3165	1.64364	58.6835	2.07497e-06	7.7928e-06	25933
10.1329	8.06697	6.95193	10.6492	-40.754	214.627	0.449529	0.0158936	2259.33	962.845	1	10	0.0103176	0.000968865	0	9.33489e-05	0.071134	0.0613016	0.0939038	40.754	962845	1.11728e+06	1.47492e+06	-49.246	0.0000000E+000	0.0000000E+000	0.0000000E+000	49.246	0.0000000E+000	0.0000000E+000	0.0000000E+000	-49.246	0.0000000E+000	0.0000000E+000	0.0000000E+000	-40.754	0.0000000E+000	0.0000000E+000	0.0000000E+000	40.754	1.16039	49.246	-4.00693e-06	7.14463e-06	28283.7
6.88933	8.16056	10.1614	13.0326	-51.2323	215.18	0.449527	0.00198539	2273.47	1382.08	1	11	0.0103303	0.000792652	0	9.39325e-05	0.048046	0.0598261	0.0767306	51.2323	1.38208e+06	1.10994e+06	1.7726e+06	-38.7677	0.0000000E+000	0.0000000E+000	0.0000000E+000	38.7677	0.0000000E+000	0.0000000E+000	0.0000000E+000	-38.7677	0.0000000E+000	0.0000000E+000	0.0000000E+000	-51.2323	0.0000000E+000	0.0000000E+000	0.0000000E+000	51.2323	0.803093	38.7677	5.83521e-07	8.92486e-07	226418
4.68375	8.36131	14.6943	16.9066	-60.3594	215.677	0.449539	0.000489911	2312.48	1746.87	1	11	0.0103304	0.000611024	0	0.000102673	0.0292523	0.0514085	0.0591484	60.3594	1.74687e+06	994000	2.00988e+06	-29.6406	0.0000000E+000	0.0000000E+000	0.0000000E+000	29.6406	0.0000000E+000	0.0000000E+000	0.0000000E+000	-29.6406	0.0000000E+000	0.0000000E+000	0.0000000E+000	-60.3594	0.0000000E+000	0.0000000E+000	0.0000000E+000	60.3594	0.569017	29.6406	8.74089e-06	2.20234e-07	917595
3.18099	8.77231	21.4229	23.1494	-67.7318	216.38	0.449539	0.000857864	2335.5	2000.13	1	11	0.0103368	0.000446527	0	0.000102022	0.0163695	0.039976	0.0431976	67.7318	2.00013e+06	819017	2.16132e+06	-22.2682	0.0000000E+000	0.0000000E+000	0.0000000E+000	22.2682	0.0000000E+000	0.0000000E+000	0.0000000E+000	-22.2682	0.0000000E+000	0.0000000E+000	0.0000000E+000	-67.7318	0.0000000E+000	0.0000000E+000	0.0000000E+000	67.7318	0.409483	22.2682	-6.51386e-07	3.85643e-07	524022
2.16533	9.10313	31.0236	32.3316	-73.6469	217.391	0.449553	0.0017119	2369.22	2181.4	1	11	0.0103288	0.000319466	0	9.53831e-05	0.00870838	0.0296783	0.0309295	73.6469	2.1814e+06	640080	2.27337e+06	-16.3531	0.0000000E+000	0.0000000E+000	0.0000000E+000	16.3531	0.0000000E+000	0.0000000E+000	0.0000000E+000	-16.3531	0.0000000E+000	0.0000000E+000	0.0000000E+000	-73.6469	0.0000000E+000	0.0000000E+000	0.0000000E+000	73.6469	0.293426	16.3531	-6.63885e-06	7.6959e-07	262605
1.46962	9.80625	45.2873	46.3369	-77.7821	219.591	0.449552	0.000390388	2391.32	2284.22	1	12	0.0103341	0.000223021	0	9.52098e-05	0.0045672	0.0210923	0.0215811	77.7821	2.28422e+06	494612	2.33716e+06	-12.2179	0.0000000E+000	0.0000000E+000	0.0000000E+000	12.2179	0.0000000E+000	0.0000000E+000	0.0000000E+000	-12.2179	0.0000000E+000	0.0000000E+000	0.0000000E+000	-77.7821	0.0000000E+000	0.0000000E+000	0.0000000E+000	77.7821	0.216534	12.2179	-1.73342e-07	1.75499e-07	1.15155e+06
1.00006	10.6575	65.9996	66.8546	-80.8272	221.731	0.449552	0.000221599	2411.3	2350.02	1	12	0.0103339	0.000154573	0	0.000100929	0.00238447	0.0147666	0.0149578	80.8272	2.35002e+06	379476	2.38046e+06	-9.17281	0.0000000E+000	0.0000000E+000	0.0000000E+000	9.17281	0.0000000E+000	0.0000000E+000	0.0000000E+000	-9.17281	0.0000000E+000	0.0000000E+000	0.0000000E+000	-80.8272	0.0000000E+000	0.0000000E+000	0.0000000E+000	80.8272	0.161478	9.17281	5.71913e-06	9.962e-08	2.02868e+06