File: ACS_Catal_2026/Figures_Na_K/main_figures/data/EC/20251112_2-148_alpha_reproducibility/20251112_2-148_006_gamma_reproducibility_2_K1_01_CVA_C02.mpt
EC-Lab ASCII FILE
Nb header lines : 66

Cyclic Voltammetry Advanced

Run on channel : 2 (SN 69290)
User :
CE vs. WE compliance from -10 V to 10 V
Electrode connection : standard
Potential control : Ewe
Ewe ctrl range : min = -1.00 V, max = 1.00 V
Safety Limits :
	Do not start on E overload
Acquisition started on : 11/12/2025 19:12:40.101
Loaded Setting File :  C:\Users\User\Documents\EC-Lab\Data\Yatsuzuka\20251112_2-148_alpha_reproducibility\20251112_2-148_002_alpha_reproducibility_2_K1.mps
Saved on :
	File : 20251112_2-148_006_gamma_reproducibility_2_K1_01_CVA_C02.mpr
	Directory : C:\Users\User\Documents\EC-Lab\Data\Yatsuzuka\20251112_2-148_alpha_reproducibility\
	Host : 192.109.209.127
Device : SP-150e (SN .003883)
Address : 192.109.209.128
EC-Lab for windows v11.52 (software)
Internet server v11.52 (firmware)
Command interpretor v11.50 (firmware)
Electrode material :
Initial state :
Electrolyte :
Comments :
Electrode surface area : 0.001 cm2
Characteristic mass : 0.001 g
Equivalent Weight : 0.000 g/eq.
Density : 0.000 g/cm3
Volume (V) : 0.001 cm3
Cycle Definition : Charge/Discharge alternance
Ei (V)              0.350
vs.                 Ref
ti (h:m:s)          0:00:10.0000
dti (s)             0.0000
dE/dt               10.000
dE/dt unit          mV/s
E1 (V)              0.450
vs.                 Ref
t1 (h:m:s)          0:00:0.0000
dt1 (s)             0.1000
Step percent        50
N                   10
E range min (V)     -1.000
E range max (V)     1.000
I Range             Auto
I Range min         Unset
I Range max         Unset
I Range init        Unset
Bandwidth           5
E2 (V)              0.350
vs.                 Ref
t2 (h:m:s)          0:00:0.0000
dt2 (s)             0.1000
nc cycles           9
nr                  1
Reverse Scan        0
Ef (V)              0.000
vs.                 Eoc
tf (h:m:s)          0:00:0.0000
dtf (s)             0.1000

mode	ox/red	error	control changes	Ns changes	counter inc.	time/s	control/V	Ewe/V	<I>/mA	cycle number	(Q-Qo)/C	I Range	Ns	step time/s	P/W
2	1	0	0	0	0	0.000000000000000E+000	0.349989	0.349534	0.0101304	1	0.0000000E+000	13	0	0.000000000000000E+000	3.54091e-06
2	1	0	1	0	0	0.3771	0.35376	0.353358	0.0100984	1	2.94072e-06	13	0	0.3496	3.56835e-06
2	1	0	1	0	0	0.7767	0.357755	0.357322	0.00594204	1	6.26313e-06	13	0	0.7492	2.12322e-06
2	1	0	1	0	0	1.1762	0.36175	0.361347	0.00849017	1	9.68434e-06	13	0	1.1487	3.0679e-06
2	1	0	1	0	0	1.5757	0.365745	0.365322	0.0106079	1	1.31251e-05	13	0	1.5482	3.87531e-06
2	1	0	1	0	0	1.9753	0.369741	0.369338	0.00658161	1	1.66569e-05	13	0	1.9478	2.43084e-06
2	1	0	1	0	0	2.3748	0.373737	0.373331	0.00905911	1	2.02607e-05	13	0	2.3473	3.38204e-06
2	1	0	1	0	0	2.7743	0.377731	0.377323	0.0105169	1	2.38682e-05	13	0	2.7468	3.96826e-06
2	1	0	1	0	0	3.1739	0.381726	0.38127	0.00672328	1	2.75725e-05	13	0	3.1464	2.56338e-06
2	1	0	1	0	0	3.5733	0.385722	0.385282	0.0104089	1	3.13141e-05	13	0	3.5458	4.01035e-06
2	1	0	1	0	0	3.9729	0.389717	0.389316	0.00981131	1	3.50692e-05	13	0	3.9454	3.8197e-06
2	1	0	1	0	0	4.3724	0.393712	0.393261	0.00738153	1	3.8922e-05	13	0	4.3449	2.90287e-06
2	1	0	1	0	0	4.7719	0.397707	0.397279	0.0114787	1	4.27872e-05	13	0	4.7444	4.56025e-06
2	1	0	1	0	0	5.1715	0.401703	0.401294	0.00898464	1	4.66771e-05	13	0	5.144	3.60549e-06
2	1	0	1	0	0	5.571	0.405698	0.405277	0.00869046	1	5.06559e-05	13	0	5.5435	3.52204e-06
2	1	0	1	0	0	5.9705	0.409693	0.409258	0.0117944	1	5.4607e-05	13	0	5.943	4.82694e-06
2	1	0	1	0	0	6.3701	0.413688	0.413197	0.00808883	1	5.8623e-05	13	0	6.3426	3.34228e-06
2	1	0	1	0	0	6.7695	0.417684	0.417227	0.0103447	1	6.26914e-05	13	0	6.742	4.31607e-06
2	1	0	1	0	0	7.1691	0.421679	0.421254	0.0109779	1	6.67448e-05	13	0	7.1416	4.62448e-06
2	1	0	1	0	0	7.5686	0.425673	0.425237	0.00820485	1	7.08742e-05	13	0	7.5411	3.489e-06
2	1	0	1	0	0	7.9681	0.42967	0.429254	0.0120164	1	7.50074e-05	13	0	7.9406	5.1581e-06
2	1	0	1	0	0	8.3677	0.433665	0.433241	0.00931258	1	7.91524e-05	13	0	8.3402	4.03459e-06
2	1	0	1	0	0	8.7672	0.43766	0.4372	0.00988247	1	8.33667e-05	13	0	8.7397	4.32062e-06
2	1	0	1	0	0	9.1667	0.441655	0.441192	0.0119845	1	8.75572e-05	13	0	9.1392	5.28749e-06
2	1	0	1	0	0	9.5663	0.445651	0.445239	0.00858252	1	9.18095e-05	13	0	9.5388	3.82127e-06
2	1	0	1	0	0	9.9658	0.449647	0.44921	0.0120648	1	9.60773e-05	13	0	9.9383	5.41961e-06
2	1	0	1	0	0	10.2761	0.447249	0.446793	0.00422099	1	9.73286e-05	13	0	10.2486	1.88591e-06
2	1	0	1	0	0	10.6757	0.443253	0.442754	-0.000348657	1	9.80781e-05	13	0	10.6482	-1.54369e-07
2	0	0	1	0	0	11.0752	0.439258	0.438751	0.00142391	1	9.84485e-05	13	0	11.0477	6.24741e-07
2	1	0	1	0	0	11.4747	0.435263	0.434776	0.000634945	1	9.84997e-05	13	0	0.05	2.76059e-07
2	0	0	1	0	0	11.8743	0.431268	0.43074	-0.00218075	1	9.83798e-05	13	0	0.000000000000000E+000	-9.39336e-07
2	0	0	1	0	0	12.2737	0.427272	0.426799	0.000883385	1	9.80468e-05	13	0	0.3994	3.77028e-07
2	1	0	1	0	0	12.6733	0.423277	0.422817	-0.00226106	1	9.75547e-05	13	0	0.799	-9.56016e-07
2	0	0	1	0	0	13.0728	0.419282	0.418758	-0.00190769	1	9.69672e-05	13	0	1.1985	-7.9886e-07
2	1	0	1	0	0	13.4723	0.415287	0.414833	-0.000587862	1	9.62132e-05	13	0	1.598	-2.43864e-07
2	0	0	1	0	0	13.8719	0.411291	0.410791	-0.00417112	1	9.53989e-05	13	0	1.9976	-1.71346e-06
2	0	0	1	0	0	14.2714	0.407296	0.406836	-0.00073283	1	9.44864e-05	13	0	2.3971	-2.98141e-07
2	1	0	1	0	0	14.6709	0.403301	0.402866	-0.00331526	1	9.34582e-05	13	0	2.7966	-1.3356e-06
2	0	0	1	0	0	15.0705	0.399306	0.398844	-0.00354289	1	9.23977e-05	13	0	3.1962	-1.41306e-06
2	0	0	1	0	0	15.47	0.395309	0.394873	-0.00139769	1	9.12105e-05	13	0	3.5957	-5.51911e-07
2	0	0	1	0	0	15.8695	0.391315	0.390891	-0.00540566	1	8.99953e-05	13	0	3.9952	-2.11303e-06
2	0	0	1	0	0	16.269	0.387321	0.386862	-0.00188975	1	8.87048e-05	13	0	4.3947	-7.31074e-07
2	0	0	1	0	0	16.6685	0.383325	0.382852	-0.00401008	1	8.73213e-05	13	0	4.7942	-1.53527e-06
2	0	0	1	0	0	17.0681	0.379329	0.378845	-0.00493778	1	8.59361e-05	13	0	5.1938	-1.87065e-06
2	0	0	1	0	0	17.4676	0.375334	0.374872	-0.0018973	1	8.44364e-05	13	0	5.5933	-7.11243e-07
2	0	0	1	0	0	17.8671	0.371339	0.370855	-0.00616754	1	8.29111e-05	13	0	5.9928	-2.28726e-06
2	0	0	1	0	0	18.2667	0.367343	0.3669	-0.00338829	1	8.13443e-05	13	0	6.3924	-1.24316e-06
2	0	0	1	0	0	18.6662	0.363347	0.362849	-0.00366913	1	7.96723e-05	13	0	6.7919	-1.33134e-06
2	0	0	1	0	0	19.0657	0.359353	0.35889	-0.00660834	1	7.80107e-05	13	0	7.1914	-2.37166e-06
2	0	0	1	0	0	19.4653	0.355358	0.354878	-0.00245151	1	7.62588e-05	13	0	7.591	-8.69988e-07
2	0	0	1	0	0	19.8647	0.351362	0.350908	-0.00592209	1	7.44456e-05	13	0	7.9904	-2.07811e-06
2	1	0	1	0	1	20.1311	0.351312	0.350889	0.00661794	2	7.43732e-05	13	0	0.1	2.32216e-06
2	1	0	1	0	1	20.5305	0.355308	0.354866	0.00468271	2	7.63052e-05	13	0	0.4994	1.66174e-06
2	1	0	1	0	1	20.9301	0.359303	0.358854	0.00457195	2	7.84361e-05	13	0	0.899	1.64066e-06
2	1	0	1	0	1	21.3296	0.363298	0.362877	0.00734798	2	8.057e-05	13	0	1.2985	2.66642e-06
2	1	0	1	0	1	21.7291	0.367293	0.366832	0.00329266	2	8.27946e-05	13	0	1.698	1.20785e-06
2	1	0	1	0	1	22.1287	0.371289	0.370898	0.00749636	2	8.50275e-05	13	0	2.0976	2.78039e-06
2	1	0	1	0	1	22.5282	0.375284	0.374861	0.00487784	2	8.72502e-05	13	0	2.4971	1.82851e-06
2	0	0	1	0	1	22.9277	0.379279	0.378856	0.00507047	2	8.95421e-05	13	0	2.8966	1.92098e-06
2	1	0	1	0	1	23.3273	0.383275	0.382853	0.00698822	2	9.17813e-05	13	0	3.2962	2.67546e-06
2	1	0	1	0	1	23.7268	0.387271	0.386872	0.00382309	2	9.40941e-05	13	0	3.6957	1.47905e-06
2	1	0	1	0	1	24.1263	0.391265	0.390873	0.00766715	2	9.63762e-05	13	0	4.0952	2.99688e-06
2	1	0	1	0	1	24.5258	0.395259	0.394815	0.00360659	2	9.86966e-05	13	0	4.4947	1.42393e-06
2	0	0	1	0	1	24.9253	0.399256	0.398797	0.00746111	2	0.00010103	13	0	4.8942	2.97547e-06
2	1	0	1	0	1	25.3249	0.403251	0.402788	0.00438159	2	0.000103366	13	0	5.2938	1.76485e-06
2	0	0	1	0	1	25.7244	0.407246	0.406811	0.00652981	2	0.000105756	13	0	5.6933	2.6564e-06
2	1	0	1	0	1	26.1239	0.411241	0.410803	0.00563744	2	0.000108106	13	0	6.0928	2.31588e-06
2	0	0	1	0	1	26.5235	0.415237	0.414799	0.00529299	2	0.000110556	13	0	6.4924	2.19552e-06
2	1	0	1	0	1	26.923	0.419232	0.418786	0.00714836	2	0.000112975	13	0	6.8919	2.99363e-06
2	1	0	1	0	1	27.3225	0.423227	0.422762	0.00436542	2	0.00011548	13	0	7.2914	1.84553e-06
2	1	0	1	0	1	27.7221	0.427222	0.42678	0.00794293	2	0.000117981	13	0	7.691	3.38988e-06
2	1	0	1	0	1	28.1215	0.431218	0.430759	0.00445549	2	0.000120542	13	0	8.0904	1.91925e-06
2	1	0	1	0	1	28.5211	0.435213	0.434792	0.00781607	2	0.000123153	13	0	8.49	3.39837e-06
2	1	0	1	0	1	28.9206	0.439208	0.438823	0.00546585	2	0.000125785	13	0	8.8895	2.39854e-06
2	1	0	1	0	1	29.3201	0.443204	0.442747	0.00717554	2	0.000128513	13	0	9.289	3.17695e-06
2	1	0	1	0	1	29.7197	0.447199	0.446758	0.00672481	2	0.000131245	13	0	9.6886	3.00436e-06
2	1	0	1	0	1	30.025	0.449747	0.449282	-0.000643224	2	0.000133248	13	0	9.9939	-2.88989e-07
2	0	0	1	0	1	30.4245	0.445751	0.445265	0.00059987	2	0.000133262	13	0	0.0998	2.67101e-07
2	1	0	1	0	1	30.8241	0.441755	0.441318	-0.00205066	2	0.000132928	13	0	0.4994	-9.04991e-07
2	0	0	1	0	1	31.2236	0.43776	0.43723	-0.00181738	2	0.000132451	13	0	0.8989	-7.94613e-07
2	0	0	1	0	1	31.6231	0.433765	0.433252	-0.000977853	2	0.000131786	13	0	1.2984	-4.23657e-07
2	0	0	1	0	1	32.0227	0.429769	0.429289	-0.00394653	2	0.000131054	13	0	1.698	-1.6942e-06
2	0	0	1	0	1	32.4222	0.425773	0.425255	-0.000754382	2	0.000130193	13	0	2.0975	-3.20805e-07
2	0	0	1	0	1	32.8217	0.421779	0.421333	-0.00421519	2	0.00012925	13	0	2.497	-1.776e-06
2	0	0	1	0	1	33.2213	0.417784	0.417286	-0.00188774	2	0.000128255	13	0	2.8966	-7.87729e-07
2	0	0	1	0	1	33.6207	0.413788	0.413326	-0.00339089	2	0.000127148	13	0	3.296	-1.40155e-06
2	0	0	1	0	1	34.0203	0.409793	0.409344	-0.00391091	2	0.000126034	13	0	3.6956	-1.60091e-06
2	0	0	1	0	1	34.4198	0.405798	0.405376	-0.0019173	2	0.000124815	13	0	4.0951	-7.7723e-07
2	0	0	1	0	1	34.8193	0.401803	0.40135	-0.00544028	2	0.00012358	13	0	4.4946	-2.18346e-06
2	0	0	1	0	1	35.2189	0.397807	0.397316	-0.00164708	2	0.000122264	13	0	4.8942	-6.54412e-07
2	0	0	1	0	1	35.6184	0.393812	0.393353	-0.00562189	2	0.000120902	13	0	5.2937	-2.21139e-06
2	0	0	1	0	1	36.0179	0.389817	0.389314	-0.00228189	2	0.000119507	13	0	5.6932	-8.8837e-07
2	0	0	1	0	1	36.4175	0.385822	0.385332	-0.00525479	2	0.000118028	13	0	6.0928	-2.02484e-06
2	0	0	1	0	1	36.817	0.381825	0.381359	-0.00296265	2	0.000116556	13	0	6.4923	-1.12984e-06
2	1	0	1	0	1	37.2165	0.377831	0.377381	-0.00454266	2	0.000114978	13	0	6.8918	-1.71432e-06
2	0	0	1	0	1	37.6161	0.373836	0.373367	-0.00423021	2	0.000113416	13	0	7.2914	-1.57942e-06
2	1	0	1	0	1	38.0155	0.369841	0.369383	-0.00362364	2	0.000111742	13	0	7.6908	-1.33851e-06
2	0	0	1	0	1	38.4151	0.365845	0.36537	-0.00540299	2	0.000110089	13	0	8.0904	-1.97409e-06
2	0	0	1	0	1	38.8146	0.36185	0.361392	-0.00268342	2	0.000108324	13	0	8.4899	-9.69768e-07
2	0	0	1	0	1	39.2141	0.357855	0.357413	-0.00657653	2	0.000106572	13	0	8.8894	-2.35054e-06
2	0	0	1	0	1	39.6137	0.353859	0.35338	-0.0022532	2	0.000104729	13	0	9.289	-7.96234e-07
2	0	0	1	0	1	39.9933	0.350064	0.349686	-0.00243	2	0.000103014	13	0	9.6686	-8.49738e-07
2	1	0	1	0	0	40.2795	0.352811	0.352412	0.00558591	3	0.000104016	13	0	0.2498	1.96854e-06
2	0	0	1	0	0	40.679	0.356806	0.356398	0.00274935	3	0.000105881	13	0	0.6493	9.79864e-07
2	1	0	1	0	0	41.0785	0.360801	0.360399	0.00676004	3	0.00010778	13	0	1.0488	2.43631e-06
2	1	0	1	0	0	41.4781	0.364796	0.364423	0.00259757	3	0.000109772	13	0	1.4484	9.46616e-07
2	1	0	1	0	0	41.8775	0.368792	0.368359	0.00703366	3	0.000111761	13	0	1.8478	2.59091e-06
2	1	0	1	0	0	42.2771	0.372787	0.372352	0.00299335	3	0.000113769	13	0	2.2474	1.11458e-06
2	1	0	1	0	0	42.6766	0.376782	0.376362	0.00652752	3	0.000115805	13	0	2.6469	2.45671e-06
2	1	0	1	0	0	43.0761	0.380778	0.380398	0.00451003	3	0.000117807	13	0	3.0464	1.71561e-06
2	1	0	1	0	0	43.4757	0.384773	0.384359	0.00473522	3	0.000119868	13	0	3.446	1.82002e-06
2	1	0	1	0	0	43.8752	0.388768	0.388332	0.00653948	3	0.000121874	13	0	3.8455	2.53949e-06
2	1	0	1	0	0	44.2747	0.392763	0.392344	0.00335196	3	0.000123937	13	0	4.245	1.31512e-06
2	1	0	1	0	0	44.6743	0.396759	0.396355	0.0072373	3	0.000125977	13	0	4.6446	2.86854e-06
2	1	0	1	0	0	45.0738	0.400755	0.400329	0.00369991	3	0.000128029	13	0	5.0441	1.48118e-06
2	1	0	1	0	0	45.4733	0.404749	0.404369	0.00635378	3	0.000130111	13	0	5.4436	2.56927e-06
2	1	0	1	0	0	45.8729	0.408744	0.408339	0.00529795	3	0.000132152	13	0	5.8432	2.16336e-06
2	1	0	1	0	0	46.2723	0.41274	0.412242	0.00474492	3	0.000134268	13	0	6.2426	1.95606e-06
2	1	0	1	0	0	46.6719	0.416735	0.416265	0.00706783	3	0.000136351	13	0	6.6422	2.94209e-06
2	1	0	1	0	0	47.0714	0.42073	0.42028	0.00375597	3	0.000138492	13	0	7.0417	1.57856e-06
2	1	0	1	0	0	47.4709	0.424725	0.42435	0.00728663	3	0.000140639	13	0	7.4412	3.09208e-06
2	1	0	1	0	0	47.8705	0.428721	0.42828	0.00455586	3	0.000142802	13	0	7.8408	1.95118e-06
2	1	0	1	0	0	48.27	0.432716	0.432287	0.0060956	3	0.000145027	13	0	8.2403	2.63505e-06
2	1	0	1	0	0	48.6695	0.436711	0.43628	0.00609149	3	0.000147233	13	0	8.6398	2.65759e-06
2	1	0	1	0	0	49.0691	0.440706	0.440266	0.00479315	3	0.000149536	13	0	9.0394	2.11026e-06
2	1	0	1	0	0	49.4685	0.444702	0.444259	0.00747003	3	0.00015183	13	0	9.4388	3.31863e-06
2	1	0	1	0	0	49.8681	0.448697	0.448281	0.00425391	3	0.000154206	13	0	9.8384	1.90695e-06
2	1	0	1	0	0	50.1735	0.448247	0.447754	-0.00184108	3	0.000154952	13	0	0.1499	-8.24351e-07
2	1	0	1	0	0	50.5729	0.444252	0.443804	0.00048511	3	0.000154505	13	0	0.5493	2.15294e-07
2	1	0	1	0	0	50.9725	0.440257	0.43973	-0.00316893	3	0.000153881	13	0	0.9489	-1.39347e-06
2	0	0	1	0	0	51.372	0.436263	0.435748	-0.000951039	3	0.000153142	13	0	1.3484	-4.14413e-07
2	1	0	1	0	0	51.7715	0.432266	0.431826	-0.00246236	3	0.000152262	13	0	1.7479	-1.06331e-06
2	0	0	1	0	0	52.1711	0.428271	0.427753	-0.00294902	3	0.000151349	13	0	2.1475	-1.26145e-06
2	0	0	1	0	0	52.5706	0.424276	0.42381	-0.00160944	3	0.000150308	13	0	2.547	-6.82098e-07
2	0	0	1	0	0	52.9701	0.420281	0.419862	-0.00455712	3	0.000149254	13	0	2.9465	-1.91336e-06
2	0	0	1	0	0	53.3697	0.416285	0.415821	-0.00130347	3	0.000148105	13	0	3.3461	-5.42013e-07
2	0	0	1	0	0	53.7692	0.412289	0.411789	-0.00496514	3	0.000146914	13	0	3.7456	-2.04459e-06
2	0	0	1	0	0	54.1687	0.408295	0.407819	-0.0024016	3	0.000145693	13	0	4.1451	-9.79416e-07
2	0	0	1	0	0	54.5683	0.4043	0.40386	-0.00373945	3	0.000144392	13	0	4.5447	-1.51021e-06
2	0	0	1	0	0	54.9677	0.400304	0.399854	-0.00450081	3	0.000143092	13	0	4.9441	-1.79967e-06
2	0	0	1	0	0	55.3673	0.396309	0.395882	-0.00224275	3	0.000141693	13	0	5.3437	-8.87864e-07
2	0	0	1	0	0	55.7668	0.392315	0.391861	-0.00590652	3	0.000140291	13	0	5.7432	-2.31454e-06
2	0	0	1	0	0	56.1663	0.388319	0.387896	-0.00229292	3	0.000138836	13	0	6.1427	-8.89415e-07
2	0	0	1	0	0	56.5659	0.384323	0.38384	-0.00472628	3	0.000137315	13	0	6.5423	-1.81414e-06
2	0	0	1	0	0	56.9654	0.380328	0.37985	-0.00462016	3	0.000135805	13	0	6.9418	-1.75497e-06
2	0	0	1	0	0	57.3649	0.376333	0.375896	-0.00246474	3	0.000134194	13	0	7.3413	-9.26483e-07
2	0	0	1	0	0	57.7645	0.372338	0.371932	-0.006013	3	0.000132577	13	0	7.7409	-2.23642e-06
2	0	0	1	0	0	58.164	0.368341	0.367864	-0.00517293	3	0.000130921	13	0	8.1404	-1.90293e-06
2	0	0	1	0	0	58.5635	0.364347	0.36391	-0.00277861	3	0.000129204	13	0	8.5399	-1.01116e-06
2	1	0	1	0	0	58.9631	0.360352	0.359865	-0.00240265	3	0.000127425	13	0	8.9395	-8.64627e-07
2	1	0	1	0	0	59.3625	0.356356	0.35592	-0.00428746	3	0.000125622	13	0	9.3389	-1.52599e-06
2	1	0	1	0	0	59.7621	0.352361	0.351876	-0.0065087	3	0.000123781	13	0	9.7385	-2.29025e-06
2	0	0	1	0	1	60.0283	0.350314	0.349927	0.00534218	4	0.000122762	13	0	0.000000000000000E+000	1.86937e-06
2	1	0	1	0	1	60.4279	0.354309	0.353935	0.00561821	4	0.000124362	13	0	0.3996	1.98848e-06
2	1	0	1	0	1	60.8274	0.358304	0.357858	0.00318808	4	0.000126151	13	0	0.7991	1.14088e-06
2	1	0	1	0	1	61.2269	0.362299	0.361832	0.00320431	4	0.000128018	13	0	1.1986	1.15942e-06
2	1	0	1	0	1	61.6265	0.366295	0.365893	0.00696326	4	0.000129885	13	0	1.5982	2.54781e-06
2	1	0	1	0	1	62.026	0.37029	0.369891	0.00344056	4	0.000131773	13	0	1.9977	1.27263e-06
2	1	0	1	0	1	62.4255	0.374285	0.373874	0.00565413	4	0.0001337	13	0	2.3972	2.11394e-06
2	1	0	1	0	1	62.8251	0.37828	0.377864	0.00539986	4	0.000135579	13	0	2.7968	2.04041e-06
2	1	0	1	0	1	63.2245	0.382276	0.381824	0.00399412	4	0.000137517	13	0	3.1962	1.52505e-06
2	1	0	1	0	1	63.6241	0.386271	0.38583	0.00680845	4	0.000139401	13	0	3.5958	2.62691e-06
2	1	0	1	0	1	64.0236	0.390266	0.389841	0.00308194	4	0.000141328	13	0	3.9953	1.20147e-06
2	1	0	1	0	1	64.4231	0.394262	0.393814	0.00678106	4	0.000143244	13	0	4.3948	2.67048e-06
2	1	0	1	0	1	64.8227	0.398257	0.397825	0.00354833	4	0.000145146	13	0	4.7944	1.41162e-06
2	1	0	1	0	1	65.2222	0.402252	0.401792	0.00609835	4	0.000147089	13	0	5.1939	2.45026e-06
2	1	0	1	0	1	65.6217	0.406247	0.405821	0.0043112	4	0.000148989	13	0	5.5934	1.74957e-06
2	1	0	1	0	1	66.0213	0.410243	0.409765	0.00499738	4	0.000150944	13	0	5.993	2.04775e-06
2	1	0	1	0	1	66.4208	0.414239	0.413801	0.00530447	4	0.000152859	13	0	6.3925	2.19499e-06
2	0	0	1	0	1	66.8203	0.418233	0.417801	0.00410194	4	0.000154845	13	0	6.792	1.71379e-06
2	1	0	1	0	1	67.2199	0.422228	0.421779	0.00586266	4	0.000156791	13	0	7.1916	2.47274e-06
2	0	0	1	0	1	67.6193	0.426224	0.425759	0.00358428	4	0.000158807	13	0	7.591	1.52604e-06
2	1	0	1	0	1	68.0189	0.430219	0.429763	0.00627018	4	0.000160795	13	0	7.9906	2.69469e-06
2	1	0	1	0	1	68.4184	0.434214	0.433735	0.00341484	4	0.000162851	13	0	8.3901	1.48114e-06
2	1	0	1	0	1	68.8179	0.438209	0.437771	0.00669746	4	0.000164898	13	0	8.7896	2.93195e-06
2	1	0	1	0	1	69.2175	0.442205	0.441789	0.00408439	4	0.000166994	13	0	9.1892	1.80444e-06
2	1	0	1	0	1	69.617	0.4462	0.445709	0.00445215	4	0.000169144	13	0	9.5887	1.98436e-06
2	1	0	1	0	1	69.994	0.449971	0.449573	0.00686915	4	0.000171152	13	0	9.9657	3.08818e-06
2	1	0	1	0	1	70.3219	0.446749	0.446273	-0.00209231	4	0.00017087	13	0	0.1998	-9.33741e-07
2	0	0	1	0	1	70.7214	0.442754	0.442259	-0.0017099	4	0.000170261	13	0	0.5993	-7.56219e-07
2	0	0	1	0	1	71.1209	0.438759	0.438297	-0.0023955	4	0.000169457	13	0	0.9988	-1.04994e-06
2	0	0	1	0	1	71.5205	0.434764	0.434247	-0.00289005	4	0.000168608	13	0	1.3984	-1.255e-06
2	0	0	1	0	1	71.92	0.430767	0.430334	-0.00234848	4	0.000167623	13	0	1.7979	-1.01063e-06
2	0	0	1	0	1	72.3195	0.426773	0.426314	-0.00348314	4	0.000166625	13	0	2.1974	-1.48491e-06
2	0	0	1	0	1	72.719	0.422779	0.422313	-0.00246683	4	0.000165508	13	0	2.5969	-1.04178e-06
2	0	0	1	0	1	73.1185	0.418782	0.418239	-0.00389742	4	0.000164394	13	0	2.9964	-1.63005e-06
2	0	0	1	0	1	73.5181	0.414787	0.414325	-0.00242849	4	0.000163173	13	0	3.396	-1.00618e-06
2	0	0	1	0	1	73.9176	0.410792	0.410284	-0.00400942	4	0.000161963	13	0	3.7955	-1.645e-06
2	1	0	1	0	1	74.3171	0.406797	0.40631	-0.00273445	4	0.000160659	13	0	4.195	-1.11103e-06
2	0	0	1	0	1	74.7167	0.402801	0.402357	-0.0036854	4	0.000159368	13	0	4.5946	-1.48285e-06
2	1	0	1	0	1	75.1162	0.398806	0.398388	-0.00338709	4	0.000157968	13	0	4.9941	-1.34938e-06
2	0	0	1	0	1	75.5157	0.394811	0.394341	-0.00318055	4	0.000156594	13	0	5.3936	-1.25422e-06
2	1	0	1	0	1	75.9153	0.390816	0.390327	-0.00373072	4	0.000155116	13	0	5.7932	-1.4562e-06
2	0	0	1	0	1	76.3147	0.38682	0.386337	-0.0041699	4	0.000153659	13	0	6.1926	-1.61099e-06
2	1	0	1	0	1	76.7143	0.382825	0.382353	-0.00231318	4	0.000152105	13	0	6.5922	-8.84452e-07
2	0	0	1	0	1	77.1138	0.378831	0.378394	-0.00584674	4	0.000150562	13	0	6.9917	-2.21237e-06
2	0	0	1	0	1	77.5133	0.374835	0.374297	-0.00216239	4	0.000148954	13	0	7.3912	-8.09377e-07
2	1	0	1	0	1	77.9129	0.370839	0.370384	-0.005339	4	0.000147291	13	0	7.7908	-1.97748e-06
2	0	0	1	0	1	78.3124	0.366844	0.366381	-0.00410711	4	0.000145632	13	0	8.1903	-1.50477e-06
2	0	0	1	0	1	78.7119	0.362849	0.362413	-0.00370583	4	0.000143873	13	0	8.5898	-1.34304e-06
2	0	0	1	0	1	79.1115	0.358854	0.358397	-0.00640482	4	0.000142132	13	0	8.9894	-2.29547e-06
2	0	0	1	0	1	79.511	0.354857	0.354402	-0.00265781	4	0.000140302	13	0	9.3889	-9.41934e-07
2	0	0	1	0	1	79.9105	0.350863	0.350386	-0.00718426	4	0.000138448	13	0	9.7884	-2.51726e-06
2	1	0	1	0	0	80.1768	0.351813	0.351402	0.00625654	5	0.000138675	13	0	0.1499	2.19856e-06
2	1	0	1	0	0	80.5763	0.355807	0.355392	0.00222302	5	0.000140349	13	0	0.5494	7.90045e-07
2	1	0	1	0	0	80.9759	0.359802	0.359395	0.00641113	5	0.000142106	13	0	0.949	2.30413e-06
2	1	0	1	0	0	81.3753	0.363798	0.3634	0.00345183	5	0.000143885	13	0	1.3484	1.2544e-06
2	0	0	1	0	0	81.7749	0.367793	0.367387	0.00487141	5	0.000145736	13	0	1.748	1.7897e-06
2	1	0	1	0	0	82.1744	0.371788	0.371361	0.00522732	5	0.000147539	13	0	2.1475	1.94122e-06
2	0	0	1	0	0	82.5739	0.375783	0.375333	0.00306952	5	0.000149406	13	0	2.547	1.15209e-06
2	1	0	1	0	0	82.9735	0.379779	0.379361	0.00639137	5	0.000151223	13	0	2.9466	2.42464e-06
2	1	0	1	0	0	83.373	0.383774	0.383344	0.00247645	5	0.000153074	13	0	3.3461	9.49332e-07
2	0	0	1	0	0	83.7725	0.387769	0.38736	0.006134	5	0.000154919	13	0	3.7456	2.37606e-06
2	1	0	1	0	0	84.1721	0.391764	0.391294	0.00273321	5	0.000156748	13	0	4.1452	1.06949e-06
2	0	0	1	0	0	84.5715	0.39576	0.395357	0.00616471	5	0.000158601	13	0	4.5446	2.43726e-06
2	1	0	1	0	0	84.9711	0.399755	0.399311	0.00280651	5	0.00016043	13	0	4.9442	1.12067e-06
2	0	0	1	0	0	85.3706	0.40375	0.403321	0.00623033	5	0.000162285	13	0	5.3437	2.51282e-06
2	1	0	1	0	0	85.7701	0.407746	0.407285	0.00275499	5	0.000164116	13	0	5.7432	1.12207e-06
2	1	0	1	0	0	86.1697	0.411741	0.411311	0.00634735	5	0.00016597	13	0	6.1428	2.61073e-06
2	1	0	1	0	0	86.5692	0.415736	0.4153	0.00306039	5	0.000167824	13	0	6.5423	1.27098e-06
2	1	0	1	0	0	86.9687	0.419731	0.419286	0.0065295	5	0.000169696	13	0	6.9418	2.73773e-06
2	1	0	1	0	0	87.3683	0.423727	0.423278	0.00313972	5	0.000171575	13	0	7.3414	1.32897e-06
2	1	0	1	0	0	87.7678	0.427723	0.427297	0.0067396	5	0.00017347	13	0	7.7409	2.87981e-06
2	1	0	1	0	0	88.1673	0.431717	0.431304	0.00335648	5	0.000175386	13	0	8.1404	1.44767e-06
2	1	0	1	0	0	88.5669	0.435712	0.435275	0.00687308	5	0.000177309	13	0	8.54	2.99168e-06
2	1	0	1	0	0	88.9663	0.439708	0.439294	0.00357947	5	0.000179275	13	0	8.9394	1.57244e-06
2	1	0	1	0	0	89.3659	0.443703	0.443235	0.00694604	5	0.000181245	13	0	9.339	3.07873e-06
2	1	0	1	0	0	89.7654	0.447698	0.447279	0.00387431	5	0.000183279	13	0	9.7385	1.7329e-06
2	0	0	1	0	0	90.0707	0.449246	0.448708	-0.000637928	5	0.000184411	13	0	0.000000000000000E+000	-2.86243e-07
2	1	0	1	0	0	90.4703	0.445251	0.444779	-0.00225376	5	0.000183813	13	0	0.3996	-1.00243e-06
2	0	0	1	0	0	90.8698	0.441256	0.440786	-0.00127268	5	0.000183081	13	0	0.7991	-5.60978e-07
2	1	0	1	0	0	91.2693	0.437261	0.436794	-0.00310884	5	0.000182183	13	0	1.1986	-1.35792e-06
2	0	0	1	0	0	91.6689	0.433265	0.432823	-0.0011979	5	0.000181251	13	0	1.5982	-5.1848e-07
2	1	0	1	0	0	92.0684	0.42927	0.428776	-0.00385008	5	0.00018021	13	0	1.9977	-1.65083e-06
2	0	0	1	0	0	92.4679	0.425275	0.424803	-0.00103622	5	0.000179134	13	0	2.3972	-4.40189e-07
2	1	0	1	0	0	92.8675	0.42128	0.420852	-0.00449603	5	0.000177994	13	0	2.7968	-1.89216e-06
2	1	0	1	0	0	93.267	0.417283	0.416815	-0.00104618	5	0.000176802	13	0	3.1963	-4.36061e-07
2	1	0	1	0	0	93.6665	0.413289	0.412828	-0.00482869	5	0.000175578	13	0	3.5958	-1.99342e-06
2	0	0	1	0	0	94.0661	0.409294	0.408805	-0.00160943	5	0.000174308	13	0	3.9954	-6.57942e-07
2	1	0	1	0	0	94.4655	0.405298	0.404834	-0.00486402	5	0.000172991	13	0	4.3948	-1.96912e-06
2	0	0	1	0	0	94.8651	0.401303	0.400851	-0.0016317	5	0.000171649	13	0	4.7944	-6.54068e-07
2	0	0	1	0	0	95.2646	0.397308	0.396852	-0.00549548	5	0.000170263	13	0	5.1939	-2.18089e-06
2	0	0	1	0	0	95.6641	0.393313	0.39281	-0.00186842	5	0.000168824	13	0	5.5934	-7.33935e-07
2	0	0	1	0	0	96.0637	0.389317	0.388875	-0.00546071	5	0.000167385	13	0	5.993	-2.12353e-06
2	0	0	1	0	0	96.4632	0.385322	0.384871	-0.00284266	5	0.000165856	13	0	6.3925	-1.09406e-06
2	0	0	1	0	0	96.8627	0.381327	0.380911	-0.00493027	5	0.000164356	13	0	6.792	-1.87799e-06
2	0	0	1	0	0	97.2623	0.377332	0.376853	-0.00367797	5	0.000162749	13	0	7.1916	-1.38605e-06
2	0	0	1	0	0	97.6617	0.373336	0.372859	-0.00465402	5	0.000161171	13	0	7.591	-1.73529e-06
2	0	0	1	0	0	98.0613	0.369341	0.368856	-0.00487268	5	0.000159484	13	0	7.9906	-1.79732e-06
2	0	0	1	0	0	98.4608	0.365347	0.364882	-0.0036433	5	0.00015783	13	0	8.3901	-1.32938e-06
2	0	0	1	0	0	98.8603	0.361351	0.360892	-0.006277	5	0.000156066	13	0	8.7896	-2.26532e-06
2	0	0	1	0	0	99.2599	0.357355	0.356895	-0.00300106	5	0.00015431	13	0	9.1892	-1.07106e-06
2	0	0	1	0	0	99.6594	0.35336	0.352909	-0.00688807	5	0.000152484	13	0	9.5887	-2.43086e-06
2	0	0	1	0	0	99.993	0.349989	0.349686	-0.00186563	5	0.000150971	13	0	0.000000000000000E+000	-6.52386e-07
2	0	0	1	0	1	100.325	0.35331	0.352893	0.00269209	6	0.000152156	13	0	0.2997	9.50019e-07
2	1	0	1	0	1	100.725	0.357305	0.356853	0.00533664	6	0.000153788	13	0	0.6992	1.90439e-06
2	0	0	1	0	1	101.124	0.361301	0.360846	0.00407524	6	0.000155565	13	0	1.0988	1.47053e-06
2	1	0	1	0	1	101.524	0.365297	0.364864	0.00441386	6	0.000157295	13	0	1.4983	1.61046e-06
2	0	0	1	0	1	101.923	0.369291	0.368892	0.00514013	6	0.000159113	13	0	1.8978	1.89615e-06
2	1	0	1	0	1	102.323	0.373286	0.372868	0.00347905	6	0.000160869	13	0	2.2974	1.29722e-06
2	0	0	1	0	1	102.722	0.377282	0.37688	0.00588563	6	0.000162686	13	0	2.6968	2.21818e-06
2	1	0	1	0	1	103.122	0.381277	0.380844	0.00267228	6	0.00016446	13	0	3.0964	1.01772e-06
2	0	0	1	0	1	103.521	0.385272	0.38487	0.00627054	6	0.000166249	13	0	3.4959	2.41334e-06
2	1	0	1	0	1	103.921	0.389267	0.388846	0.00243422	6	0.00016804	13	0	3.8954	9.46534e-07
2	1	0	1	0	1	104.32	0.393263	0.392856	0.00621396	6	0.00016981	13	0	4.295	2.44119e-06
2	0	0	1	0	1	104.72	0.397258	0.396805	0.0027004	6	0.000171614	13	0	4.6945	1.07153e-06
2	1	0	1	0	1	105.119	0.401253	0.400804	0.00581466	6	0.000173371	13	0	5.094	2.33054e-06
2	1	0	1	0	1	105.519	0.405248	0.404846	0.00259334	6	0.000175174	13	0	5.4936	1.0499e-06
2	1	0	1	0	1	105.918	0.409244	0.408746	0.00616297	6	0.00017694	13	0	5.893	2.51909e-06
2	1	0	1	0	1	106.318	0.413239	0.412809	0.00270847	6	0.000178729	13	0	6.2926	1.11808e-06
2	0	0	1	0	1	106.718	0.417233	0.416762	0.00573235	6	0.000180535	13	0	6.6921	2.38902e-06
2	1	0	1	0	1	107.117	0.42123	0.420841	0.00315184	6	0.000182323	13	0	7.0916	1.32642e-06
2	0	0	1	0	1	107.517	0.425225	0.424763	0.00563001	6	0.000184154	13	0	7.4912	2.39142e-06
2	1	0	1	0	1	107.916	0.42922	0.42878	0.00323924	6	0.000185962	13	0	7.8907	1.38892e-06
2	0	0	1	0	1	108.316	0.433215	0.432769	0.00563708	6	0.00018782	13	0	8.2902	2.43955e-06
2	1	0	1	0	1	108.715	0.437211	0.436751	0.00348468	6	0.000189658	13	0	8.6898	1.52194e-06
2	0	0	1	0	1	109.115	0.441207	0.440747	0.00542013	6	0.000191562	13	0	9.0893	2.38891e-06
2	1	0	1	0	1	109.514	0.445201	0.444776	0.0041611	6	0.000193444	13	0	9.4888	1.85075e-06
2	0	0	1	0	1	109.914	0.449196	0.448749	0.00517944	6	0.000195407	13	0	9.8884	2.32427e-06
2	1	0	1	0	1	110.219	0.447748	0.447289	0.000133501	6	0.000195517	13	0	0.1499	5.97136e-08
2	0	0	1	0	1	110.619	0.443753	0.443227	-0.00320453	6	0.000194826	13	0	0.5494	-1.42033e-06
2	1	0	1	0	1	111.018	0.439758	0.439229	-0.0014214	6	0.000193955	13	0	0.949	-6.24318e-07
2	0	0	1	0	1	111.418	0.435762	0.435275	-0.00244282	6	0.000193047	13	0	1.3484	-1.0633e-06
2	1	0	1	0	1	111.817	0.431767	0.431282	-0.00332121	6	0.000192009	13	0	1.748	-1.43238e-06
2	0	0	1	0	1	112.217	0.427772	0.427265	-0.00159851	6	0.000190962	13	0	2.1475	-6.82989e-07
2	1	0	1	0	1	112.616	0.423777	0.423263	-0.00307674	6	0.000189815	13	0	2.547	-1.30227e-06
2	0	0	1	0	1	113.016	0.419781	0.419324	-0.0042589	6	0.000188667	13	0	2.9466	-1.78586e-06
2	0	0	1	0	1	113.415	0.415786	0.415266	-0.00155759	6	0.000187448	13	0	3.3461	-6.46814e-07
2	1	0	1	0	1	113.815	0.411791	0.411298	-0.00280525	6	0.000186175	13	0	3.7456	-1.1538e-06
2	0	0	1	0	1	114.214	0.407795	0.407297	-0.00491938	6	0.000184904	13	0	4.1452	-2.00365e-06
2	0	0	1	0	1	114.614	0.4038	0.403287	-0.00253709	6	0.000183585	13	0	4.5447	-1.02318e-06
2	0	0	1	0	1	115.013	0.399805	0.399347	-0.00216546	6	0.000182196	13	0	4.9442	-8.6477e-07
2	0	0	1	0	1	115.413	0.39581	0.395366	-0.00529352	6	0.000180804	13	0	5.3438	-2.09288e-06
2	0	0	1	0	1	115.812	0.391814	0.391349	-0.00220442	6	0.000179378	13	0	5.7432	-8.62698e-07
2	1	0	1	0	1	116.212	0.387819	0.387341	-0.00517308	6	0.000177886	13	0	6.1428	-2.00374e-06
2	0	0	1	0	1	116.612	0.383824	0.383359	-0.00191181	6	0.000176387	13	0	6.5423	-7.32909e-07
2	0	0	1	0	1	117.011	0.379829	0.379375	-0.00584467	6	0.000174853	13	0	6.9418	-2.21732e-06
2	0	0	1	0	1	117.411	0.375833	0.375415	-0.0026341	6	0.000173245	13	0	7.3414	-9.88883e-07
2	0	0	1	0	1	117.81	0.371838	0.371404	-0.00455609	6	0.00017166	13	0	7.7409	-1.69215e-06
2	1	0	1	0	1	118.21	0.367843	0.367408	-0.00492404	6	0.000169964	13	0	8.1404	-1.80913e-06
2	0	0	1	0	1	118.609	0.363848	0.363418	-0.00250558	6	0.00016829	13	0	8.54	-9.10572e-07
2	0	0	1	0	1	119.009	0.359852	0.35942	-0.00659777	6	0.000166544	13	0	8.9394	-2.37137e-06
2	0	0	1	0	1	119.408	0.355857	0.355386	-0.00235952	6	0.000164752	13	0	9.339	-8.38541e-07
2	0	0	1	0	1	119.808	0.351863	0.351386	-0.00651283	6	0.00016295	13	0	9.7385	-2.28852e-06
2	1	0	1	0	0	120.074	0.350813	0.350372	0.00312499	7	0.000162313	13	0	0.05	1.09491e-06
2	1	0	1	0	0	120.474	0.354807	0.354398	0.00602349	7	0.000163898	13	0	0.4495	2.13471e-06
2	1	0	1	0	0	120.873	0.358804	0.35838	0.00323737	7	0.000165545	13	0	0.849	1.16021e-06
2	1	0	1	0	0	121.273	0.362799	0.362372	0.00492932	7	0.000167293	13	0	1.2486	1.78625e-06
2	1	0	1	0	0	121.672	0.366794	0.366375	0.00558546	7	0.000169003	13	0	1.6481	2.04638e-06
2	1	0	1	0	0	122.072	0.370789	0.370372	0.00272948	7	0.000170779	13	0	2.0476	1.01092e-06
2	1	0	1	0	0	122.471	0.374785	0.374337	0.00667318	7	0.000172521	13	0	2.4472	2.49801e-06
2	1	0	1	0	0	122.871	0.378781	0.378349	0.00266745	7	0.000174274	13	0	2.8467	1.00923e-06
2	1	0	1	0	0	123.27	0.382775	0.382337	0.00652634	7	0.000176026	13	0	3.2462	2.49526e-06
2	1	0	1	0	0	123.67	0.38677	0.386365	0.00280218	7	0.000177769	13	0	3.6458	1.08266e-06
2	1	0	1	0	0	124.069	0.390766	0.390356	0.00633128	7	0.000179522	13	0	4.0452	2.47145e-06
2	1	0	1	0	0	124.469	0.394761	0.394413	0.00276825	7	0.000181258	13	0	4.4448	1.09183e-06
2	1	0	1	0	0	124.868	0.398756	0.398317	0.00631553	7	0.000182983	13	0	4.8443	2.51558e-06
2	1	0	1	0	0	125.268	0.402751	0.40236	0.00329687	7	0.00018475	13	0	5.2438	1.32653e-06
2	1	0	1	0	0	125.667	0.406747	0.406308	0.0059339	7	0.00018646	13	0	5.6434	2.41099e-06
2	1	0	1	0	0	126.067	0.410742	0.410284	0.00324319	7	0.000188216	13	0	6.0429	1.33063e-06
2	1	0	1	0	0	126.466	0.414737	0.414287	0.00590313	7	0.000189932	13	0	6.4424	2.44559e-06
2	1	0	1	0	0	126.866	0.418732	0.418286	0.00345536	7	0.000191705	13	0	6.842	1.44533e-06
2	1	0	1	0	0	127.266	0.422729	0.422318	0.00594499	7	0.000193435	13	0	7.2415	2.51067e-06
2	1	0	1	0	0	127.665	0.426723	0.426304	0.00316157	7	0.000195218	13	0	7.641	1.34779e-06
2	1	0	1	0	0	128.065	0.430717	0.430226	0.00641317	7	0.000196976	13	0	8.0405	2.75911e-06
2	1	0	1	0	0	128.464	0.434714	0.434267	0.0031163	7	0.000198777	13	0	8.44	1.3533e-06
2	1	0	1	0	0	128.864	0.438709	0.438246	0.0064932	7	0.000200572	13	0	8.8396	2.84562e-06
2	1	0	1	0	0	129.263	0.442704	0.442274	0.00342641	7	0.0002024	13	0	9.2391	1.51541e-06
2	1	0	1	0	0	129.663	0.446699	0.44622	0.00642793	7	0.000204259	13	0	9.6386	2.86827e-06
2	0	0	0	0	0	129.991	0.450021	0.449592	-0.000476631	7	0.000205792	13	0	0.000000000000000E+000	-2.1429e-07
2	0	0	1	0	0	130.368	0.44625	0.445797	-0.00325213	7	0.000205264	13	0	0.377	-1.44979e-06
2	0	0	1	0	0	130.767	0.442255	0.441787	-0.0011455	7	0.000204442	13	0	0.7765	-5.06068e-07
2	0	0	1	0	0	131.167	0.438259	0.437746	-0.00336117	7	0.000203558	13	0	1.1761	-1.47134e-06
2	0	0	1	0	0	131.566	0.434264	0.433763	-0.0022152	7	0.000202542	13	0	1.5756	-9.60871e-07
2	0	0	1	0	0	131.966	0.430269	0.429842	-0.00346328	7	0.000201521	13	0	1.9751	-1.48866e-06
2	0	0	1	0	0	132.365	0.426274	0.42578	-0.00242713	7	0.00020039	13	0	2.3747	-1.03343e-06
2	0	0	1	0	0	132.765	0.422278	0.421788	-0.00374012	7	0.000199266	13	0	2.7741	-1.57754e-06
2	0	0	1	0	0	133.164	0.418283	0.417808	-0.00162152	7	0.000198047	13	0	3.1737	-6.77483e-07
2	0	0	1	0	0	133.564	0.414288	0.413824	-0.00497364	7	0.000196826	13	0	3.5732	-2.05821e-06
2	0	0	1	0	0	133.963	0.410293	0.409803	-0.00199855	7	0.00019556	13	0	3.9727	-8.19011e-07
2	1	0	1	0	0	134.363	0.406297	0.405836	-0.00356376	7	0.000194237	13	0	4.3723	-1.4463e-06
2	0	0	1	0	0	134.762	0.402302	0.401837	-0.0044157	7	0.000192919	13	0	4.7718	-1.77439e-06
2	0	0	1	0	0	135.162	0.398307	0.397908	-0.00175271	7	0.000191519	13	0	5.1713	-6.97419e-07
2	1	0	1	0	0	135.561	0.394311	0.39389	-0.00509069	7	0.000190109	13	0	5.5709	-2.00517e-06
2	0	0	1	0	0	135.961	0.390316	0.389883	-0.00327751	7	0.000188683	13	0	5.9704	-1.27784e-06
2	1	0	1	0	0	136.36	0.386321	0.385849	-0.00345148	7	0.000187168	13	0	6.3699	-1.33175e-06
2	0	0	1	0	0	136.76	0.382326	0.381862	-0.0037675	7	0.000185684	13	0	6.7695	-1.43866e-06
2	1	0	1	0	0	137.159	0.37833	0.377884	-0.00361031	7	0.000184103	13	0	7.1689	-1.36428e-06
2	0	0	1	0	0	137.559	0.374335	0.373898	-0.00429614	7	0.000182545	13	0	7.5685	-1.60632e-06
2	1	0	1	0	0	137.959	0.37034	0.36987	-0.00371032	7	0.000180883	13	0	7.968	-1.37234e-06
2	0	0	1	0	0	138.358	0.366345	0.365891	-0.00479183	7	0.000179249	13	0	8.3675	-1.75329e-06
2	1	0	1	0	0	138.758	0.362349	0.361867	-0.00250634	7	0.000177515	13	0	8.7671	-9.0696e-07
2	0	0	1	0	0	139.157	0.358354	0.357931	-0.00644903	7	0.00017579	13	0	9.1666	-2.30831e-06
2	0	0	1	0	0	139.557	0.354359	0.35392	-0.00222315	7	0.000173998	13	0	9.5661	-7.86817e-07
2	1	0	1	0	0	139.956	0.350364	0.349872	-0.00662124	7	0.000172167	13	0	9.9657	-2.31658e-06
2	1	0	1	0	1	140.222	0.352311	0.351892	0.00565301	8	0.000172777	13	0	0.2273	1.98925e-06
2	1	0	1	0	1	140.622	0.356307	0.355881	0.00170038	8	0.00017439	13	0	0.6269	6.05134e-07
2	1	0	1	0	1	141.021	0.360302	0.359858	0.00622776	8	0.000176048	13	0	1.0263	2.24111e-06
2	1	0	1	0	1	141.421	0.364297	0.363843	0.00202633	8	0.000177763	13	0	1.4259	7.37266e-07
2	1	0	1	0	1	141.821	0.368291	0.367863	0.00612233	8	0.000179466	13	0	1.8254	2.25218e-06
2	0	0	1	0	1	142.22	0.372288	0.371823	0.00278969	8	0.000181221	13	0	2.2249	1.03727e-06
2	1	0	1	0	1	142.62	0.376283	0.375796	0.00436286	8	0.000182911	13	0	2.6245	1.63955e-06
2	0	0	1	0	1	143.019	0.380278	0.379836	0.00511758	8	0.000184668	13	0	3.024	1.94384e-06
2	1	0	1	0	1	143.419	0.384273	0.383834	0.00306803	8	0.000186359	13	0	3.4235	1.17761e-06
2	0	0	1	0	1	143.818	0.388269	0.3878	0.00478325	8	0.000188101	13	0	3.8231	1.85494e-06
2	1	0	1	0	1	144.218	0.392265	0.391877	0.00383514	8	0.000189782	13	0	4.2226	1.5029e-06
2	0	0	1	0	1	144.617	0.396259	0.395818	0.00430545	8	0.000191522	13	0	4.6221	1.70418e-06
2	1	0	1	0	1	145.017	0.400254	0.399854	0.00416827	8	0.000193195	13	0	5.0217	1.6667e-06
2	0	0	1	0	1	145.416	0.40425	0.403805	0.00351156	8	0.000194927	13	0	5.4211	1.41799e-06
2	1	0	1	0	1	145.816	0.408245	0.407806	0.00522338	8	0.000196591	13	0	5.8207	2.13013e-06
2	0	0	1	0	1	146.215	0.41224	0.411729	0.0029515	8	0.000198318	13	0	6.2202	1.21522e-06
2	1	0	1	0	1	146.615	0.416236	0.415756	0.00547533	8	0.0002	13	0	6.6197	2.2764e-06
2	0	0	1	0	1	147.014	0.420231	0.419795	0.0030083	8	0.000201734	13	0	7.0193	1.26287e-06
2	1	0	1	0	1	147.414	0.424226	0.423774	0.00501351	8	0.000203422	13	0	7.4188	2.1246e-06
2	0	0	1	0	1	147.813	0.428221	0.427779	0.00421729	8	0.000205178	13	0	7.8183	1.80407e-06
2	1	0	1	0	1	148.213	0.432217	0.431752	0.00337024	8	0.000206885	13	0	8.2179	1.45511e-06
2	0	0	1	0	1	148.613	0.436213	0.435764	0.00573836	8	0.000208649	13	0	8.6174	2.50057e-06
2	1	0	1	0	1	149.012	0.440207	0.439733	0.00296671	8	0.000210403	13	0	9.0169	1.30456e-06
2	0	0	1	0	1	149.412	0.444202	0.443732	0.00594252	8	0.000212196	13	0	9.4165	2.63689e-06
2	1	0	1	0	1	149.811	0.448198	0.447745	0.0029511	8	0.000214002	13	0	9.8159	1.32134e-06
2	0	0	1	0	1	150.116	0.448747	0.44825	-0.00169799	8	0.00021468	13	0	0.0999	-7.61122e-07
2	0	0	1	0	1	150.516	0.444752	0.444234	-0.00277165	8	0.000213929	13	0	0.4995	-1.23126e-06
2	0	0	1	0	1	150.915	0.440756	0.440269	-0.00125624	8	0.000213086	13	0	0.8989	-5.53083e-07
2	0	0	1	0	1	151.315	0.436761	0.436245	-0.00417874	8	0.000212116	13	0	1.2985	-1.82296e-06
2	0	0	1	0	1	151.715	0.432766	0.432282	-0.00153992	8	0.000211104	13	0	1.698	-6.6568e-07
2	0	0	1	0	1	152.114	0.428771	0.428306	-0.00440486	8	0.000210011	13	0	2.0975	-1.88663e-06
2	0	0	1	0	1	152.514	0.424775	0.424301	-0.00156392	8	0.00020889	13	0	2.4971	-6.63573e-07
2	0	0	1	0	1	152.913	0.42078	0.42029	-0.00487503	8	0.000207711	13	0	2.8966	-2.04893e-06
2	0	0	1	0	1	153.313	0.416785	0.416299	-0.00166473	8	0.0002065	13	0	3.2961	-6.93025e-07
2	0	0	1	0	1	153.712	0.41279	0.412331	-0.00519823	8	0.000205248	13	0	3.6957	-2.14339e-06
2	0	0	1	0	1	154.112	0.408794	0.408293	-0.00179747	8	0.000203953	13	0	4.0951	-7.33897e-07
2	0	0	1	0	1	154.511	0.404799	0.404335	-0.00526799	8	0.000202655	13	0	4.4947	-2.13003e-06
2	0	0	1	0	1	154.911	0.400805	0.400374	-0.00221614	8	0.000201279	13	0	4.8942	-8.87287e-07
2	0	0	1	0	1	155.31	0.396808	0.39633	-0.00479992	8	0.00019992	13	0	5.2937	-1.90235e-06
2	0	0	1	0	1	155.71	0.392813	0.392338	-0.00353117	8	0.000198463	13	0	5.6933	-1.38541e-06
2	0	0	1	0	1	156.109	0.388818	0.388375	-0.00356729	8	0.000197042	13	0	6.0928	-1.38545e-06
2	0	0	1	0	1	156.509	0.384823	0.384344	-0.00468341	8	0.000195523	13	0	6.4923	-1.80004e-06
2	0	0	1	0	1	156.908	0.380827	0.380369	-0.00285292	8	0.00019403	13	0	6.8919	-1.08516e-06
2	0	0	1	0	1	157.308	0.376832	0.376333	-0.00558972	8	0.000192448	13	0	7.2914	-2.1036e-06
2	0	0	1	0	1	157.707	0.372837	0.372326	-0.00233525	8	0.000190867	13	0	7.6909	-8.69473e-07
2	0	0	1	0	1	158.107	0.368842	0.368369	-0.00620947	8	0.000189231	13	0	8.0905	-2.28738e-06
2	0	0	1	0	1	158.506	0.364846	0.364414	-0.00258575	8	0.000187544	13	0	8.4899	-9.42286e-07
2	0	0	1	0	1	158.906	0.360851	0.360381	-0.00511254	8	0.000185865	13	0	8.8895	-1.84246e-06
2	1	0	1	0	1	159.306	0.356856	0.356363	-0.00424428	8	0.000184075	13	0	9.289	-1.5125e-06
2	0	0	1	0	1	159.705	0.352861	0.352439	-0.00407473	8	0.000182324	13	0	9.6885	-1.4361e-06
2	1	0	1	0	0	159.994	0.350039	0.349553	-0.00322899	9	0.000180919	13	0	9.9772	-1.1287e-06
2	0	0	1	0	0	160.371	0.353809	0.353374	0.00584936	9	0.000182339	13	0	0.3496	2.06701e-06
2	0	0	1	0	0	160.77	0.357805	0.357362	0.00189753	9	0.00018397	13	0	0.7492	6.78105e-07
2	1	0	1	0	0	161.17	0.3618	0.361354	0.00562371	9	0.000185611	13	0	1.1487	2.03215e-06
2	0	0	1	0	0	161.569	0.365795	0.36536	0.00284741	9	0.000187335	13	0	1.5482	1.04033e-06
2	1	0	1	0	0	161.969	0.369791	0.369368	0.00475296	9	0.000189	13	0	1.9478	1.75559e-06
2	0	0	1	0	0	162.368	0.373786	0.373324	0.00380137	9	0.000190736	13	0	2.3472	1.41914e-06
2	1	0	1	0	0	162.768	0.377781	0.377302	0.00359764	9	0.000192405	13	0	2.7468	1.3574e-06
2	0	0	1	0	0	163.168	0.381775	0.381393	0.00495792	9	0.000194134	13	0	3.1463	1.89092e-06
2	1	0	1	0	0	163.567	0.385772	0.385345	0.00288582	9	0.000195797	13	0	3.5458	1.11204e-06
2	0	0	1	0	0	163.967	0.389767	0.389331	0.00563854	9	0.000197506	13	0	3.9454	2.19526e-06
2	1	0	1	0	0	164.366	0.393762	0.393346	0.0022833	9	0.000199183	13	0	4.3449	8.98128e-07
2	1	0	1	0	0	164.766	0.397757	0.397341	0.00592439	9	0.000200857	13	0	4.7444	2.354e-06
2	1	0	1	0	0	165.165	0.401753	0.401339	0.00238789	9	0.000202547	13	0	5.144	9.58353e-07
2	1	0	1	0	0	165.565	0.405749	0.405316	0.00576838	9	0.000204201	13	0	5.5435	2.33802e-06
2	1	0	1	0	0	165.964	0.409743	0.409287	0.00272448	9	0.000205888	13	0	5.943	1.1151e-06
2	1	0	1	0	0	166.364	0.413738	0.413298	0.00541744	9	0.000207536	13	0	6.3426	2.23902e-06
2	1	0	1	0	0	166.763	0.417734	0.41732	0.00320811	9	0.000209238	13	0	6.742	1.33881e-06
2	1	0	1	0	0	167.163	0.421729	0.421312	0.00501521	9	0.00021089	13	0	7.1416	2.11297e-06
2	1	0	1	0	0	167.562	0.425724	0.425264	0.00373954	9	0.000212602	13	0	7.5411	1.59029e-06
2	1	0	1	0	0	167.962	0.429719	0.429275	0.00478306	9	0.000214269	13	0	7.9406	2.05325e-06
2	1	0	1	0	0	168.361	0.433715	0.433263	0.00414124	9	0.000215997	13	0	8.3402	1.79425e-06
2	1	0	1	0	0	168.761	0.43771	0.437235	0.00447215	9	0.000217683	13	0	8.7397	1.95538e-06
2	1	0	1	0	0	169.16	0.441705	0.441227	0.00464955	9	0.000219444	13	0	9.1392	2.05151e-06
2	1	0	1	0	0	169.56	0.445701	0.445249	0.00419753	9	0.000221167	13	0	9.5388	1.86895e-06
2	1	0	1	0	0	169.96	0.449697	0.449262	0.00535239	9	0.000222964	13	0	9.9383	2.40463e-06
2	0	0	1	0	0	170.265	0.447249	0.446823	-0.00045563	9	0.000222664	13	0	0.2497	-2.03586e-07
2	0	0	1	0	0	170.664	0.443253	0.442791	-0.00371773	9	0.000221877	13	0	0.6493	-1.64618e-06
2	0	0	1	0	0	171.064	0.439258	0.438755	-0.00127262	9	0.00022094	13	0	1.0488	-5.58367e-07
2	0	0	1	0	0	171.463	0.435263	0.43475	-0.00353132	9	0.000219973	13	0	1.4483	-1.53524e-06
2	1	0	1	0	0	171.863	0.431268	0.430757	-0.00220994	9	0.000218892	13	0	1.8479	-9.51948e-07
2	0	0	1	0	0	172.262	0.427272	0.426789	-0.0028914	9	0.000217818	13	0	2.2473	-1.23402e-06
2	1	0	1	0	0	172.662	0.423277	0.422768	-0.00333644	9	0.000216638	13	0	2.6469	-1.41054e-06
2	0	0	1	0	0	173.062	0.419282	0.418811	-0.00191394	9	0.000215471	13	0	3.0464	-8.01578e-07
2	1	0	1	0	0	173.461	0.415287	0.414822	-0.00449032	9	0.000214225	13	0	3.4459	-1.86268e-06
2	0	0	1	0	0	173.861	0.411291	0.410753	-0.00132712	9	0.000212963	13	0	3.8455	-5.45121e-07
2	0	0	1	0	0	174.26	0.407296	0.406848	-0.00484618	9	0.000211684	13	0	4.245	-1.97166e-06
2	1	0	1	0	0	174.66	0.403301	0.402821	-0.00171216	9	0.00021033	13	0	4.6445	-6.89696e-07
2	0	0	1	0	0	175.059	0.399306	0.398867	-0.00426409	9	0.00020899	13	0	5.0441	-1.70081e-06
2	1	0	1	0	0	175.459	0.395309	0.394884	-0.00283585	9	0.000207561	13	0	5.4436	-1.11983e-06
2	0	0	1	0	0	175.858	0.391315	0.390884	-0.00333579	9	0.000206162	13	0	5.8431	-1.30391e-06
2	1	0	1	0	0	176.258	0.387321	0.386912	-0.0040662	9	0.000204662	13	0	6.2426	-1.57326e-06
2	0	0	1	0	0	176.657	0.383325	0.382914	-0.00248115	9	0.000203192	13	0	6.6421	-9.50065e-07
2	1	0	1	0	0	177.057	0.379329	0.378876	-0.00535139	9	0.000201639	13	0	7.0417	-2.02751e-06
2	0	0	1	0	0	177.456	0.375334	0.374854	-0.00184688	9	0.000200077	13	0	7.4412	-6.92312e-07
2	0	0	1	0	0	177.856	0.371339	0.370885	-0.00593364	9	0.000198483	13	0	7.8407	-2.2007e-06
2	0	0	1	0	0	178.255	0.367343	0.366849	-0.00238054	9	0.000196816	13	0	8.2403	-8.73299e-07
2	0	0	1	0	0	178.655	0.363347	0.362844	-0.00522269	9	0.000195169	13	0	8.6398	-1.89502e-06
2	0	0	1	0	0	179.054	0.359353	0.358884	-0.00428854	9	0.000193414	13	0	9.0393	-1.53909e-06
2	0	0	1	0	0	179.454	0.355358	0.354872	-0.00364227	9	0.000191695	13	0	9.4389	-1.29254e-06
2	0	0	1	0	0	179.853	0.351362	0.350915	-0.00635414	9	0.000189864	13	0	9.8383	-2.22977e-06
2	1	0	1	0	1	180.12	0.351312	0.350908	0.00556408	10	0.000189667	13	0	0.1	1.95248e-06
2	1	0	1	0	1	180.519	0.355308	0.354887	0.0031961	10	0.000191231	13	0	0.4994	1.13425e-06
2	1	0	1	0	1	180.919	0.359303	0.358892	0.00455663	10	0.000192812	13	0	0.899	1.63534e-06
2	1	0	1	0	1	181.318	0.363298	0.362848	0.00462666	10	0.000194507	13	0	1.2985	1.67877e-06
2	1	0	1	0	1	181.718	0.367293	0.366874	0.00346277	10	0.000196146	13	0	1.698	1.2704e-06
2	1	0	1	0	1	182.117	0.371289	0.370836	0.00585978	10	0.000197855	13	0	2.0976	2.17302e-06
2	1	0	1	0	1	182.517	0.375284	0.3749	0.00244031	10	0.000199521	13	0	2.4971	9.14874e-07
2	1	0	1	0	1	182.916	0.379279	0.378849	0.00618689	10	0.000201197	13	0	2.8966	2.3439e-06
2	1	0	1	0	1	183.316	0.383275	0.382866	0.00236925	10	0.000202884	13	0	3.2962	9.07107e-07
2	1	0	1	0	1	183.716	0.387271	0.386887	0.00552936	10	0.000204524	13	0	3.6957	2.13923e-06
2	0	0	1	0	1	184.115	0.391265	0.390856	0.00320656	10	0.000206219	13	0	4.0952	1.2533e-06
2	1	0	1	0	1	184.515	0.395259	0.394851	0.00420078	10	0.000207843	13	0	4.4947	1.65868e-06
2	0	0	1	0	1	184.914	0.399256	0.398833	0.00446052	10	0.000209528	13	0	4.8942	1.779e-06
2	1	0	1	0	1	185.314	0.403251	0.402812	0.002774	10	0.000211153	13	0	5.2938	1.1174e-06
2	0	0	1	0	1	185.713	0.407246	0.406837	0.00550721	10	0.000212818	13	0	5.6933	2.24054e-06
2	1	0	1	0	1	186.113	0.411241	0.410787	0.00213491	10	0.000214452	13	0	6.0928	8.76992e-07
2	1	0	1	0	1	186.512	0.415237	0.414814	0.00558037	10	0.000216092	13	0	6.4924	2.31482e-06
2	0	0	1	0	1	186.912	0.419232	0.418801	0.0025204	10	0.000217762	13	0	6.8919	1.05555e-06
2	1	0	1	0	1	187.311	0.423227	0.422821	0.00497661	10	0.000219393	13	0	7.2914	2.10422e-06
2	0	0	1	0	1	187.711	0.427222	0.426783	0.00355135	10	0.000221081	13	0	7.691	1.51565e-06
2	1	0	1	0	1	188.11	0.431218	0.430774	0.00401431	10	0.000222719	13	0	8.0904	1.72926e-06
2	0	0	1	0	1	188.51	0.435213	0.434783	0.00496554	10	0.000224425	13	0	8.49	2.15893e-06
2	1	0	1	0	1	188.909	0.439208	0.43877	0.0029857	10	0.000226096	13	0	8.8895	1.31004e-06
2	1	0	1	0	1	189.309	0.443204	0.442743	0.00591857	10	0.00022781	13	0	9.289	2.6204e-06
2	1	0	1	0	1	189.708	0.447199	0.446771	0.00285825	10	0.000229542	13	0	9.6886	1.27698e-06
2	0	0	1	0	1	190.014	0.449747	0.44927	-0.000948134	10	0.000230737	13	0	0.000000000000000E+000	-4.25968e-07
2	0	0	1	0	1	190.413	0.445751	0.445293	-0.00321976	10	0.000230025	13	0	0.3995	-1.43374e-06
2	0	0	1	0	1	190.813	0.441755	0.441243	-0.00112945	10	0.000229177	13	0	0.7991	-4.98362e-07
2	0	0	1	0	1	191.212	0.43776	0.43728	-0.00431639	10	0.000228216	13	0	1.1986	-1.88747e-06
2	0	0	1	0	1	191.612	0.433765	0.433264	-0.00123176	10	0.000227181	13	0	1.5981	-5.33676e-07
2	0	0	1	0	1	192.011	0.429769	0.429325	-0.00394327	10	0.000226125	13	0	1.9977	-1.69294e-06
2	1	0	1	0	1	192.411	0.425773	0.425307	-0.0023619	10	0.00022497	13	0	2.3972	-1.00453e-06
2	0	0	1	0	1	192.81	0.421779	0.421267	-0.00283106	10	0.000223831	13	0	2.7967	-1.19263e-06
2	1	0	1	0	1	193.21	0.417784	0.417265	-0.00380711	10	0.000222593	13	0	3.1963	-1.58857e-06
2	0	0	1	0	1	193.609	0.413788	0.413311	-0.00167988	10	0.000221371	13	0	3.5957	-6.9431e-07
2	1	0	1	0	1	194.009	0.409793	0.409318	-0.00480347	10	0.000220085	13	0	3.9953	-1.96615e-06
2	1	0	1	0	1	194.409	0.405798	0.405338	-0.00142578	10	0.000218775	13	0	4.3948	-5.77923e-07
2	0	0	1	0	1	194.808	0.401803	0.401386	-0.00455481	10	0.000217453	13	0	4.7943	-1.82824e-06
2	1	0	1	0	1	195.208	0.397807	0.397361	-0.00254003	10	0.000216047	13	0	5.1939	-1.00931e-06
2	0	0	1	0	1	195.607	0.393812	0.393299	-0.00339175	10	0.00021467	13	0	5.5934	-1.33397e-06
2	1	0	1	0	1	196.007	0.389817	0.389336	-0.00449014	10	0.000213197	13	0	5.9929	-1.74818e-06
2	0	0	1	0	1	196.406	0.385822	0.385328	-0.00207435	10	0.000211743	13	0	6.3925	-7.99304e-07
2	0	0	1	0	1	196.806	0.381825	0.381329	-0.00567067	10	0.000210239	13	0	6.792	-2.16239e-06
2	0	0	1	0	1	197.205	0.377831	0.377404	-0.00247047	10	0.000208678	13	0	7.1915	-9.32363e-07
2	0	0	1	0	1	197.605	0.373836	0.37335	-0.00499732	10	0.000207133	13	0	7.5911	-1.86575e-06
2	0	0	1	0	1	198.004	0.369841	0.369365	-0.00418554	10	0.000205487	13	0	7.9905	-1.54599e-06
2	0	0	1	0	1	198.404	0.365845	0.365359	-0.00357233	10	0.000203873	13	0	8.3901	-1.30518e-06
2	0	0	1	0	1	198.803	0.36185	0.361412	-0.00641774	10	0.000202163	13	0	8.7896	-2.31945e-06
2	0	0	1	0	1	199.203	0.357855	0.357361	-0.00257425	10	0.000200441	13	0	9.1891	-9.19938e-07
2	0	0	1	0	1	199.602	0.353859	0.353357	-0.00674465	10	0.000198697	13	0	9.5887	-2.38327e-06
2	0	0	1	0	1	199.982	0.350064	0.349562	-0.00367103	10	0.000196939	13	0	9.9683	-1.28325e-06
2	0	0	0	0	1	199.986	0.349989	0.349553	-0.00125877	10	0.000196928	13	0	9.9722	-4.40007e-07