File: ACS_Catal_2026/Figures_Na_K/main_figures/data/EC/20251112_2-148_alpha_reproducibility/20251112_2-148_002_alpha_reproducibility_2_Na2_01_CVA_C02.mpt
EC-Lab ASCII FILE
Nb header lines : 66

Cyclic Voltammetry Advanced

Run on channel : 2 (SN 69290)
User :
CE vs. WE compliance from -10 V to 10 V
Electrode connection : standard
Potential control : Ewe
Ewe ctrl range : min = -1.00 V, max = 1.00 V
Safety Limits :
	Do not start on E overload
Acquisition started on : 11/12/2025 15:15:43.590
Loaded Setting File :  C:\Users\User\Documents\EC-Lab\Data\Yatsuzuka\20251112_2-148_alpha_reproducibility\20251112_2-148_002_alpha_reproducibility_2_K1.mps
Saved on :
	File : 20251112_2-148_002_alpha_reproducibility_2_Na2_01_CVA_C02.mpr
	Directory : C:\Users\User\Documents\EC-Lab\Data\Yatsuzuka\20251112_2-148_alpha_reproducibility\
	Host : 192.109.209.127
Device : SP-150e (SN .003883)
Address : 192.109.209.128
EC-LAB for windows v11.52 (software)
Internet server v11.52 (firmware)
Command interpretor v11.50 (firmware)
Electrode material :
Initial state :
Electrolyte :
Comments :
Electrode surface area : 0.001 cm2
Characteristic mass : 0.001 g
Equivalent Weight : 0.000 g/eq.
Density : 0.000 g/cm3
Volume (V) : 0.001 cm3
Cycle Definition : Charge/Discharge alternance
Ei (V)              0.350
vs.                 Ref
ti (h:m:s)          0:00:10.0000
dti (s)             0.0000
dE/dt               10.000
dE/dt unit          mV/s
E1 (V)              0.450
vs.                 Ref
t1 (h:m:s)          0:00:0.0000
dt1 (s)             0.1000
Step percent        50
N                   10
E range min (V)     -1.000
E range max (V)     1.000
I Range             Auto
I Range min         Unset
I Range max         Unset
I Range init        Unset
Bandwidth           5
E2 (V)              0.350
vs.                 Ref
t2 (h:m:s)          0:00:0.0000
dt2 (s)             0.1000
nc cycles           9
nr                  1
Reverse Scan        0
Ef (V)              0.000
vs.                 Eoc
tf (h:m:s)          0:00:0.0000
dtf (s)             0.1000

mode	ox/red	error	control changes	Ns changes	counter inc.	time/s	control/V	Ewe/V	<I>/mA	cycle number	(Q-Qo)/C	I Range	Ns	step time/s	Pwe/W	Rwe/Ohm
2	1	0	1	0	0	0.000000000000000E+000	0.349989	0.349534	0.00641367	1	0.0000000E+000	13	0	0.000000000000000E+000	2.24179e-06	54498.2
2	1	0	1	0	0	0.3771	0.35376	0.353284	0.0274471	1	1.10887e-05	13	0	0.3496	9.69662e-06	12871.5
2	1	0	1	0	0	0.7767	0.357755	0.35733	0.0261238	1	2.42168e-05	13	0	0.7492	9.3348e-06	13678.3
2	1	0	1	0	0	1.1762	0.36175	0.361303	0.0322322	1	3.74041e-05	13	0	1.1487	1.16456e-05	11209.4
2	1	0	1	0	0	1.5757	0.365745	0.365352	0.0384849	1	5.04885e-05	13	0	1.5482	1.40606e-05	9493.39
2	1	0	1	0	0	1.9753	0.369741	0.369307	0.0374112	1	6.34245e-05	13	0	1.9478	1.38162e-05	9871.55
2	1	0	1	0	0	2.3748	0.373737	0.373335	0.0299217	1	7.62574e-05	13	0	2.3473	1.11708e-05	12477.1
2	1	0	1	0	0	2.7743	0.377731	0.377298	0.0249387	1	8.90068e-05	13	0	2.7468	9.40932e-06	15129
2	1	0	1	0	0	3.1739	0.381726	0.381366	0.0269953	1	0.000101604	13	0	3.1464	1.02951e-05	14127.1
2	1	0	1	0	0	3.5733	0.385722	0.385321	0.0339909	1	0.000113979	13	0	3.5458	1.30974e-05	11336
2	1	0	1	0	0	3.9729	0.389717	0.389257	0.0368304	1	0.000126216	13	0	3.9454	1.43365e-05	10568.9
2	1	0	1	0	0	4.3724	0.393712	0.393254	0.0324591	1	0.000138287	13	0	4.3449	1.27647e-05	12115.4
2	1	0	1	0	0	4.7719	0.397707	0.397282	0.0250545	1	0.000150269	13	0	4.7444	9.95368e-06	15856.7
2	1	0	1	0	0	5.1715	0.401703	0.401284	0.0230863	1	0.000162117	13	0	5.144	9.26415e-06	17381.9
2	1	0	1	0	0	5.571	0.405698	0.405298	0.027317	1	0.000173836	13	0	5.5435	1.10715e-05	14836.8
2	1	0	1	0	0	5.9705	0.409693	0.409254	0.0335145	1	0.000185321	13	0	5.943	1.37159e-05	12211.2
2	1	0	1	0	0	6.3701	0.413688	0.413219	0.0342869	1	0.000196704	13	0	6.3426	1.4168e-05	12051.8
2	1	0	1	0	0	6.7695	0.417684	0.417216	0.0288715	1	0.000207966	13	0	6.742	1.20457e-05	14450.8
2	1	0	1	0	0	7.1691	0.421679	0.42124	0.0227991	1	0.00021916	13	0	7.1416	9.60389e-06	18476.2
2	1	0	1	0	0	7.5686	0.425673	0.42522	0.021652	1	0.000230248	13	0	7.5411	9.20686e-06	19638.8
2	1	0	1	0	0	7.9681	0.42967	0.429225	0.0265159	1	0.000241237	13	0	7.9406	1.13813e-05	16187.5
2	1	0	1	0	0	8.3677	0.433665	0.433208	0.0320726	1	0.000252052	13	0	8.3402	1.38941e-05	13507.1
2	1	0	1	0	0	8.7672	0.43766	0.437217	0.0322663	1	0.000262765	13	0	8.7397	1.41074e-05	13550.3
2	1	0	1	0	0	9.1667	0.441655	0.441195	0.0258987	1	0.00027341	13	0	9.1392	1.14264e-05	17035.4
2	1	0	1	0	0	9.5663	0.445651	0.445184	0.0206262	1	0.000283985	13	0	9.5388	9.18246e-06	21583.4
2	1	0	1	0	0	9.9658	0.449647	0.449185	0.0216693	1	0.000294476	13	0	9.9383	9.73355e-06	20729.1
2	0	0	1	0	0	10.3411	0.446599	0.446128	-0.015666	1	0.00028895	13	0	0.2498	-6.98903e-06	28477.5
2	0	0	1	0	0	10.7406	0.442603	0.442121	-0.0213081	1	0.000279983	13	0	0.6493	-9.42077e-06	20748.9
2	0	0	1	0	0	11.1401	0.438609	0.438116	-0.0289609	1	0.000270618	13	0	1.0488	-1.26882e-05	15127.8
2	0	0	1	0	0	11.5397	0.434614	0.434111	-0.029914	1	0.000260989	13	0	1.4484	-1.2986e-05	14512
2	0	0	1	0	0	11.9391	0.430618	0.430128	-0.0241157	1	0.000251106	13	0	1.8478	-1.03728e-05	17836
2	0	0	1	0	0	12.3387	0.426623	0.426178	-0.0199987	1	0.000240964	13	0	2.2474	-8.52302e-06	21310.2
2	0	0	1	0	0	12.7382	0.422628	0.422113	-0.0221188	1	0.000230586	13	0	2.6469	-9.33661e-06	19083.9
2	0	0	1	0	0	13.1377	0.418633	0.418138	-0.0293286	1	0.000219997	13	0	3.0464	-1.22634e-05	14257
2	0	0	1	0	0	13.5373	0.414637	0.414143	-0.0337601	1	0.000209273	13	0	3.446	-1.39815e-05	12267.2
2	0	0	1	0	0	13.9368	0.410642	0.410162	-0.0311737	1	0.000198359	13	0	3.8455	-1.27862e-05	13157.3
2	0	0	1	0	0	14.3363	0.406647	0.406164	-0.0252207	1	0.000187294	13	0	4.245	-1.02437e-05	16104.4
2	0	0	1	0	0	14.7359	0.402652	0.402239	-0.0226597	1	0.000175924	13	0	4.6446	-9.1146e-06	17751.3
2	0	0	1	0	0	15.1353	0.398656	0.398149	-0.0273376	1	0.000164307	13	0	5.044	-1.08844e-05	14564.1
2	0	0	1	0	0	15.5349	0.394661	0.394166	-0.0346645	1	0.000152528	13	0	5.4436	-1.36636e-05	11370.9
2	0	0	1	0	0	15.9344	0.390667	0.390226	-0.0370519	1	0.000140567	13	0	5.8431	-1.44586e-05	10531.9
2	0	0	1	0	0	16.3339	0.386671	0.386213	-0.0325684	1	0.000128362	13	0	6.2426	-1.25783e-05	11858.5
2	0	0	1	0	0	16.7335	0.382675	0.382234	-0.026906	1	0.000115905	13	0	6.6422	-1.02844e-05	14206.3
2	0	0	1	0	0	17.133	0.37868	0.378178	-0.0260374	1	0.000103205	13	0	7.0417	-9.84678e-06	14524.4
2	0	0	1	0	0	17.5325	0.374685	0.37419	-0.0317832	1	9.0232e-05	13	0	7.4412	-1.1893e-05	11773.2
2	0	0	1	0	0	17.9321	0.370689	0.370209	-0.0389428	1	7.70307e-05	13	0	7.8408	-1.4417e-05	9506.46
2	0	0	1	0	0	18.3316	0.366694	0.366245	-0.0411594	1	6.35702e-05	13	0	8.2403	-1.50744e-05	8898.22
2	0	0	1	0	0	18.7311	0.362699	0.362177	-0.0365113	1	4.98432e-05	13	0	8.6398	-1.32236e-05	9919.58
2	0	0	1	0	0	19.1307	0.358704	0.358212	-0.0306984	1	3.57638e-05	13	0	9.0394	-1.09965e-05	11668.8
2	0	0	1	0	0	19.5301	0.354708	0.354231	-0.030561	1	2.1369e-05	13	0	9.4388	-1.08257e-05	11590.9
2	0	0	1	0	0	19.9297	0.350713	0.350204	-0.0365034	1	6.64393e-06	13	0	9.8384	-1.27837e-05	9593.74
2	1	0	1	0	1	20.2909	0.352911	0.352503	0.0299833	2	1.08633e-05	13	0	0.1948	1.05692e-05	11756.6
2	1	0	1	0	1	20.6904	0.356907	0.356466	0.0367889	2	2.3108e-05	13	0	0.5943	1.3114e-05	9689.5
2	1	0	1	0	1	21.0899	0.360901	0.360441	0.0375817	2	3.56818e-05	13	0	0.9938	1.3546e-05	9590.86
2	1	0	1	0	1	21.4894	0.364895	0.364483	0.0318861	2	4.83569e-05	13	0	1.3933	1.16219e-05	11430.8
2	1	0	1	0	1	21.8889	0.368892	0.368443	0.0259951	2	6.10157e-05	13	0	1.7928	9.57772e-06	14173.5
2	1	0	1	0	1	22.2885	0.372887	0.372497	0.0248689	2	7.3632e-05	13	0	2.1924	9.26359e-06	14978.4
2	1	0	1	0	1	22.688	0.376882	0.376456	0.0304718	2	8.6158e-05	13	0	2.5919	1.14713e-05	12354.2
2	1	0	1	0	1	23.0875	0.380877	0.380414	0.0362792	2	9.85226e-05	13	0	2.9914	1.38011e-05	10485.7
2	1	0	1	0	1	23.4871	0.384873	0.384416	0.0367846	2	0.000110738	13	0	3.391	1.41406e-05	10450.5
2	1	0	1	0	1	23.8866	0.388869	0.388438	0.0315499	2	0.00012285	13	0	3.7905	1.22552e-05	12311.9
2	1	0	1	0	1	24.2861	0.392863	0.392401	0.0251297	2	0.000134853	13	0	4.19	9.86092e-06	15615.1
2	1	0	1	0	1	24.6857	0.396858	0.396414	0.0233726	2	0.000146773	13	0	4.5896	9.26523e-06	16960.6
2	1	0	1	0	1	25.0851	0.400854	0.400424	0.027236	2	0.000158541	13	0	4.989	1.09059e-05	14702
2	1	0	1	0	1	25.4847	0.404849	0.404424	0.0327701	2	0.000170153	13	0	5.3886	1.3253e-05	12341.2
2	1	0	1	0	1	25.8842	0.408844	0.408375	0.0351261	2	0.000181534	13	0	5.7881	1.43446e-05	11626
2	1	0	1	0	1	26.2837	0.41284	0.412377	0.031677	2	0.000192833	13	0	6.1876	1.30629e-05	13018.2
2	1	0	1	0	1	26.6833	0.416835	0.416404	0.0250338	2	0.000204051	13	0	6.5872	1.04242e-05	16633.7
2	1	0	1	0	1	27.0828	0.42083	0.420358	0.0215725	2	0.000215188	13	0	6.9867	9.0682e-06	19485.8
2	1	0	1	0	1	27.4823	0.424825	0.42436	0.0234399	2	0.000226241	13	0	7.3862	9.94696e-06	18104.2
2	1	0	1	0	1	27.8819	0.428821	0.428412	0.0291031	2	0.000237185	13	0	7.7858	1.24681e-05	14720.5
2	1	0	1	0	1	28.2814	0.432817	0.432347	0.0330446	2	0.000247982	13	0	8.1853	1.42867e-05	13083.7
2	1	0	1	0	1	28.6809	0.436811	0.436314	0.0308409	2	0.000258655	13	0	8.5848	1.34563e-05	14147.2
2	1	0	1	0	1	29.0805	0.440806	0.440342	0.0250126	2	0.000269287	13	0	8.9844	1.10141e-05	17604.8
2	1	0	1	0	1	29.4799	0.444802	0.444341	0.0202799	2	0.000279852	13	0	9.3838	9.01118e-06	21910.5
2	1	0	1	0	1	29.8795	0.448797	0.448319	0.0214369	2	0.00029037	13	0	9.7834	9.61058e-06	20913.4
2	0	0	1	0	1	30.2248	0.447748	0.447254	-0.0229793	2	0.000289823	13	0	0.1499	-1.02776e-05	19463.4
2	0	0	1	0	1	30.6243	0.443753	0.443242	-0.0286746	2	0.000281072	13	0	0.5494	-1.27098e-05	15457.6
2	0	0	1	0	1	31.0239	0.439758	0.439305	-0.027112	2	0.000271851	13	0	0.949	-1.19104e-05	16203.3
2	0	0	1	0	1	31.4233	0.435762	0.435287	-0.0216815	2	0.000262274	13	0	1.3484	-9.43769e-06	20076.4
2	0	0	1	0	1	31.8229	0.431767	0.43128	-0.0187271	2	0.000252425	13	0	1.748	-8.07662e-06	23029.7
2	0	0	1	0	1	32.2224	0.427772	0.427297	-0.0221265	2	0.000242337	13	0	2.1475	-9.45461e-06	19311.5
2	0	0	1	0	1	32.6219	0.423777	0.423305	-0.0290956	2	0.000232043	13	0	2.547	-1.23163e-05	14548.8
2	0	0	1	0	1	33.0215	0.419781	0.419281	-0.0328666	2	0.000221587	13	0	2.9466	-1.37803e-05	12757.1
2	0	0	1	0	1	33.421	0.415786	0.415343	-0.0302028	2	0.000210941	13	0	3.3461	-1.25445e-05	13751.8
2	0	0	1	0	1	33.8205	0.411791	0.41134	-0.0240892	2	0.000200059	13	0	3.7456	-9.90884e-06	17075.8
2	0	0	1	0	1	34.2201	0.407795	0.407321	-0.0212604	2	0.000188972	13	0	4.1452	-8.6598e-06	19158.7
2	0	0	1	0	1	34.6196	0.4038	0.403369	-0.0252069	2	0.00017777	13	0	4.5447	-1.01677e-05	16002.3
2	0	0	1	0	1	35.0191	0.399805	0.399336	-0.0322138	2	0.000166295	13	0	4.9442	-1.28641e-05	12396.4
2	0	0	1	0	1	35.4187	0.39581	0.395349	-0.035691	2	0.000154644	13	0	5.3438	-1.41104e-05	11077
2	0	0	1	0	1	35.8181	0.391814	0.391367	-0.0330302	2	0.00014278	13	0	5.7432	-1.29269e-05	11848.8
2	0	0	1	0	1	36.2177	0.387819	0.387338	-0.026826	2	0.000130681	13	0	6.1428	-1.03908e-05	14438.9
2	0	0	1	0	1	36.6172	0.383824	0.383359	-0.0241481	2	0.00011832	13	0	6.5423	-9.25739e-06	15875.4
2	0	0	1	0	1	37.0167	0.379829	0.379361	-0.0283349	2	0.000105727	13	0	6.9418	-1.07491e-05	13388.5
2	0	0	1	0	1	37.4163	0.375833	0.375356	-0.03547	2	9.29093e-05	13	0	7.3414	-1.33139e-05	10582.3
2	0	0	1	0	1	37.8158	0.371838	0.371326	-0.0393967	2	7.98648e-05	13	0	7.7409	-1.4629e-05	9425.3
2	0	0	1	0	1	38.2153	0.367843	0.367394	-0.0367387	2	6.65325e-05	13	0	8.1404	-1.34976e-05	10000.2
2	0	0	1	0	1	38.6149	0.363848	0.363364	-0.0308413	2	5.29013e-05	13	0	8.54	-1.12066e-05	11781.7
2	0	0	1	0	1	39.0143	0.359852	0.35939	-0.0283715	2	3.89224e-05	13	0	8.9394	-1.01964e-05	12667.3
2	0	0	1	0	1	39.4139	0.355857	0.355396	-0.0317728	2	2.46736e-05	13	0	9.339	-1.12919e-05	11185.6
2	0	0	1	0	1	39.8134	0.351863	0.35138	-0.0396551	2	1.01066e-05	13	0	9.7385	-1.3934e-05	8860.89
2	1	0	1	0	0	40.0797	0.350813	0.350388	0.0240765	3	3.91666e-06	13	0	0.000000000000000E+000	8.43611e-06	14553.1
2	1	0	1	0	0	40.4792	0.354807	0.354373	0.0371493	3	1.55539e-05	13	0	0.3995	1.31647e-05	9539.15
2	1	0	1	0	0	40.8787	0.358804	0.358358	0.0379015	3	2.8003e-05	13	0	0.799	1.35823e-05	9454.97
2	1	0	1	0	0	41.2783	0.362799	0.362337	0.0323885	3	4.06543e-05	13	0	1.1986	1.17356e-05	11187.2
2	1	0	1	0	0	41.6778	0.366794	0.366314	0.0264334	3	5.33392e-05	13	0	1.5981	9.68291e-06	13858
2	1	0	1	0	0	42.0773	0.370789	0.370306	0.0251739	3	6.60254e-05	13	0	1.9976	9.32205e-06	14709.9
2	1	0	1	0	0	42.4769	0.374785	0.374385	0.0297587	3	7.86024e-05	13	0	2.3972	1.11412e-05	12580.7
2	1	0	1	0	0	42.8764	0.378781	0.378366	0.0357855	3	9.10492e-05	13	0	2.7967	1.354e-05	10573.2
2	1	0	1	0	0	43.2759	0.382775	0.382351	0.0370821	3	0.00010332	13	0	3.1962	1.41784e-05	10310.9
2	1	0	1	0	0	43.6755	0.38677	0.386291	0.0320859	3	0.000115488	13	0	3.5958	1.23945e-05	12039.3
2	1	0	1	0	0	44.0749	0.390766	0.390317	0.0254184	3	0.000127577	13	0	3.9952	9.92124e-06	15355.6
2	1	0	1	0	0	44.4745	0.394761	0.394316	0.0231776	3	0.000139539	13	0	4.3948	9.1393e-06	17012.8
2	1	0	1	0	0	44.874	0.398756	0.398332	0.0269444	3	0.000151379	13	0	4.7943	1.07328e-05	14783.5
2	1	0	1	0	0	45.2735	0.402751	0.402368	0.0329592	3	0.000163077	13	0	5.1938	1.32617e-05	12208.1
2	1	0	1	0	0	45.6731	0.406747	0.406327	0.0350943	3	0.000174606	13	0	5.5934	1.42598e-05	11578.1
2	1	0	1	0	0	46.0726	0.410742	0.410261	0.0313613	3	0.000185944	13	0	5.9929	1.28663e-05	13081.8
2	1	0	1	0	0	46.4721	0.414737	0.414264	0.0252121	3	0.000197248	13	0	6.3924	1.04445e-05	16431.2
2	1	0	1	0	0	46.8717	0.418732	0.418256	0.0215443	3	0.000208454	13	0	6.792	9.01103e-06	19413.7
2	1	0	1	0	0	47.2712	0.422729	0.422303	0.0237252	3	0.000219575	13	0	7.1915	1.00192e-05	17799.8
2	1	0	1	0	0	47.6707	0.426723	0.426302	0.0293657	3	0.000230553	13	0	7.591	1.25187e-05	14517
2	1	0	1	0	0	48.0702	0.430717	0.430307	0.0331456	3	0.000241407	13	0	7.9905	1.42628e-05	12982.3
2	1	0	1	0	0	48.4697	0.434714	0.434198	0.0320296	3	0.000252153	13	0	8.39	1.39072e-05	13556.2
2	1	0	1	0	0	48.8693	0.438709	0.438237	0.0269772	3	0.000262823	13	0	8.7896	1.18224e-05	16244.7
2	1	0	1	0	0	49.2688	0.442704	0.44222	0.0216875	3	0.000273438	13	0	9.1891	9.59065e-06	20390.6
2	1	0	1	0	0	49.6683	0.446699	0.446232	0.0205401	3	0.000283975	13	0	9.5886	9.16566e-06	21724.9
2	1	0	0	0	0	49.9962	0.450021	0.449477	0.0177534	3	0.000292411	13	0	9.9165	7.97973e-06	25317.9
2	0	0	1	0	0	50.3732	0.44625	0.445789	-0.0216219	3	0.000285783	13	0	0.2997	-9.63881e-06	20617.5
2	0	0	1	0	0	50.7727	0.442255	0.441754	-0.0177726	3	0.000276783	13	0	0.6992	-7.8511e-06	24856
2	0	0	1	0	0	51.1723	0.438259	0.437772	-0.0177655	3	0.000267349	13	0	1.0988	-7.77723e-06	24641.8
2	0	0	1	0	0	51.5718	0.434264	0.433776	-0.0223868	3	0.000257643	13	0	1.4983	-9.71089e-06	19376.4
2	0	0	1	0	0	51.9713	0.430269	0.429769	-0.0283239	3	0.000247712	13	0	1.8978	-1.21727e-05	15173.4
2	0	0	1	0	0	52.3709	0.426274	0.425804	-0.0316261	3	0.000237591	13	0	2.2974	-1.34665e-05	13463.7
2	0	0	1	0	0	52.7703	0.422278	0.42179	-0.0300397	3	0.000227264	13	0	2.6968	-1.26704e-05	14041.1
2	0	0	1	0	0	53.1699	0.418283	0.417815	-0.0248492	3	0.000216714	13	0	3.0964	-1.03824e-05	16814
2	0	0	1	0	0	53.5694	0.414288	0.413784	-0.0209742	3	0.000205962	13	0	3.4959	-8.6788e-06	19728.2
2	0	0	1	0	0	53.9689	0.410293	0.409779	-0.0216473	3	0.000195001	13	0	3.8954	-8.8706e-06	18929.8
2	0	0	1	0	0	54.3685	0.406297	0.405804	-0.0254919	3	0.000183929	13	0	4.295	-1.03447e-05	15918.9
2	0	0	1	0	0	54.768	0.402302	0.401899	-0.0317685	3	0.000172607	13	0	4.6945	-1.27677e-05	12650.9
2	0	0	1	0	0	55.1675	0.398307	0.397839	-0.0354683	3	0.000161093	13	0	5.094	-1.41107e-05	11216.7
2	0	0	1	0	0	55.5671	0.394311	0.393857	-0.033809	3	0.000149389	13	0	5.4936	-1.33159e-05	11649.5
2	0	0	1	0	0	55.9666	0.390316	0.389855	-0.0277854	3	0.000137454	13	0	5.8931	-1.08323e-05	14030.9
2	0	0	1	0	0	56.3661	0.386321	0.385862	-0.0242348	3	0.000125251	13	0	6.2926	-9.3513e-06	15921.8
2	0	0	1	0	0	56.7657	0.382326	0.381852	-0.0277891	3	0.000112827	13	0	6.6922	-1.06113e-05	13741.1
2	0	0	1	0	0	57.1651	0.37833	0.377865	-0.0355119	3	0.000100212	13	0	7.0916	-1.34187e-05	10640.5
2	0	0	1	0	0	57.5647	0.374335	0.373855	-0.0393887	3	8.7336e-05	13	0	7.4912	-1.47257e-05	9491.44
2	0	0	1	0	0	57.9642	0.37034	0.369872	-0.0363499	3	7.4223e-05	13	0	7.8907	-1.34448e-05	10175.3
2	0	0	1	0	0	58.3637	0.366345	0.365865	-0.0300127	3	6.07815e-05	13	0	8.2902	-1.09806e-05	12190.4
2	0	0	1	0	0	58.7633	0.362349	0.361832	-0.02797	3	4.70601e-05	13	0	8.6898	-1.01204e-05	12936.4
2	0	0	1	0	0	59.1628	0.358354	0.357893	-0.0327646	3	3.30314e-05	13	0	9.0893	-1.17262e-05	10923.2
2	0	0	1	0	0	59.5623	0.354359	0.353855	-0.0404536	3	1.87445e-05	13	0	9.4888	-1.43147e-05	8747.19
2	0	0	1	0	0	59.9619	0.350364	0.349907	-0.0437681	3	4.1239e-06	13	0	9.8884	-1.53147e-05	7994.55
2	1	0	1	0	1	60.2881	0.352911	0.352481	0.0246646	4	8.95744e-06	13	0	0.2598	8.69379e-06	14291
2	1	0	1	0	1	60.6876	0.356907	0.35646	0.0243629	4	2.12726e-05	13	0	0.6593	8.6844e-06	14631.3
2	1	0	1	0	1	61.0871	0.360901	0.360505	0.0301154	4	3.39113e-05	13	0	1.0588	1.08567e-05	11970.8
2	1	0	1	0	1	61.4866	0.364895	0.36445	0.0365933	4	4.66218e-05	13	0	1.4583	1.33364e-05	9959.48
2	1	0	1	0	1	61.8861	0.368892	0.368463	0.0378297	4	5.92635e-05	13	0	1.8578	1.39389e-05	9740.04
2	1	0	1	0	1	62.2857	0.372887	0.37249	0.0323419	4	7.18375e-05	13	0	2.2574	1.20471e-05	11517.3
2	1	0	1	0	1	62.6852	0.376882	0.376416	0.0257546	4	8.4346e-05	13	0	2.6569	9.69445e-06	14615.5
2	1	0	1	0	1	63.0847	0.380877	0.380488	0.0243696	4	9.67581e-05	13	0	3.0564	9.27232e-06	15613.2
2	1	0	1	0	1	63.4843	0.384873	0.384463	0.0291588	4	0.000109031	13	0	3.456	1.12105e-05	13185.1
2	1	0	1	0	1	63.8838	0.388869	0.388462	0.0333027	4	0.000121142	13	0	3.8555	1.29368e-05	11664.6
2	1	0	1	0	1	64.2833	0.392863	0.39247	0.0355166	4	0.000133124	13	0	4.255	1.39392e-05	11050.3
2	1	0	1	0	1	64.6829	0.396858	0.396437	0.0360612	4	0.000144988	13	0	4.6546	1.4296e-05	10993.4
2	1	0	1	0	1	65.0823	0.400854	0.400394	0.0350099	4	0.000156692	13	0	5.054	1.40178e-05	11436.6
2	1	0	1	0	1	65.4819	0.404849	0.404439	0.0323598	4	0.000168265	13	0	5.4536	1.30876e-05	12498.2
2	1	0	1	0	1	65.8814	0.408844	0.408393	0.0292512	4	0.000179652	13	0	5.8531	1.1946e-05	13961.6
2	1	0	1	0	1	66.2809	0.41284	0.412366	0.0258218	4	0.000190983	13	0	6.2526	1.0648e-05	15969.7
2	1	0	1	0	1	66.6805	0.416835	0.416361	0.023101	4	0.000202244	13	0	6.6522	9.61835e-06	18023.5
2	1	0	1	0	1	67.08	0.42083	0.420434	0.0215306	4	0.000213373	13	0	7.0517	9.0522e-06	19527.2
2	1	0	1	0	1	67.4795	0.424825	0.424348	0.0215117	4	0.000224406	13	0	7.4512	9.12845e-06	19726.3
2	1	0	1	0	1	67.8791	0.428821	0.428373	0.0229526	4	0.000235361	13	0	7.8508	9.83225e-06	18663.4
2	1	0	1	0	1	68.2786	0.432817	0.432357	0.0262969	4	0.000246191	13	0	8.2503	1.13696e-05	16441.4
2	1	0	1	0	1	68.6781	0.436811	0.436308	0.0296931	4	0.000256899	13	0	8.6498	1.29553e-05	14693.9
2	1	0	1	0	1	69.0777	0.440806	0.440338	0.0317812	4	0.000267546	13	0	9.0494	1.39945e-05	13855.3
2	1	0	1	0	1	69.4771	0.444802	0.444361	0.0327366	4	0.000278089	13	0	9.4488	1.45469e-05	13573.8
2	1	0	1	0	1	69.8767	0.448797	0.448315	0.0309084	4	0.000288564	13	0	9.8484	1.38567e-05	14504.7
2	0	0	1	0	1	70.2819	0.447149	0.446664	-0.018456	4	0.000286641	13	0	0.2597	-8.24364e-06	24201.6
2	0	0	1	0	1	70.6815	0.443154	0.442653	-0.0241594	4	0.000277763	13	0	0.6593	-1.06942e-05	18322.2
2	0	0	1	0	1	71.0809	0.439158	0.438578	-0.0281804	4	0.000268466	13	0	1.0587	-1.23593e-05	15563.2
2	0	0	1	0	1	71.4805	0.435163	0.434688	-0.0303846	4	0.00025885	13	0	1.4583	-1.32078e-05	14306.2
2	0	0	1	0	1	71.88	0.431169	0.430637	-0.0306832	4	0.000248997	13	0	1.8578	-1.32133e-05	14035
2	0	0	1	0	1	72.2795	0.427173	0.426697	-0.0289206	4	0.000238908	13	0	2.2573	-1.23404e-05	14754.1
2	0	0	1	0	1	72.6791	0.423177	0.422708	-0.0257271	4	0.000228617	13	0	2.6569	-1.08751e-05	16430.4
2	0	0	1	0	1	73.0786	0.419182	0.418712	-0.0227768	4	0.000218103	13	0	3.0564	-9.53695e-06	18383.3
2	0	0	1	0	1	73.4781	0.415187	0.414718	-0.0208716	4	0.000207392	13	0	3.4559	-8.65585e-06	19869.9
2	0	0	1	0	1	73.8777	0.411191	0.410681	-0.0212455	4	0.000196449	13	0	3.8555	-8.72513e-06	19330.2
2	0	0	1	0	1	74.2772	0.407196	0.406767	-0.0237028	4	0.000185393	13	0	4.255	-9.6415e-06	17161.1
2	0	0	1	0	1	74.6767	0.403201	0.402733	-0.0288082	4	0.000174122	13	0	4.6545	-1.1602e-05	13979.8
2	0	0	1	0	1	75.0763	0.399206	0.398722	-0.0333542	4	0.00016263	13	0	5.0541	-1.3299e-05	11954.2
2	0	0	1	0	1	75.4757	0.39521	0.394724	-0.0360221	4	0.000150955	13	0	5.4535	-1.42188e-05	10957.9
2	0	0	1	0	1	75.8753	0.391215	0.390763	-0.0357041	4	0.000139072	13	0	5.8531	-1.39519e-05	10944.5
2	0	0	1	0	1	76.2748	0.38722	0.386751	-0.0333294	4	0.000126954	13	0	6.2526	-1.28902e-05	11603.9
2	0	0	1	0	1	76.6743	0.383225	0.382781	-0.0295334	4	0.000114605	13	0	6.6521	-1.13048e-05	12961
2	0	0	1	0	1	77.0739	0.379229	0.378794	-0.0268013	4	0.000102014	13	0	7.0517	-1.01522e-05	14133.4
2	0	0	1	0	1	77.4734	0.375234	0.374736	-0.025899	4	8.9179e-05	13	0	7.4512	-9.70528e-06	14469.1
2	0	0	1	0	1	77.8729	0.371239	0.370732	-0.0269686	4	7.60791e-05	13	0	7.8507	-9.99814e-06	13746.8
2	0	0	1	0	1	78.2725	0.367244	0.366764	-0.0301832	4	6.26974e-05	13	0	8.2503	-1.10701e-05	12151.3
2	0	0	1	0	1	78.6719	0.363248	0.362777	-0.0348287	4	4.90671e-05	13	0	8.6497	-1.2635e-05	10416
2	0	0	1	0	1	79.0715	0.359253	0.358755	-0.0389977	4	3.51478e-05	13	0	9.0493	-1.39906e-05	9199.38
2	0	0	1	0	1	79.471	0.355259	0.354774	-0.0425072	4	2.09548e-05	13	0	9.4488	-1.50804e-05	8346.22
2	0	0	1	0	1	79.8705	0.351263	0.350777	-0.0442073	4	6.41993e-06	13	0	9.8483	-1.55069e-05	7934.81
2	1	0	1	0	0	80.2217	0.352261	0.351821	0.0311313	5	6.06481e-06	12	0	0.1948	1.09526e-05	11301.2
2	1	0	1	0	0	80.6363	0.356406	0.35596	0.0378289	5	1.86113e-05	13	0	0.6094	1.34656e-05	9409.73
2	1	0	1	0	0	81.0357	0.360402	0.359978	0.037555	5	3.11579e-05	13	0	1.0088	1.3519e-05	9585.36
2	1	0	1	0	0	81.4353	0.364397	0.363995	0.0343653	5	4.38473e-05	13	0	1.4084	1.25088e-05	10591.9
2	1	0	1	0	0	81.8348	0.368392	0.367951	0.0301266	5	5.64997e-05	13	0	1.8079	1.10851e-05	12213.5
2	1	0	1	0	0	82.2343	0.372387	0.371925	0.0261839	5	6.91202e-05	13	0	2.2074	9.73844e-06	14204.4
2	1	0	1	0	0	82.6339	0.376383	0.375951	0.0244411	5	8.16351e-05	13	0	2.607	9.18864e-06	15381.9
2	1	0	1	0	0	83.0334	0.380378	0.379913	0.0254373	5	9.40351e-05	13	0	3.0065	9.66396e-06	14935.3
2	1	0	1	0	0	83.4329	0.384373	0.38393	0.0285154	5	0.0001063	13	0	3.406	1.09479e-05	13463.9
2	1	0	1	0	0	83.8325	0.388369	0.387964	0.0323098	5	0.000118423	13	0	3.8056	1.2535e-05	12007.6
2	1	0	1	0	0	84.2319	0.392364	0.391909	0.0354734	5	0.000130399	13	0	4.205	1.39024e-05	11048
2	1	0	1	0	0	84.6315	0.396359	0.395899	0.0359462	5	0.000142267	13	0	4.6046	1.4231e-05	11013.6
2	1	0	1	0	0	85.031	0.400353	0.399935	0.0331876	5	0.00015398	13	0	5.0041	1.32729e-05	12050.7
2	1	0	1	0	0	85.4305	0.40435	0.403909	0.027866	5	0.000165599	13	0	5.4036	1.12553e-05	14494.7
2	1	0	1	0	0	85.8301	0.408345	0.407869	0.02356	5	0.000177027	13	0	5.8032	9.6094e-06	17312
2	1	0	1	0	0	86.2296	0.41234	0.411852	0.0217452	5	0.000188406	13	0	6.2027	8.9558e-06	18939.9
2	1	0	1	0	0	86.6291	0.416335	0.415876	0.0235249	5	0.0001997	13	0	6.6022	9.78346e-06	17678.1
2	1	0	1	0	0	87.0287	0.420331	0.419899	0.0279773	5	0.000210868	13	0	7.0018	1.17477e-05	15008.6
2	1	0	1	0	0	87.4282	0.424327	0.42383	0.0322955	5	0.000221907	13	0	7.4013	1.36878e-05	13123.5
2	1	0	1	0	0	87.8277	0.428321	0.427831	0.0334801	5	0.00023285	13	0	7.8008	1.43238e-05	12778.7
2	1	0	1	0	0	88.2273	0.432316	0.431872	0.0306837	5	0.00024367	13	0	8.2004	1.32515e-05	14075
2	1	0	1	0	0	88.6267	0.436312	0.435834	0.0246892	5	0.000254392	13	0	8.5998	1.07604e-05	17652.8
2	1	0	1	0	0	89.0263	0.440307	0.439848	0.0207591	5	0.000265071	13	0	8.9994	9.13085e-06	21188.2
2	1	0	1	0	0	89.4258	0.444302	0.443823	0.0209141	5	0.000275664	13	0	9.3989	9.28214e-06	21221.2
2	1	0	1	0	0	89.8253	0.448297	0.447826	0.0249784	5	0.000286195	13	0	9.7984	1.1186e-05	17928.6
2	0	0	1	0	0	90.2156	0.447798	0.44729	-0.0213606	5	0.000286849	12	0	0.1299	-9.5544e-06	20939.9
2	0	0	1	0	0	90.6301	0.443653	0.443166	-0.017077	5	0.000277722	13	0	0.5444	-7.56796e-06	25951
2	0	0	1	0	0	91.0297	0.439658	0.439111	-0.0182271	5	0.000268433	13	0	0.944	-8.00371e-06	24091.1
2	0	0	1	0	0	91.4291	0.435662	0.435151	-0.0234165	5	0.000258832	13	0	1.3434	-1.01897e-05	18583.1
2	0	0	1	0	0	91.8287	0.431667	0.431155	-0.0293917	5	0.000249003	13	0	1.743	-1.26724e-05	14669.3
2	0	0	1	0	0	92.2282	0.427672	0.427208	-0.0318967	5	0.000238971	13	0	2.1425	-1.36265e-05	13393.5
2	0	0	1	0	0	92.6277	0.423677	0.423209	-0.0300567	5	0.000228714	13	0	2.542	-1.27203e-05	14080.4
2	0	0	1	0	0	93.0273	0.419681	0.419205	-0.0267888	5	0.000218265	13	0	2.9416	-1.123e-05	15648.5
2	0	0	1	0	0	93.4268	0.415685	0.415195	-0.0232361	5	0.000207612	13	0	3.3411	-9.64751e-06	17868.5
2	0	0	1	0	0	93.8263	0.411691	0.411213	-0.0212278	5	0.000196732	13	0	3.7406	-8.72914e-06	19371.5
2	0	0	1	0	0	94.2259	0.407696	0.407205	-0.022032	5	0.00018569	13	0	4.1402	-8.97156e-06	18482.4
2	0	0	1	0	0	94.6253	0.4037	0.403235	-0.0274068	5	0.000174507	13	0	4.5396	-1.10514e-05	14712.9
2	0	0	1	0	0	95.0249	0.399705	0.399239	-0.0330911	5	0.000163064	13	0	4.9392	-1.32113e-05	12064.9
2	0	0	1	0	0	95.4244	0.395711	0.395245	-0.0360861	5	0.000151453	13	0	5.3387	-1.42628e-05	10952.8
2	0	0	1	0	0	95.8239	0.391715	0.391287	-0.035396	5	0.000139616	13	0	5.7382	-1.385e-05	11054.6
2	0	0	1	0	0	96.2235	0.387719	0.387253	-0.0320905	5	0.000127564	13	0	6.1378	-1.24271e-05	12067.5
2	0	0	1	0	0	96.623	0.383724	0.383302	-0.0279651	5	0.000115272	13	0	6.5373	-1.07191e-05	13706.4
2	0	0	1	0	0	97.0225	0.379729	0.379279	-0.0256367	5	0.000102742	13	0	6.9368	-9.72344e-06	14794.4
2	0	0	1	0	0	97.4221	0.375733	0.375252	-0.0262615	5	8.99551e-05	13	0	7.3364	-9.8547e-06	14289
2	0	0	1	0	0	97.8216	0.371738	0.371275	-0.0302422	5	7.69102e-05	13	0	7.7359	-1.12282e-05	12276.7
2	0	0	1	0	0	98.2211	0.367743	0.367256	-0.0361339	5	6.35888e-05	13	0	8.1354	-1.32704e-05	10163.8
2	0	0	1	0	0	98.6207	0.363748	0.363312	-0.0406582	5	5.00346e-05	13	0	8.535	-1.47716e-05	8935.76
2	0	0	1	0	0	99.0201	0.359752	0.359275	-0.0417798	5	3.61858e-05	13	0	8.9344	-1.50105e-05	8599.26
2	0	0	1	0	0	99.4197	0.355757	0.355279	-0.0388801	5	2.20684e-05	13	0	9.334	-1.38133e-05	9137.82
2	0	0	1	0	0	99.8192	0.351762	0.351283	-0.0343023	5	7.58972e-06	13	0	9.7335	-1.20498e-05	10240.8
2	1	0	1	0	1	100.155	0.351612	0.351116	0.0216314	6	3.36615e-06	12	0	0.1299	7.59513e-06	16231.7
2	1	0	1	0	1	100.585	0.355907	0.355385	0.0262381	6	1.66209e-05	13	0	0.5594	9.32462e-06	13544.6
2	1	0	1	0	1	100.984	0.359902	0.359459	0.0247873	6	2.91768e-05	13	0	0.9589	8.91004e-06	14501.7
2	1	0	1	0	1	101.384	0.363897	0.363489	0.0278573	6	4.18849e-05	13	0	1.3584	1.01258e-05	13048.3
2	1	0	1	0	1	101.783	0.367893	0.367466	0.0333591	6	5.45686e-05	13	0	1.758	1.22583e-05	11015.5
2	1	0	1	0	1	102.183	0.371888	0.371452	0.0373117	6	6.71784e-05	13	0	2.1575	1.38595e-05	9955.38
2	1	0	1	0	1	102.582	0.375883	0.375459	0.0380042	6	7.96647e-05	13	0	2.557	1.4269e-05	9879.41
2	1	0	1	0	1	102.982	0.379879	0.379421	0.0356925	6	9.20383e-05	13	0	2.9566	1.35425e-05	10630.3
2	1	0	1	0	1	103.382	0.383875	0.383453	0.0310976	6	0.000104285	13	0	3.3561	1.19245e-05	12330.6
2	1	0	1	0	1	103.781	0.387869	0.387418	0.0263109	6	0.000116425	13	0	3.7556	1.01933e-05	14724.6
2	1	0	1	0	1	104.181	0.391864	0.391441	0.0234438	6	0.000128449	13	0	4.1552	9.17687e-06	16697
2	1	0	1	0	1	104.58	0.39586	0.395416	0.0237579	6	0.000140346	13	0	4.5546	9.39425e-06	16643.6
2	1	0	1	0	1	104.98	0.399855	0.399462	0.0262446	6	0.000152115	13	0	4.9542	1.04837e-05	15220.7
2	1	0	1	0	1	105.379	0.40385	0.403393	0.0303527	6	0.000163758	13	0	5.3537	1.22441e-05	13290.2
2	1	0	1	0	1	105.779	0.407845	0.407369	0.0321301	6	0.00017521	13	0	5.7532	1.30888e-05	12678.7
2	1	0	1	0	1	106.178	0.411841	0.411369	0.0349013	6	0.000186534	13	0	6.1528	1.43573e-05	11786.6
2	1	0	1	0	1	106.578	0.415836	0.415353	0.0336125	6	0.000197801	13	0	6.5523	1.39611e-05	12357.1
2	1	0	1	0	1	106.977	0.419831	0.419363	0.0294927	6	0.000208949	13	0	6.9518	1.23681e-05	14219.2
2	1	0	1	0	1	107.377	0.423826	0.423343	0.0245761	6	0.000220009	13	0	7.3514	1.04041e-05	17225.8
2	1	0	1	0	1	107.776	0.427822	0.427368	0.0218137	6	0.000230975	13	0	7.7508	9.32248e-06	19591.7
2	1	0	1	0	1	108.176	0.431817	0.431341	0.0209545	6	0.000241849	13	0	8.1504	9.03854e-06	20584.7
2	1	0	1	0	1	108.575	0.435811	0.43534	0.0229591	6	0.000252621	13	0	8.5499	9.99502e-06	18961.6
2	1	0	1	0	1	108.975	0.439808	0.439353	0.0265486	6	0.0002633	13	0	8.9494	1.16642e-05	16549
2	1	0	1	0	1	109.374	0.443803	0.443353	0.0300321	6	0.000273885	13	0	9.349	1.33148e-05	14762.7
2	1	0	1	0	1	109.774	0.447798	0.447375	0.0322348	6	0.0002844	13	0	9.7485	1.4421e-05	13878.6
2	0	0	1	0	1	110.149	0.448447	0.447987	-0.0210624	6	0.000287898	12	0	0.1299	-9.43567e-06	21269.5
2	0	0	1	0	1	110.579	0.444152	0.443612	-0.0176516	6	0.000278749	13	0	0.5593	-7.83047e-06	25131.5
2	0	0	1	0	1	110.978	0.440157	0.439678	-0.0214534	6	0.000269519	13	0	0.9589	-9.43257e-06	20494.6
2	0	0	1	0	1	111.378	0.436162	0.43565	-0.0257721	6	0.00025997	13	0	1.3584	-1.12276e-05	16904
2	0	0	1	0	1	111.777	0.432167	0.431674	-0.0299625	6	0.00025019	13	0	1.7579	-1.2934e-05	14407.1
2	0	0	1	0	1	112.177	0.428171	0.427712	-0.0317212	6	0.000240182	13	0	2.1575	-1.35675e-05	13483.4
2	0	0	1	0	1	112.576	0.424176	0.423695	-0.0314825	6	0.000229951	13	0	2.557	-1.3339e-05	13458.1
2	0	0	1	0	1	112.976	0.420181	0.419724	-0.0291025	6	0.000219532	13	0	2.9565	-1.2215e-05	14422.2
2	0	0	1	0	1	113.375	0.416186	0.415689	-0.0256258	6	0.000208911	13	0	3.3561	-1.06524e-05	16221.5
2	0	0	1	0	1	113.775	0.41219	0.411707	-0.0228332	6	0.000198069	13	0	3.7555	-9.40059e-06	18031.1
2	0	0	1	0	1	114.174	0.408195	0.407698	-0.0215464	6	0.000187037	13	0	4.1551	-8.7844e-06	18921.9
2	0	0	1	0	1	114.574	0.4042	0.403712	-0.0219937	6	0.000175884	13	0	4.5547	-8.87911e-06	18355.8
2	0	0	1	0	1	114.973	0.400204	0.399701	-0.0254494	6	0.000164459	13	0	4.9541	-1.01722e-05	15705.7
2	0	0	1	0	1	115.373	0.396209	0.39574	-0.0295122	6	0.000152842	13	0	5.3537	-1.16792e-05	13409.4
2	0	0	1	0	1	115.773	0.392214	0.391706	-0.0336876	6	0.00014102	13	0	5.7532	-1.31957e-05	11627.6
2	0	0	1	0	1	116.172	0.388219	0.38776	-0.0366156	6	0.000129004	13	0	6.1527	-1.41981e-05	10590
2	0	0	1	0	1	116.572	0.384223	0.383786	-0.037755	6	0.000116765	13	0	6.5523	-1.44898e-05	10165.2
2	0	0	1	0	1	116.971	0.380228	0.379769	-0.0369885	6	0.000104301	13	0	6.9518	-1.40471e-05	10267.2
2	0	0	1	0	1	117.371	0.376233	0.375718	-0.0340507	6	9.1585e-05	13	0	7.3513	-1.27934e-05	11034.1
2	0	0	1	0	1	117.77	0.372238	0.371823	-0.0304728	6	7.85871e-05	13	0	7.7509	-1.13305e-05	12201.8
2	0	0	1	0	1	118.17	0.368242	0.367793	-0.0284522	6	6.53217e-05	13	0	8.1503	-1.04645e-05	12926.7
2	0	0	1	0	1	118.569	0.364247	0.363803	-0.0276861	6	5.17798e-05	13	0	8.5499	-1.00723e-05	13140.3
2	0	0	1	0	1	118.969	0.360253	0.359763	-0.029037	6	3.79283e-05	13	0	8.9494	-1.04464e-05	12389.8
2	0	0	1	0	1	119.368	0.356257	0.355778	-0.0321815	6	2.3807e-05	13	0	9.3489	-1.14495e-05	11055.4
2	0	0	1	0	1	119.768	0.352261	0.3518	-0.0378783	6	9.39572e-06	13	0	9.7485	-1.33256e-05	9287.65
2	1	0	1	0	0	120.089	0.350963	0.350469	0.0248794	7	2.06855e-06	13	0	0.065	8.71946e-06	14086.7
2	1	0	1	0	0	120.533	0.355408	0.354982	0.0337676	7	1.53011e-05	13	0	0.5094	1.19869e-05	10512.5
2	1	0	1	0	0	120.933	0.359403	0.358953	0.0372779	7	2.78267e-05	13	0	0.909	1.3381e-05	9629.12
2	1	0	1	0	0	121.333	0.363398	0.362945	0.0386734	7	4.04876e-05	13	0	1.3085	1.40363e-05	9384.86
2	1	0	1	0	0	121.732	0.367393	0.366923	0.0373433	7	5.31466e-05	13	0	1.708	1.37021e-05	9825.67
2	1	0	1	0	0	122.132	0.371389	0.370931	0.0339721	7	6.57692e-05	13	0	2.1076	1.26013e-05	10918.7
2	1	0	1	0	0	122.531	0.375385	0.374925	0.0295048	7	7.82824e-05	13	0	2.5071	1.10621e-05	12707.2
2	1	0	1	0	0	122.931	0.379379	0.378927	0.0256337	7	9.0705e-05	13	0	2.9066	9.71329e-06	14782.4
2	1	0	1	0	0	123.33	0.383374	0.382914	0.0240476	7	0.000102991	13	0	3.3062	9.20815e-06	15923.2
2	1	0	1	0	0	123.73	0.38737	0.386901	0.0242604	7	0.000115155	13	0	3.7056	9.38636e-06	15947.9
2	1	0	1	0	0	124.129	0.391365	0.390941	0.0261143	7	0.000127212	13	0	4.1052	1.02091e-05	14970.4
2	1	0	1	0	0	124.529	0.39536	0.394915	0.0291737	7	0.000139108	13	0	4.5047	1.15211e-05	13536.7
2	1	0	1	0	0	124.928	0.399355	0.398931	0.0321816	7	0.000150866	13	0	4.9042	1.28382e-05	12396.3
2	1	0	1	0	0	125.328	0.403351	0.402833	0.0344346	7	0.00016252	13	0	5.3038	1.38714e-05	11698.5
2	1	0	1	0	0	125.727	0.407346	0.406938	0.0351781	7	0.00017402	13	0	5.7033	1.43153e-05	11568
2	1	0	1	0	0	126.127	0.411341	0.410844	0.0340586	7	0.00018532	13	0	6.1028	1.39928e-05	12062.9
2	1	0	1	0	0	126.526	0.415337	0.41489	0.0319145	7	0.000196603	13	0	6.5024	1.3241e-05	13000
2	1	0	1	0	0	126.926	0.419333	0.41885	0.0284252	7	0.000207758	13	0	6.9019	1.19059e-05	14735.2
2	1	0	1	0	0	127.325	0.423327	0.422846	0.0248358	7	0.000218832	13	0	7.3014	1.05017e-05	17025.6
2	1	0	1	0	0	127.725	0.427322	0.426853	0.0221624	7	0.000229792	13	0	7.701	9.4601e-06	19260.2
2	1	0	1	0	0	128.124	0.431318	0.43084	0.0206062	7	0.000240663	13	0	8.1004	8.87799e-06	20908.2
2	1	0	1	0	0	128.524	0.435313	0.434888	0.0207197	7	0.000251442	13	0	8.5	9.01076e-06	20989
2	1	0	1	0	0	128.924	0.439308	0.438835	0.0227018	7	0.000262135	13	0	8.8995	9.96235e-06	19330.4
2	1	0	1	0	0	129.323	0.443303	0.44287	0.0256107	7	0.000272742	13	0	9.299	1.13422e-05	17292.4
2	1	0	1	0	0	129.723	0.447299	0.446869	0.0288324	7	0.000283271	13	0	9.6986	1.28843e-05	15498.9
2	0	0	1	0	0	130.083	0.449097	0.448612	-0.0169376	7	0.000289437	13	0	0.000000000000000E+000	-7.59841e-06	26486.2
2	0	0	1	0	0	130.527	0.444653	0.444143	-0.0159815	7	0.000279774	13	0	0.4445	-7.09805e-06	27791.1
2	0	0	1	0	0	130.927	0.440657	0.440156	-0.0180966	7	0.000270593	13	0	0.844	-7.96533e-06	24322.6
2	0	0	1	0	0	131.326	0.436661	0.436184	-0.0225755	7	0.000261063	13	0	1.2436	-9.84707e-06	19321.1
2	0	0	1	0	0	131.726	0.432666	0.43216	-0.0276317	7	0.000251313	13	0	1.6431	-1.19413e-05	15640
2	0	0	1	0	0	132.125	0.428671	0.428159	-0.0308693	7	0.000241338	13	0	2.0426	-1.3217e-05	13870
2	0	0	1	0	0	132.525	0.424675	0.424195	-0.0319854	7	0.000231132	13	0	2.4422	-1.35681e-05	13262.1
2	0	0	1	0	0	132.925	0.420679	0.420178	-0.0304604	7	0.000220741	13	0	2.8417	-1.27988e-05	13794.2
2	0	0	1	0	0	133.324	0.416685	0.416203	-0.0270289	7	0.000210154	13	0	3.2412	-1.12495e-05	15398.5
2	0	0	1	0	0	133.724	0.41269	0.412242	-0.023698	7	0.000199351	13	0	3.6408	-9.76933e-06	17395.6
2	0	0	1	0	0	134.123	0.408694	0.408209	-0.0217046	7	0.000188364	13	0	4.0402	-8.86002e-06	18807.4
2	0	0	1	0	0	134.523	0.404699	0.404193	-0.0220082	7	0.000177234	13	0	4.4398	-8.89557e-06	18365.5
2	0	0	1	0	0	134.922	0.400704	0.400329	-0.0248581	7	0.000165861	13	0	4.8393	-9.95143e-06	16104.6
2	0	0	1	0	0	135.322	0.396709	0.396188	-0.0295093	7	0.00015428	13	0	5.2388	-1.16912e-05	13425.9
2	0	0	1	0	0	135.721	0.392713	0.392231	-0.0338367	7	0.000142489	13	0	5.6384	-1.32718e-05	11591.9
2	0	0	1	0	0	136.121	0.388718	0.388227	-0.0367954	7	0.000130511	13	0	6.0379	-1.4285e-05	10551
2	0	0	1	0	0	136.52	0.384723	0.384262	-0.0372444	7	0.000118315	13	0	6.4374	-1.43116e-05	10317.3
2	0	0	1	0	0	136.92	0.380728	0.380297	-0.0355289	7	0.000105904	13	0	6.837	-1.35115e-05	10703.9
2	0	0	1	0	0	137.319	0.376732	0.376269	-0.0322904	7	9.32286e-05	13	0	7.2364	-1.21499e-05	11652.6
2	0	0	1	0	0	137.719	0.372737	0.372296	-0.0285663	7	8.0268e-05	13	0	7.636	-1.06351e-05	13032.7
2	0	0	1	0	0	138.118	0.368743	0.368289	-0.0267928	7	6.70573e-05	13	0	8.0355	-9.8675e-06	13745.8
2	0	0	1	0	0	138.518	0.364747	0.364276	-0.0274721	7	5.3573e-05	13	0	8.435	-1.00074e-05	13259.8
2	0	0	1	0	0	138.917	0.360751	0.360256	-0.0305997	7	3.97773e-05	13	0	8.8346	-1.10237e-05	11773.2
2	0	0	1	0	0	139.317	0.356756	0.356275	-0.0356474	7	2.57156e-05	13	0	9.2341	-1.27003e-05	9994.42
2	0	0	1	0	0	139.716	0.352761	0.352268	-0.0402636	7	1.13818e-05	13	0	9.6336	-1.41836e-05	8749.04
2	0	0	1	0	1	140.023	0.350314	0.349821	-0.00199668	8	1.16124e-06	13	0	9.9398	-6.98481e-07	175201
2	1	0	1	0	1	140.482	0.354908	0.354503	0.0360876	8	1.41755e-05	13	0	0.3945	1.27932e-05	9823.39
2	1	0	1	0	1	140.882	0.358903	0.35847	0.0385337	8	2.66622e-05	13	0	0.794	1.38132e-05	9302.77
2	1	0	1	0	1	141.281	0.362899	0.362496	0.0381771	8	3.93219e-05	13	0	1.1936	1.3839e-05	9495.13
2	1	0	1	0	1	141.681	0.366894	0.366454	0.0355473	8	5.19813e-05	13	0	1.5931	1.30264e-05	10308.9
2	1	0	1	0	1	142.08	0.370889	0.370419	0.0316859	8	6.46051e-05	13	0	1.9926	1.17371e-05	11690.4
2	1	0	1	0	1	142.48	0.374884	0.374413	0.0277587	8	7.71273e-05	13	0	2.3922	1.03932e-05	13488.1
2	1	0	1	0	1	142.879	0.37888	0.378437	0.0250098	8	8.95479e-05	13	0	2.7916	9.46463e-06	15131.6
2	1	0	1	0	1	143.279	0.382875	0.38245	0.0242327	8	0.000101818	13	0	3.1912	9.2678e-06	15782.3
2	1	0	1	0	1	143.678	0.386869	0.38644	0.0246235	8	0.000113982	13	0	3.5907	9.5155e-06	15693.9
2	1	0	1	0	1	144.078	0.390866	0.390435	0.0267817	8	0.000126037	13	0	3.9902	1.04565e-05	14578.4
2	1	0	1	0	1	144.477	0.394861	0.39443	0.0295541	8	0.000137936	13	0	4.3898	1.1657e-05	13346
2	1	0	1	0	1	144.877	0.398856	0.398449	0.0324647	8	0.000149704	13	0	4.7893	1.29355e-05	12273.3
2	1	0	1	0	1	145.276	0.402851	0.402437	0.0347435	8	0.000161354	13	0	5.1888	1.39821e-05	11583.1
2	1	0	1	0	1	145.676	0.406847	0.406397	0.0353638	8	0.000172859	13	0	5.5884	1.43718e-05	11491.9
2	1	0	1	0	1	146.076	0.410843	0.410359	0.0343175	8	0.000184174	13	0	5.9879	1.40825e-05	11957.7
2	1	0	1	0	1	146.475	0.414837	0.414359	0.0320394	8	0.000195459	13	0	6.3874	1.32758e-05	12932.8
2	1	0	1	0	1	146.875	0.418832	0.418352	0.0285867	8	0.000206625	13	0	6.787	1.19593e-05	14634.5
2	1	0	1	0	1	147.274	0.422828	0.422383	0.0249615	8	0.000217719	13	0	7.1864	1.05433e-05	16921.3
2	1	0	1	0	1	147.674	0.426823	0.426342	0.021994	8	0.000228699	13	0	7.586	9.37698e-06	19384.5
2	1	0	1	0	1	148.073	0.430818	0.430358	0.0207049	8	0.000239585	13	0	7.9855	8.91051e-06	20785.4
2	1	0	1	0	1	148.473	0.434813	0.434321	0.0216113	8	0.000250378	13	0	8.385	9.38622e-06	20096.9
2	1	0	1	0	1	148.872	0.438809	0.43835	0.0242326	8	0.000261078	13	0	8.7846	1.06224e-05	18089.2
2	1	0	1	0	1	149.272	0.442804	0.44236	0.0273624	8	0.000271705	13	0	9.1841	1.2104e-05	16166.7
2	1	0	1	0	1	149.671	0.446799	0.446387	0.0305243	8	0.000282232	13	0	9.5836	1.36256e-05	14624
2	1	0	1	0	1	150.017	0.449747	0.449251	-0.0092906	8	0.000290518	13	0	0.000000000000000E+000	-4.17381e-06	48355.5
2	0	0	1	0	1	150.476	0.445151	0.444677	-0.0162691	8	0.000281588	13	0	0.4595	-7.2345e-06	27332.6
2	0	0	1	0	1	150.876	0.441156	0.440649	-0.0181871	8	0.000272464	13	0	0.859	-8.01415e-06	24228.6
2	0	0	1	0	1	151.275	0.437161	0.436666	-0.0215272	8	0.00026297	13	0	1.2585	-9.40021e-06	20284.3
2	0	0	1	0	1	151.675	0.433165	0.432641	-0.0254258	8	0.000253231	13	0	1.6581	-1.10002e-05	17015.8
2	0	0	1	0	1	152.074	0.429169	0.428654	-0.0297381	8	0.00024328	13	0	2.0576	-1.27474e-05	14414.3
2	0	0	1	0	1	152.474	0.425175	0.424691	-0.0319691	8	0.000233103	13	0	2.4571	-1.3577e-05	13284.4
2	0	0	1	0	1	152.873	0.42118	0.420678	-0.0323091	8	0.000222738	13	0	2.8567	-1.35917e-05	13020.5
2	0	0	1	0	1	153.273	0.417184	0.41666	-0.029872	8	0.000212174	13	0	3.2561	-1.24464e-05	13948.2
2	0	0	1	0	1	153.672	0.413189	0.412686	-0.0263242	8	0.000201416	13	0	3.6557	-1.08636e-05	15677.1
2	0	0	1	0	1	154.072	0.409195	0.40875	-0.0227759	8	0.000190458	13	0	4.0552	-9.30966e-06	17946.6
2	0	0	1	0	1	154.471	0.405199	0.404743	-0.021515	8	0.00017936	13	0	4.4547	-8.70805e-06	18812.1
2	0	0	1	0	1	154.871	0.401203	0.400768	-0.0231254	8	0.000168012	13	0	4.8543	-9.2679e-06	17330.2
2	0	0	1	0	1	155.27	0.397208	0.396738	-0.0267226	8	0.000156459	13	0	5.2538	-1.06018e-05	14846.5
2	0	0	1	0	1	155.67	0.393213	0.392756	-0.0312263	8	0.000144694	13	0	5.6533	-1.22643e-05	12577.7
2	0	0	1	0	1	156.069	0.389217	0.388767	-0.0353351	8	0.000132744	13	0	6.0529	-1.37371e-05	11002.3
2	0	0	1	0	1	156.469	0.385221	0.384749	-0.0373624	8	0.000120568	13	0	6.4524	-1.43751e-05	10297.8
2	0	0	1	0	1	156.868	0.381227	0.380753	-0.0375956	8	0.000108203	13	0	6.8519	-1.43146e-05	10127.6
2	0	0	1	0	1	157.268	0.377232	0.376767	-0.0352515	8	9.55708e-05	13	0	7.2515	-1.32816e-05	10688
2	0	0	1	0	1	157.667	0.373237	0.372791	-0.0317625	8	8.26657e-05	13	0	7.6509	-1.18408e-05	11736.9
2	0	0	1	0	1	158.067	0.369241	0.368805	-0.028758	8	6.95137e-05	13	0	8.0505	-1.06061e-05	12824.5
2	0	0	1	0	1	158.467	0.365246	0.364791	-0.0274514	8	5.60835e-05	13	0	8.45	-1.0014e-05	13288.6
2	0	0	1	0	1	158.866	0.361251	0.360777	-0.028747	8	4.23395e-05	13	0	8.8495	-1.03712e-05	12550.1
2	0	0	1	0	1	159.266	0.357255	0.356801	-0.031981	8	2.83221e-05	13	0	9.2491	-1.14108e-05	11156.6
2	0	0	1	0	1	159.665	0.35326	0.352769	-0.0363563	8	1.40382e-05	13	0	9.6486	-1.28254e-05	9703.12
2	0	0	0	0	0	159.994	0.350039	0.349705	-0.0241633	9	2.04207e-06	13	0	9.9772	-8.45004e-06	14472.6
2	1	0	1	0	0	160.431	0.354409	0.353995	0.0312885	9	1.32039e-05	13	0	0.4096	1.1076e-05	11313.9
2	1	0	1	0	0	160.83	0.358404	0.357988	0.0361035	9	2.56521e-05	13	0	0.8091	1.29246e-05	9915.6
2	1	0	1	0	0	161.23	0.362399	0.361966	0.0381304	9	3.83001e-05	13	0	1.2086	1.38019e-05	9492.85
2	1	0	1	0	0	161.629	0.366395	0.365946	0.0378656	9	5.09566e-05	13	0	1.6082	1.38568e-05	9664.34
2	1	0	1	0	0	162.029	0.370391	0.369931	0.0363582	9	6.35782e-05	13	0	2.0077	1.345e-05	10174.6
2	1	0	1	0	0	162.428	0.374385	0.373917	0.0325696	9	7.61005e-05	13	0	2.4072	1.21783e-05	11480.6
2	1	0	1	0	0	162.828	0.37838	0.377952	0.0286424	9	8.85463e-05	13	0	2.8068	1.08254e-05	13195.5
2	1	0	1	0	0	163.227	0.382376	0.381922	0.0253715	9	0.000100828	13	0	3.2062	9.68993e-06	15053.2
2	1	0	1	0	0	163.627	0.386371	0.385943	0.0239708	9	0.000112998	13	0	3.6058	9.25135e-06	16100.5
2	1	0	1	0	0	164.027	0.390366	0.389954	0.0238529	9	0.000125067	13	0	4.0053	9.30153e-06	16348.3
2	1	0	1	0	0	164.426	0.394361	0.393904	0.0248405	9	0.000136997	13	0	4.4048	9.78477e-06	15857.3
2	1	0	1	0	0	164.826	0.398357	0.397929	0.02687	9	0.000148799	13	0	4.8044	1.06924e-05	14809.4
2	1	0	1	0	0	165.225	0.402353	0.401915	0.0301298	9	0.000160468	13	0	5.2039	1.21096e-05	13339.5
2	1	0	1	0	0	165.625	0.406347	0.405937	0.0327489	9	0.000171997	13	0	5.6034	1.3294e-05	12395.5
2	1	0	1	0	0	166.024	0.410342	0.409907	0.034583	9	0.000183338	13	0	6.003	1.41758e-05	11852.9
2	1	0	1	0	0	166.424	0.414338	0.413835	0.0348242	9	0.00019461	13	0	6.4024	1.44115e-05	11883.5
2	1	0	1	0	0	166.823	0.418333	0.417825	0.0330564	9	0.000205796	13	0	6.802	1.38118e-05	12639.8
2	1	0	1	0	0	167.223	0.422327	0.421897	0.0302575	9	0.000216887	13	0	7.2015	1.27656e-05	13943.5
2	1	0	1	0	0	167.622	0.426323	0.425874	0.0265859	9	0.000227866	13	0	7.601	1.13222e-05	16018.8
2	1	0	1	0	0	168.022	0.430319	0.429862	0.0234666	9	0.000238759	13	0	8.0006	1.00874e-05	18318
2	1	0	1	0	0	168.421	0.434314	0.4338	0.0215523	9	0.000249543	13	0	8.4001	9.34939e-06	20127.8
2	1	0	1	0	0	168.821	0.438309	0.437819	0.0203265	9	0.000260262	13	0	8.7996	8.89932e-06	21539.3
2	1	0	1	0	0	169.22	0.442305	0.441858	0.020511	9	0.000270909	13	0	9.1992	9.06293e-06	21542.5
2	1	0	1	0	0	169.62	0.446301	0.445829	0.0221607	9	0.000281465	13	0	9.5987	9.87989e-06	20118
2	1	0	0	0	0	169.988	0.450021	0.449439	0.0387283	9	0.000291058	13	0	9.9665	1.7406e-05	11604.9
2	0	0	1	0	0	170.43	0.445601	0.445144	-0.0241247	9	0.000282723	13	0	0.3496	-1.07389e-05	18451.8
2	0	0	1	0	0	170.829	0.441605	0.44113	-0.0221931	9	0.000273665	13	0	0.7492	-9.79002e-06	19876.9
2	0	0	1	0	0	171.229	0.43761	0.437171	-0.020374	9	0.000264211	13	0	1.1487	-8.90692e-06	21457.3
2	0	0	1	0	0	171.628	0.433615	0.433107	-0.0190056	9	0.000254492	13	0	1.5482	-8.23145e-06	22788.4
2	0	0	1	0	0	172.028	0.42962	0.429097	-0.0186061	9	0.000244548	13	0	1.9478	-7.98383e-06	23062.1
2	0	0	1	0	0	172.427	0.425624	0.425118	-0.0203691	9	0.000234371	13	0	2.3472	-8.65925e-06	20870.8
2	0	0	1	0	0	172.827	0.421629	0.421182	-0.0230734	9	0.000224007	13	0	2.7468	-9.71811e-06	18254
2	0	0	1	0	0	173.226	0.417634	0.417095	-0.0265997	9	0.000213439	13	0	3.1463	-1.10946e-05	15680.4
2	0	0	1	0	0	173.626	0.413639	0.413144	-0.0302091	9	0.000202699	13	0	3.5458	-1.24807e-05	13676.2
2	0	0	1	0	0	174.025	0.409643	0.409138	-0.0329856	9	0.000191779	13	0	3.9454	-1.34957e-05	12403.5
2	0	0	1	0	0	174.425	0.405648	0.405182	-0.0348166	9	0.000180739	13	0	4.3449	-1.41071e-05	11637.6
2	0	0	1	0	0	174.824	0.401653	0.401146	-0.0352576	9	0.000169448	13	0	4.7444	-1.41434e-05	11377.6
2	0	0	1	0	0	175.224	0.397657	0.397182	-0.0339604	9	0.000157957	13	0	5.144	-1.34885e-05	11695.4
2	0	0	1	0	0	175.624	0.393661	0.393196	-0.0322935	9	0.000146249	13	0	5.5435	-1.26977e-05	12175.7
2	0	0	1	0	0	176.023	0.389667	0.389192	-0.0292242	9	0.000134323	13	0	5.943	-1.13738e-05	13317.4
2	0	0	1	0	0	176.423	0.385672	0.385181	-0.0265329	9	0.00012216	13	0	6.3426	-1.022e-05	14517.1
2	0	0	1	0	0	176.822	0.381676	0.381245	-0.0249457	9	0.000109802	13	0	6.742	-9.51042e-06	15283
2	0	0	1	0	0	177.222	0.377681	0.377222	-0.0250897	9	9.71976e-05	13	0	7.1416	-9.46439e-06	15035
2	0	0	1	0	0	177.621	0.373686	0.373224	-0.0268433	9	8.43154e-05	13	0	7.5411	-1.00186e-05	13903.8
2	0	0	1	0	0	178.021	0.369691	0.369185	-0.0301709	9	7.11841e-05	13	0	7.9406	-1.11386e-05	12236.4
2	0	0	1	0	0	178.42	0.365695	0.365214	-0.0341487	9	5.77829e-05	13	0	8.3402	-1.24716e-05	10694.8
2	0	0	1	0	0	178.82	0.3617	0.361215	-0.0390687	9	4.41172e-05	13	0	8.7397	-1.41122e-05	9245.65
2	0	0	1	0	0	179.219	0.357705	0.357248	-0.0417846	9	3.01689e-05	13	0	9.1392	-1.49275e-05	8549.74
2	0	0	1	0	0	179.619	0.35371	0.353274	-0.0425209	9	1.59412e-05	13	0	9.5388	-1.50215e-05	8308.24
2	0	0	0	0	0	179.987	0.349989	0.349648	-0.03156	9	2.55308e-06	13	0	9.9073	-1.10349e-05	11078.8
2	1	0	1	0	1	180.379	0.353909	0.353464	0.0353563	10	1.21546e-05	13	0	0.2946	1.24972e-05	9997.21
2	1	0	1	0	1	180.779	0.357905	0.357444	0.0328756	10	2.45418e-05	13	0	0.6942	1.17512e-05	10872.6
2	1	0	1	0	1	181.179	0.361901	0.361418	0.0295334	10	3.7173e-05	13	0	1.0937	1.06739e-05	12237.6
2	1	0	1	0	1	181.578	0.365895	0.365494	0.0262222	10	4.98622e-05	13	0	1.4932	9.58407e-06	13938.4
2	1	0	1	0	1	181.978	0.36989	0.369459	0.0250089	10	6.24953e-05	13	0	1.8928	9.23978e-06	14773.1
2	1	0	1	0	1	182.377	0.373886	0.373446	0.0247026	10	7.50369e-05	13	0	2.2922	9.22508e-06	15117.7
2	1	0	1	0	1	182.777	0.377881	0.377439	0.0254536	10	8.75007e-05	13	0	2.6918	9.60717e-06	14828.5
2	1	0	1	0	1	183.176	0.381876	0.381459	0.0279139	10	9.9813e-05	13	0	3.0913	1.0648e-05	13665.5
2	1	0	1	0	1	183.576	0.385871	0.385452	0.0319412	10	0.000111973	13	0	3.4908	1.23118e-05	12067.5
2	1	0	1	0	1	183.975	0.389867	0.389442	0.0346632	10	0.000124036	13	0	3.8904	1.34993e-05	11235
2	1	0	1	0	1	184.375	0.393862	0.393425	0.0359234	10	0.000135951	13	0	4.2899	1.41332e-05	10951.8
2	1	0	1	0	1	184.774	0.397857	0.397426	0.035674	10	0.00014775	13	0	4.6894	1.41778e-05	11140.5
2	1	0	1	0	1	185.174	0.401853	0.401406	0.0347243	10	0.000159409	13	0	5.089	1.39385e-05	11559.8
2	1	0	1	0	1	185.573	0.405848	0.405417	0.0325976	10	0.000170948	13	0	5.4884	1.32156e-05	12437
2	1	0	1	0	1	185.973	0.409843	0.409357	0.0291415	10	0.000182306	13	0	5.888	1.19293e-05	14047.2
2	1	0	1	0	1	186.372	0.413838	0.41337	0.0260597	10	0.000193621	13	0	6.2876	1.07723e-05	15862.4
2	1	0	1	0	1	186.772	0.417834	0.417353	0.0233227	10	0.000204822	13	0	6.687	9.7338e-06	17894.7
2	1	0	1	0	1	187.171	0.421829	0.421377	0.0211726	10	0.000215929	13	0	7.0866	8.92163e-06	19902
2	1	0	1	0	1	187.571	0.425824	0.42539	0.0207987	10	0.000226938	13	0	7.4861	8.84755e-06	20452.8
2	1	0	1	0	1	187.97	0.429819	0.429356	0.0214163	10	0.00023787	13	0	7.8856	9.19524e-06	20048.1
2	1	0	1	0	1	188.37	0.433815	0.433337	0.0231737	10	0.000248667	13	0	8.2852	1.0042e-05	18699.5
2	1	0	1	0	1	188.77	0.437811	0.437354	0.0261444	10	0.000259384	13	0	8.6847	1.14344e-05	16728.4
2	1	0	1	0	1	189.169	0.441805	0.44141	0.0287122	10	0.000270024	13	0	9.0842	1.26739e-05	15373.6
2	1	0	1	0	1	189.569	0.4458	0.445335	0.0307558	10	0.000280558	13	0	9.4838	1.36966e-05	14479.7
2	1	0	1	0	1	189.966	0.449771	0.449326	0.0327217	10	0.000290958	13	0	9.8807	1.47027e-05	13731.7
2	0	0	1	0	1	190.378	0.4461	0.445602	-0.0161892	10	0.000284607	13	0	0.3646	-7.21392e-06	27524.7
2	0	0	1	0	1	190.778	0.442105	0.441619	-0.0165608	10	0.000275604	13	0	0.7641	-7.31354e-06	26666.5
2	0	0	1	0	1	191.177	0.43811	0.437586	-0.0179876	10	0.000266184	13	0	1.1637	-7.87112e-06	24327.1
2	0	0	1	0	1	191.577	0.434114	0.433613	-0.0205416	10	0.000256494	13	0	1.5631	-8.9071e-06	21109
2	0	0	1	0	1	191.976	0.430119	0.429625	-0.0234744	10	0.000246585	13	0	1.9627	-1.00852e-05	18301.8
2	0	0	1	0	1	192.376	0.426125	0.425596	-0.0270071	10	0.000236465	13	0	2.3622	-1.14941e-05	15758.7
2	0	0	1	0	1	192.775	0.422129	0.421588	-0.030356	10	0.000226143	13	0	2.7617	-1.27977e-05	13888.1
2	0	0	1	0	1	193.175	0.418133	0.41763	-0.0325044	10	0.000215624	13	0	3.1613	-1.35748e-05	12848.4
2	0	0	1	0	1	193.575	0.414138	0.41365	-0.0334955	10	0.000204931	13	0	3.5608	-1.38554e-05	12349.4
2	0	0	1	0	1	193.974	0.410143	0.409617	-0.0329489	10	0.000194048	13	0	3.9603	-1.34964e-05	12431.9
2	0	0	1	0	1	194.374	0.406147	0.405711	-0.0315112	10	0.000183037	13	0	4.3599	-1.27844e-05	12875.1
2	0	0	1	0	1	194.773	0.402152	0.401691	-0.029114	10	0.000171772	13	0	4.7594	-1.16949e-05	13797.2
2	0	0	1	0	1	195.173	0.398157	0.397669	-0.025341	10	0.00016028	13	0	5.1589	-1.00773e-05	15692.7
2	0	0	1	0	1	195.572	0.394162	0.393727	-0.0233034	10	0.00014859	13	0	5.5585	-9.17518e-06	16895.7
2	0	0	1	0	1	195.972	0.390166	0.389716	-0.024244	10	0.000136681	13	0	5.9579	-9.44825e-06	16074.7
2	0	0	1	0	1	196.371	0.386171	0.385679	-0.0277122	10	0.000124546	13	0	6.3575	-1.0688e-05	13917.3
2	0	0	1	0	1	196.771	0.382177	0.381714	-0.0326112	10	0.000112212	13	0	6.757	-1.24481e-05	11705
2	0	0	1	0	1	197.17	0.378181	0.377719	-0.0370853	10	9.96754e-05	13	0	7.1565	-1.40079e-05	10185.1
2	0	0	1	0	1	197.57	0.374185	0.373718	-0.0391411	10	8.68551e-05	13	0	7.5561	-1.46277e-05	9547.96
2	0	0	1	0	1	197.969	0.37019	0.369744	-0.0383015	10	7.38088e-05	13	0	7.9556	-1.41617e-05	9653.52
2	0	0	1	0	1	198.369	0.366195	0.365763	-0.0345661	10	6.04665e-05	13	0	8.3551	-1.2643e-05	10581.5
2	0	0	1	0	1	198.768	0.3622	0.361724	-0.0306404	10	4.6845e-05	13	0	8.7547	-1.10834e-05	11805.4
2	0	0	1	0	1	199.168	0.358203	0.357738	-0.0285822	10	3.29316e-05	13	0	9.1542	-1.0225e-05	12516.1
2	0	0	1	0	1	199.567	0.354209	0.353709	-0.029055	10	1.8714e-05	13	0	9.5537	-1.0277e-05	12173.8
2	0	0	1	0	1	199.965	0.350239	0.349781	-0.0320329	10	4.23967e-06	13	0	9.9508	-1.12045e-05	10919.4
2	0	0	0	0	1	199.986	0.349989	0.349553	-0.0279534	10	3.57793e-06	13	0	9.9722	-9.77118e-06	12504.8