File: ACS_Catal_2026/Figures_Na_K/main_figures/data/EC/20251112_2-148_alpha_reproducibility/20251112_2-148_004_Na_first_2_K2_03_CVA_C02.mpt
EC-Lab ASCII FILE
Nb header lines : 66

Cyclic Voltammetry Advanced

Run on channel : 2 (SN 69290)
User :
CE vs. WE compliance from -10 V to 10 V
Electrode connection : standard
Potential control : Ewe
Ewe ctrl range : min = -1.00 V, max = 1.00 V
Safety Limits :
	Do not start on E overload
Acquisition started on : 11/12/2025 17:44:04.753
Loaded Setting File :  C:\Users\User\Documents\EC-Lab\Data\Yatsuzuka\20251112_2-148_alpha_reproducibility\20251112_2-148_002_alpha_reproducibility_2_K1.mps
Saved on :
	File : 20251112_2-148_004_Na_first_2_K2_03_CVA_C02.mpr
	Directory : C:\Users\User\Documents\EC-Lab\Data\Yatsuzuka\20251112_2-148_alpha_reproducibility\
	Host : 192.109.209.127
Device : SP-150e (SN .003883)
Address : 192.109.209.128
EC-Lab for windows v11.52 (software)
Internet server v11.52 (firmware)
Command interpretor v11.50 (firmware)
Electrode material :
Initial state :
Electrolyte :
Comments :
Electrode surface area : 0.001 cm2
Characteristic mass : 0.001 g
Equivalent Weight : 0.000 g/eq.
Density : 0.000 g/cm3
Volume (V) : 0.001 cm3
Cycle Definition : Charge/Discharge alternance
Ei (V)              0.450
vs.                 Ref
ti (h:m:s)          0:00:10.0000
dti (s)             0.0000
dE/dt               5.000
dE/dt unit          mV/s
E1 (V)              0.700
vs.                 Ref
t1 (h:m:s)          0:00:0.0000
dt1 (s)             0.1000
Step percent        50
N                   10
E range min (V)     -1.000
E range max (V)     1.000
I Range             10 mA
I Range min         Unset
I Range max         Unset
I Range init        Unset
Bandwidth           5
E2 (V)              0.450
vs.                 Ref
t2 (h:m:s)          0:00:0.0000
dt2 (s)             0.1000
nc cycles           14
nr                  1
Reverse Scan        0
Ef (V)              0.000
vs.                 Eoc
tf (h:m:s)          0:00:0.0000
dtf (s)             0.1000

mode	ox/red	error	control changes	Ns changes	counter inc.	time/s	control/V	Ewe/V	<I>/mA	cycle number	(Q-Qo)/C	I Range	Ns	step time/s	P/W
2	1	0	0	0	0	232.186	0.450021	0.449554	0.00989032	1	0.0000000E+000	11	0	0.000000000000000E+000	4.44623e-06
2	1	0	1	0	0	234.738	0.462781	0.4623	0.0122855	1	3.23744e-05	11	0	2.4971	5.6796e-06
2	1	0	0	0	0	237.335	0.475765	0.475281	0.0127426	1	6.61464e-05	11	0	5.094	6.05633e-06
2	1	0	1	0	0	239.932	0.488749	0.48829	0.0130641	1	9.90976e-05	11	0	7.6909	6.37906e-06
2	1	0	1	0	0	242.529	0.501734	0.501264	0.0120621	1	0.00013172	11	0	10.2878	6.04628e-06
2	1	0	1	0	0	245.126	0.514718	0.514219	0.01224	1	0.000164669	11	0	12.8847	6.29404e-06
2	1	0	1	0	0	247.723	0.527704	0.52728	0.0131014	1	0.000197408	11	0	15.4817	6.90812e-06
2	1	0	1	0	0	250.32	0.540688	0.54026	0.0128105	1	0.000231222	11	0	18.0786	6.92099e-06
2	1	0	1	0	0	252.917	0.553672	0.553227	0.0141405	1	0.000266389	11	0	20.6755	7.82289e-06
2	1	0	0	0	0	255.514	0.566657	0.566217	0.0154936	1	0.000305288	11	0	23.2724	8.77273e-06
2	1	0	1	0	0	258.111	0.579642	0.579181	0.0197623	1	0.00035038	11	0	25.8694	1.14459e-05
2	1	0	1	0	0	260.708	0.592626	0.592192	0.0259063	1	0.000407519	11	0	28.4663	1.53415e-05
2	1	0	0	0	0	263.305	0.605611	0.605145	0.0383942	1	0.000488821	11	0	31.0632	2.32341e-05
2	1	0	1	0	0	265.901	0.618595	0.618176	0.0633392	1	0.000618176	11	0	33.6601	3.91548e-05
2	1	0	1	0	0	268.498	0.631581	0.631139	0.114635	1	0.000844005	11	0	36.2571	7.23508e-05
2	1	0	0	0	0	271.095	0.644565	0.644122	0.212603	1	0.00125823	11	0	38.854	0.000136942
2	1	0	1	0	0	273.692	0.657549	0.65716	0.388141	1	0.00201906	11	0	41.4509	0.000255071
2	1	0	1	0	0	276.289	0.670534	0.670105	0.669818	1	0.00336883	11	0	44.0478	0.000448849
2	1	0	1	0	0	278.886	0.683518	0.68309	1.07433	1	0.00560448	11	0	46.6447	0.000733866
2	1	0	1	0	0	281.483	0.696504	0.69604	1.6121	1	0.0090679	11	0	49.2417	0.00112208
2	1	0	0	0	0	283.831	0.691759	0.691291	1.33492	1	0.012783	11	0	51.5892	0.000922821
2	1	0	1	0	0	286.427	0.678774	0.678296	0.853054	1	0.0155906	11	0	54.1861	0.000578623
2	1	0	1	0	0	289.024	0.665789	0.665345	0.522474	1	0.017347	11	0	56.7831	0.000347625
2	1	0	0	0	0	291.621	0.652805	0.652353	0.291787	1	0.0183753	11	0	59.38	0.000190348
2	1	0	1	0	0	294.218	0.63982	0.639401	0.149872	1	0.0189319	11	0	61.9769	9.58284e-05
2	1	0	1	0	0	296.815	0.626836	0.626379	0.0729069	1	0.0192105	11	0	64.5738	4.56673e-05
2	1	0	1	0	0	299.412	0.613852	0.613399	0.0333194	1	0.0193408	11	0	67.1707	2.04381e-05
2	1	0	1	0	0	302.009	0.600866	0.600404	0.0129824	1	0.0193959	11	0	69.7677	7.79471e-06
2	1	0	1	0	0	304.606	0.587882	0.587409	0.00217068	1	0.019414	11	0	72.3646	1.27508e-06
2	1	0	1	0	0	307.203	0.574897	0.574425	-0.00265878	1	0.0194134	11	0	0.5993	-1.52727e-06
2	1	0	0	0	0	309.8	0.561913	0.561423	-0.00459856	1	0.0194028	11	0	3.1962	-2.58174e-06
2	0	0	1	0	0	312.397	0.548929	0.548453	-0.00678458	1	0.0193868	11	0	5.7931	-3.72102e-06
2	0	0	1	0	0	314.994	0.535943	0.535516	-0.00803313	1	0.0193679	11	0	8.3901	-4.30187e-06
2	0	0	0	0	0	317.591	0.522959	0.522479	-0.00767428	1	0.0193469	11	0	10.987	-4.00965e-06
2	0	0	1	0	0	320.187	0.509974	0.509534	-0.0085616	1	0.0193241	11	0	13.5839	-4.36243e-06
2	0	0	1	0	0	322.784	0.49699	0.49653	-0.00970658	1	0.0193007	11	0	16.1808	-4.81961e-06
2	1	0	0	0	0	325.381	0.484005	0.483567	-0.008877	1	0.0192759	11	0	18.7778	-4.29263e-06
2	0	0	1	0	0	327.978	0.47102	0.470552	-0.0103767	1	0.0192501	11	0	21.3747	-4.88276e-06
2	0	0	1	0	0	330.575	0.458036	0.457586	-0.0111579	1	0.0192235	11	0	23.9716	-5.10568e-06
2	0	0	0	0	1	332.942	0.453841	0.453326	0.010467	2	0.0192143	11	0	0.7542	4.74497e-06
2	1	0	1	0	1	335.538	0.466825	0.466395	0.0124809	2	0.019245	11	0	3.3511	5.82105e-06
2	1	0	1	0	1	338.135	0.47981	0.479355	0.0122077	2	0.0192758	11	0	5.948	5.85181e-06
2	1	0	1	0	1	340.732	0.492794	0.492365	0.0110177	2	0.0193067	11	0	8.5449	5.42471e-06
2	1	0	1	0	1	343.329	0.50578	0.505347	0.0117463	2	0.0193379	11	0	11.1419	5.93595e-06
2	1	0	1	0	1	345.926	0.518764	0.51828	0.0124157	2	0.0193686	11	0	13.7388	6.43481e-06
2	1	0	1	0	1	348.523	0.531748	0.531292	0.0120335	2	0.0193996	11	0	16.3357	6.39332e-06
2	0	0	0	0	1	351.12	0.544733	0.544294	0.0116493	2	0.0194317	11	0	18.9326	6.34063e-06
2	1	0	1	0	1	353.717	0.557717	0.557315	0.0131978	2	0.0194659	11	0	21.5295	7.35533e-06
2	1	0	1	0	1	356.314	0.570703	0.570272	0.0159937	2	0.0195035	11	0	24.1265	9.12075e-06
2	1	0	0	0	1	358.911	0.583687	0.583236	0.0198321	2	0.0195485	11	0	26.7234	1.15668e-05
2	1	0	1	0	1	361.508	0.596671	0.596204	0.0267175	2	0.0196084	11	0	29.3203	1.59291e-05
2	1	0	1	0	1	364.105	0.609656	0.609163	0.0423254	2	0.0196979	11	0	31.9172	2.57831e-05
2	1	0	0	0	1	366.702	0.622641	0.622206	0.0748624	2	0.0198467	11	0	34.5142	4.65799e-05
2	1	0	1	0	1	369.298	0.635626	0.635164	0.138462	2	0.0201145	11	0	37.1111	8.79458e-05
2	1	0	1	0	1	371.895	0.64861	0.648159	0.257445	2	0.0206146	11	0	39.708	0.000166866
2	1	0	1	0	1	374.492	0.661594	0.661149	0.462619	2	0.0215311	11	0	42.3049	0.00030586
2	1	0	1	0	1	377.089	0.67458	0.674111	0.788101	2	0.0231304	11	0	44.9019	0.000531267
2	1	0	1	0	1	379.686	0.687564	0.687092	1.22943	2	0.0257242	11	0	47.4988	0.00084473
2	1	0	0	0	1	382.168	0.699974	0.699384	1.74157	2	0.0294109	11	0	49.9808	0.00121802
2	1	0	1	0	1	384.621	0.687763	0.687302	1.16154	2	0.0329239	11	0	52.4333	0.000798329
2	1	0	0	0	1	387.218	0.674779	0.674316	0.747115	2	0.0353695	11	0	55.0302	0.000503791
2	1	0	1	0	1	389.814	0.661794	0.661351	0.436614	2	0.0368778	11	0	57.6271	0.000288755
2	1	0	1	0	1	392.411	0.64881	0.648351	0.240493	2	0.0377337	11	0	60.224	0.000155924
2	1	0	1	0	1	395.008	0.635826	0.635395	0.120506	2	0.0381861	11	0	62.8209	7.65688e-05
2	1	0	1	0	1	397.605	0.62284	0.622451	0.0571492	2	0.0384078	11	0	65.4179	3.55726e-05
2	1	0	1	0	1	400.202	0.609856	0.609389	0.0242697	2	0.038508	11	0	68.0148	1.47897e-05
2	1	0	1	0	1	402.799	0.596871	0.5964	0.00878043	2	0.0385485	11	0	70.6117	5.23665e-06
2	1	0	0	0	1	405.396	0.583887	0.583412	0.000357272	2	0.0385587	11	0	0.0998	2.08436e-07
2	0	0	1	0	1	407.993	0.570902	0.570437	-0.00314073	2	0.0385544	11	0	1.698	-1.79159e-06
2	0	0	1	0	1	410.59	0.557917	0.557446	-0.00626417	2	0.0385415	11	0	4.2949	-3.49193e-06
2	1	0	0	0	1	413.187	0.544933	0.544522	-0.00653079	2	0.0385244	11	0	6.8918	-3.55616e-06
2	0	0	1	0	1	415.784	0.531948	0.531459	-0.00827617	2	0.0385046	11	0	9.4887	-4.39844e-06
2	1	0	1	0	1	418.381	0.518964	0.51853	-0.00782246	2	0.0384831	11	0	12.0856	-4.05618e-06
2	0	0	0	0	1	420.978	0.505979	0.505524	-0.00951821	2	0.0384601	11	0	14.6826	-4.81168e-06
2	1	0	1	0	1	423.574	0.492994	0.492567	-0.00893762	2	0.0384361	11	0	17.2795	-4.40238e-06
2	0	0	1	0	1	426.171	0.48001	0.479585	-0.00994352	2	0.0384112	11	0	19.8764	-4.76876e-06
2	0	0	1	0	1	428.768	0.467025	0.466609	-0.0104525	2	0.0383848	11	0	22.4733	-4.87725e-06
2	1	0	1	0	1	431.365	0.45404	0.45357	-0.0103242	2	0.0383577	11	0	25.0703	-4.68276e-06
2	1	0	1	0	0	433.732	0.457836	0.457325	0.0111979	3	0.038366	11	0	1.5532	5.12108e-06
2	1	0	0	0	0	436.329	0.470821	0.470366	0.0116947	3	0.038397	11	0	4.1502	5.50077e-06
2	1	0	1	0	0	438.925	0.483806	0.483361	0.0119942	3	0.0384278	11	0	6.7471	5.79753e-06
2	0	0	1	0	0	441.522	0.49679	0.496322	0.0113602	3	0.0384589	11	0	9.344	5.6383e-06
2	1	0	1	0	0	444.119	0.509774	0.509361	0.0117048	3	0.0384893	11	0	11.9409	5.96197e-06
2	1	0	0	0	0	446.716	0.522759	0.522321	0.012023	3	0.0385201	11	0	14.5378	6.27988e-06
2	1	0	1	0	0	449.313	0.535744	0.535268	0.0118145	3	0.0385509	11	0	17.1348	6.3239e-06
2	1	0	1	0	0	451.91	0.548729	0.548284	0.012239	3	0.0385833	11	0	19.7317	6.71043e-06
2	1	0	0	0	0	454.507	0.561713	0.561257	0.0140551	3	0.0386179	11	0	22.3286	7.88851e-06
2	1	0	1	0	0	457.104	0.574697	0.574215	0.0166654	3	0.0386571	11	0	24.9255	9.56955e-06
2	1	0	1	0	0	459.701	0.587683	0.587223	0.0212319	3	0.0387052	11	0	27.5225	1.24679e-05
2	1	0	0	0	0	462.298	0.600667	0.600182	0.0301874	3	0.0387713	11	0	30.1194	1.8118e-05
2	1	0	1	0	0	464.895	0.613651	0.61327	0.0502839	3	0.0388741	11	0	32.7163	3.08376e-05
2	1	0	1	0	0	467.492	0.626636	0.626215	0.0900506	3	0.0390501	11	0	35.3132	5.6391e-05
2	1	0	1	0	0	470.088	0.63962	0.639205	0.166519	3	0.0393733	11	0	37.9101	0.00010644
2	1	0	1	0	0	472.685	0.652606	0.652199	0.311595	3	0.0399778	11	0	40.5071	0.000203222
2	1	0	1	0	0	475.282	0.66559	0.665126	0.553895	3	0.0410778	11	0	43.104	0.00036841
2	1	0	1	0	0	477.879	0.678574	0.678132	0.906817	3	0.0429536	11	0	45.7009	0.000614942
2	1	0	0	0	0	480.476	0.691559	0.69114	1.3857	3	0.0459078	11	0	48.2978	0.000957715
2	1	0	0	0	0	482.814	0.696753	0.696302	1.58294	3	0.0496592	11	0	50.6354	0.0011022
2	1	0	1	0	0	485.411	0.683768	0.683355	1.01064	3	0.0529392	11	0	53.2323	0.000690628
2	1	0	1	0	0	488.008	0.670784	0.670352	0.621482	3	0.0550394	11	0	55.8292	0.000416612
2	1	0	1	0	0	490.604	0.6578	0.657354	0.368744	3	0.0562893	11	0	58.4261	0.000242395
2	1	0	1	0	0	493.201	0.644814	0.644375	0.195186	3	0.0570016	11	0	61.0231	0.000125773
2	1	0	1	0	0	495.798	0.63183	0.631384	0.0961506	3	0.0573672	11	0	63.62	6.0708e-05
2	1	0	1	0	0	498.395	0.618846	0.618396	0.0446571	3	0.0575404	11	0	66.2169	2.76157e-05
2	1	0	0	0	0	500.992	0.605861	0.605447	0.0175986	3	0.0576168	11	0	68.8138	1.0655e-05
2	1	0	1	0	0	503.589	0.592876	0.592388	0.00585721	3	0.0576451	11	0	71.4108	3.46974e-06
2	1	0	1	0	0	506.186	0.579891	0.579413	-0.00143575	3	0.0576494	11	0	0.1998	-8.3189e-07
2	0	0	0	0	0	508.783	0.566907	0.566464	-0.00375272	3	0.0576419	11	0	2.2973	-2.12578e-06
2	0	0	1	0	0	511.38	0.553923	0.553495	-0.00670252	3	0.0576273	11	0	4.8942	-3.70981e-06
2	0	0	1	0	0	513.977	0.540937	0.540436	-0.00716425	3	0.0576095	11	0	7.4912	-3.87182e-06
2	1	0	0	0	0	516.574	0.527953	0.527501	-0.00801122	3	0.0575888	11	0	10.0881	-4.22593e-06
2	0	0	1	0	0	519.171	0.514968	0.514553	-0.00889604	3	0.0575671	11	0	12.685	-4.57748e-06
2	1	0	1	0	0	521.768	0.501984	0.501488	-0.00847737	3	0.0575437	11	0	15.2819	-4.2513e-06
2	0	0	1	0	0	524.364	0.489	0.488517	-0.0100371	3	0.0575193	11	0	17.8788	-4.9033e-06
2	0	0	1	0	0	526.961	0.476014	0.475538	-0.00979935	3	0.0574943	11	0	20.4758	-4.65996e-06
2	1	0	1	0	0	529.558	0.46303	0.462554	-0.00974588	3	0.0574675	11	0	23.0727	-4.508e-06
2	0	0	0	0	0	532.13	0.45017	0.449666	-0.00788219	3	0.0574402	11	0	25.6447	-3.54435e-06
2	1	0	1	0	1	534.522	0.461832	0.461397	0.0109544	4	0.0574661	11	0	2.2973	5.05432e-06
2	0	0	1	0	1	537.119	0.474816	0.474331	0.0111835	4	0.057497	11	0	4.8942	5.30467e-06
2	1	0	1	0	1	539.715	0.4878	0.487334	0.0121065	4	0.0575279	11	0	7.4911	5.89989e-06
2	1	0	1	0	1	542.312	0.500786	0.50031	0.011713	4	0.0575582	11	0	10.0881	5.86014e-06
2	1	0	1	0	1	544.909	0.51377	0.513298	0.0109877	4	0.0575887	11	0	12.685	5.63998e-06
2	1	0	1	0	1	547.506	0.526755	0.526253	0.011608	4	0.0576195	11	0	15.2819	6.10875e-06
2	1	0	0	0	1	550.103	0.539739	0.5393	0.0127281	4	0.0576507	11	0	17.8788	6.86425e-06
2	1	0	1	0	1	552.7	0.552723	0.55225	0.0131599	4	0.0576831	11	0	20.4757	7.26758e-06
2	1	0	1	0	1	555.297	0.565709	0.565217	0.014055	4	0.0577184	11	0	23.0727	7.94411e-06
2	1	0	0	0	1	557.894	0.578693	0.578221	0.016854	4	0.0577596	11	0	25.6696	9.74531e-06
2	1	0	1	0	1	560.491	0.591677	0.591175	0.0231199	4	0.057812	11	0	28.2665	1.36679e-05
2	1	0	1	0	1	563.088	0.604662	0.604186	0.0354999	4	0.0578862	11	0	30.8634	2.14486e-05
2	1	0	0	0	1	565.685	0.617647	0.617181	0.0588216	4	0.0580051	11	0	33.4604	3.63036e-05
2	1	0	1	0	1	568.282	0.630632	0.630233	0.107375	4	0.0582155	11	0	36.0573	6.76715e-05
2	1	0	1	0	1	570.879	0.643616	0.643197	0.20331	4	0.0586072	11	0	38.6542	0.000130768
2	1	0	1	0	1	573.475	0.6566	0.656169	0.374923	4	0.0593378	11	0	41.2511	0.000246013
2	1	0	0	0	1	576.072	0.669585	0.669114	0.65038	4	0.0606471	11	0	43.848	0.000435179
2	1	0	1	0	1	578.669	0.68257	0.682105	1.04984	4	0.0628295	11	0	46.445	0.0007161
2	1	0	1	0	1	581.266	0.695555	0.695111	1.57219	4	0.0661952	11	0	49.0419	0.00109285
2	1	0	1	0	1	583.604	0.692758	0.692343	1.39112	4	0.0699625	11	0	51.3794	0.000963135
2	1	0	0	0	1	586.201	0.679773	0.679285	0.889856	4	0.0728928	11	0	53.9764	0.000604466
2	1	0	1	0	1	588.798	0.666788	0.6663	0.533741	4	0.0747157	11	0	56.5733	0.000355632
2	1	0	1	0	1	591.395	0.653804	0.653342	0.30666	4	0.0757774	11	0	59.1702	0.000200354
2	1	0	1	0	1	593.991	0.64082	0.64035	0.157671	4	0.0763597	11	0	61.7671	0.000100964
2	1	0	1	0	1	596.588	0.627834	0.627416	0.075741	4	0.0766519	11	0	64.3641	4.75211e-05
2	1	0	1	0	1	599.185	0.61485	0.614407	0.0346303	4	0.0767879	11	0	66.961	2.12771e-05
2	0	0	1	0	1	601.782	0.601865	0.6014	0.0124444	4	0.0768454	11	0	69.5579	7.48404e-06
2	1	0	0	0	1	604.379	0.588881	0.588429	0.00336641	4	0.0768644	11	0	72.1548	1.98089e-06
2	0	0	1	0	1	606.976	0.575897	0.575429	-0.00274275	4	0.076864	11	0	0.799	-1.57826e-06
2	1	0	1	0	1	609.573	0.562911	0.562479	-0.00443928	4	0.0768539	11	0	3.396	-2.497e-06
2	0	0	0	0	1	612.17	0.549927	0.54947	-0.0072124	4	0.0768383	11	0	5.9929	-3.96299e-06
2	0	0	1	0	1	614.767	0.536942	0.536455	-0.00764467	4	0.0768192	11	0	8.5898	-4.10102e-06
2	1	0	1	0	1	617.364	0.523958	0.523512	-0.00802535	4	0.0767987	11	0	11.1867	-4.20137e-06
2	0	0	1	0	1	619.961	0.510974	0.510517	-0.00899833	4	0.0767761	11	0	13.7836	-4.5938e-06
2	0	0	1	0	1	622.558	0.497988	0.497513	-0.00927771	4	0.0767527	11	0	16.3806	-4.61579e-06
2	1	0	1	0	1	625.155	0.485004	0.484541	-0.00938098	4	0.0767283	11	0	18.9775	-4.54547e-06
2	0	0	1	0	1	627.751	0.472019	0.471563	-0.00989416	4	0.0767027	11	0	21.5744	-4.66572e-06
2	1	0	0	0	1	630.348	0.459035	0.458603	-0.00994367	4	0.0766763	11	0	24.1713	-4.5602e-06
2	0	0	1	0	0	632.715	0.452842	0.452333	0.0101237	5	0.0766624	11	0	0.4994	4.5793e-06
2	1	0	1	0	0	635.312	0.465826	0.465386	0.0117509	5	0.0766924	11	0	3.0963	5.46872e-06
2	1	0	1	0	0	637.909	0.478812	0.478344	0.0122663	5	0.0767235	11	0	5.6933	5.86753e-06
2	0	0	1	0	0	640.506	0.491796	0.491293	0.0111195	5	0.0767539	11	0	8.2902	5.46294e-06
2	1	0	1	0	0	643.102	0.504781	0.504317	0.0120272	5	0.0767848	11	0	10.8871	6.06553e-06
2	0	0	0	0	0	645.699	0.517765	0.517292	0.0110905	5	0.0768149	11	0	13.484	5.73705e-06
2	1	0	1	0	0	648.296	0.530749	0.530288	0.0124003	5	0.0768458	11	0	16.0809	6.57573e-06
2	1	0	1	0	0	650.893	0.543735	0.543299	0.0120346	5	0.0768773	11	0	18.6779	6.53839e-06
2	0	0	0	0	0	653.49	0.556719	0.556278	0.0126244	5	0.0769104	11	0	21.2748	7.02267e-06
2	1	0	1	0	0	656.087	0.569703	0.569253	0.0150882	5	0.076947	11	0	23.8717	8.58899e-06
2	1	0	1	0	0	658.684	0.582688	0.582264	0.0187497	5	0.076991	11	0	26.4686	1.09173e-05
2	1	0	0	0	0	661.281	0.595673	0.595207	0.026017	5	0.0770479	11	0	29.0656	1.54855e-05
2	1	0	1	0	0	663.878	0.608658	0.608205	0.0401732	5	0.0771325	11	0	31.6625	2.44336e-05
2	1	0	1	0	0	666.475	0.621642	0.6212	0.0705479	5	0.0772721	11	0	34.2594	4.38243e-05
2	1	0	1	0	0	669.072	0.634626	0.634174	0.130036	5	0.0775251	11	0	36.8563	8.24652e-05
2	1	0	0	0	0	671.669	0.647611	0.647154	0.245484	5	0.0779988	11	0	39.4532	0.000158866
2	1	0	1	0	0	674.266	0.660596	0.660178	0.446132	5	0.0788753	11	0	42.0502	0.000294527
2	1	0	1	0	0	676.862	0.673581	0.673109	0.759241	5	0.0804175	11	0	44.6471	0.000511052
2	1	0	0	0	0	679.459	0.686565	0.686066	1.2061	5	0.082941	11	0	47.244	0.000827465
2	1	0	1	0	0	682.056	0.699549	0.699095	1.72945	5	0.0867166	11	0	49.8409	0.00120905
2	1	0	1	0	0	684.394	0.688762	0.68828	1.22276	5	0.0901172	11	0	52.1785	0.0008416
2	1	0	1	0	0	686.991	0.675778	0.67532	0.769923	5	0.0926854	11	0	54.7754	0.000519944
2	1	0	1	0	0	689.588	0.662794	0.662332	0.454449	5	0.094253	11	0	57.3723	0.000300996
2	1	0	1	0	0	692.185	0.649808	0.649355	0.250941	5	0.0951446	11	0	59.9693	0.00016295
2	1	0	1	0	0	694.782	0.636824	0.636342	0.128075	5	0.0956198	11	0	62.5662	8.14995e-05
2	1	0	1	0	0	697.378	0.623839	0.623399	0.0599896	5	0.0958525	11	0	65.1631	3.73974e-05
2	1	0	0	0	0	699.975	0.610855	0.610419	0.0250755	5	0.0959575	11	0	67.76	1.53066e-05
2	1	0	1	0	0	702.572	0.59787	0.597396	0.00987104	5	0.0959998	11	0	70.357	5.89692e-06
2	1	0	1	0	0	705.169	0.584885	0.584411	0.000746363	5	0.0960114	11	0	72.9539	4.36182e-07
2	0	0	0	0	0	707.766	0.571901	0.571433	-0.00386861	5	0.0960072	11	0	1.5981	-2.21066e-06
2	0	0	1	0	0	710.363	0.558916	0.558459	-0.00573687	5	0.0959949	11	0	4.195	-3.20381e-06
2	1	0	1	0	0	712.96	0.545932	0.545494	-0.00628414	5	0.0959783	11	0	6.7919	-3.42796e-06
2	1	0	0	0	0	715.557	0.532947	0.532497	-0.00726832	5	0.095959	11	0	9.3889	-3.87036e-06
2	0	0	1	0	0	718.154	0.519962	0.519524	-0.00858805	5	0.0959378	11	0	11.9858	-4.4617e-06
2	0	0	1	0	0	720.751	0.506978	0.506508	-0.00949334	5	0.0959151	11	0	14.5827	-4.80846e-06
2	0	0	1	0	0	723.348	0.493994	0.493486	-0.00939054	5	0.0958913	11	0	17.1796	-4.6341e-06
2	0	0	0	0	0	725.945	0.481009	0.480578	-0.00926534	5	0.0958667	11	0	19.7765	-4.45272e-06
2	1	0	1	0	0	728.542	0.468024	0.467603	-0.00932719	5	0.095841	11	0	22.3735	-4.36142e-06
2	1	0	1	0	0	731.138	0.455039	0.454548	-0.00956932	5	0.095814	11	0	24.9704	-4.34972e-06
2	1	0	1	0	1	733.505	0.456838	0.456394	0.0111944	6	0.0958182	11	0	1.2985	5.10905e-06
2	0	0	1	0	1	736.102	0.469822	0.469324	0.0108462	6	0.0958486	11	0	3.8954	5.09037e-06
2	1	0	1	0	1	738.699	0.482806	0.482324	0.0117384	6	0.0958793	11	0	6.4923	5.66173e-06
2	1	0	0	0	1	741.296	0.495791	0.495342	0.0125086	6	0.0959101	11	0	9.0892	6.19605e-06
2	1	0	1	0	1	743.893	0.508776	0.50833	0.0112413	6	0.0959407	11	0	11.6862	5.7143e-06
2	0	0	1	0	1	746.489	0.521761	0.521299	0.0111248	6	0.0959711	11	0	14.2831	5.79936e-06
2	1	0	0	0	1	749.086	0.534745	0.534275	0.0124481	6	0.0960021	11	0	16.88	6.6507e-06
2	1	0	1	0	1	751.683	0.547729	0.547231	0.0128794	6	0.096034	11	0	19.4769	7.04801e-06
2	1	0	1	0	1	754.28	0.560715	0.560264	0.0140666	6	0.096068	11	0	22.0739	7.88099e-06
2	1	0	0	0	1	756.877	0.573699	0.573196	0.0166732	6	0.0961063	11	0	24.6708	9.55703e-06
2	1	0	1	0	1	759.474	0.586684	0.586216	0.0204324	6	0.0961528	11	0	27.2677	1.19778e-05
2	1	0	1	0	1	762.071	0.599668	0.599218	0.0285862	6	0.0962163	11	0	29.8646	1.71294e-05
2	1	0	1	0	1	764.668	0.612652	0.612172	0.0471857	6	0.0963135	11	0	32.4615	2.88858e-05
2	1	0	1	0	1	767.265	0.625638	0.625154	0.0850587	6	0.0964791	11	0	35.0585	5.31748e-05
2	1	0	1	0	1	769.862	0.638622	0.6382	0.158561	6	0.0967841	11	0	37.6554	0.000101193
2	1	0	1	0	1	772.459	0.651606	0.65118	0.293806	6	0.0973555	11	0	40.2523	0.000191321
2	1	0	0	0	1	775.056	0.664591	0.664114	0.526031	6	0.098401	11	0	42.8492	0.000349344
2	1	0	1	0	1	777.652	0.677575	0.677115	0.870416	6	0.100192	11	0	45.4461	0.000589372
2	1	0	1	0	1	780.249	0.690561	0.690115	1.33494	6	0.103038	11	0	48.0431	0.00092126
2	1	0	1	0	1	782.587	0.697752	0.697313	1.59563	6	0.106681	11	0	50.3806	0.00111265
2	1	0	1	0	1	785.184	0.684768	0.684334	1.07473	6	0.110095	11	0	52.9775	0.000735477
2	1	0	1	0	1	787.781	0.671782	0.671319	0.659724	6	0.112313	11	0	55.5745	0.000442885
2	1	0	1	0	1	790.378	0.658798	0.658336	0.381906	6	0.113642	11	0	58.1714	0.000251423
2	1	0	1	0	1	792.975	0.645813	0.645381	0.203101	6	0.114381	11	0	60.7683	0.000131077
2	1	0	0	0	1	795.572	0.632829	0.632402	0.101196	6	0.114763	11	0	63.3652	6.39964e-05
2	1	0	1	0	1	798.169	0.619844	0.619383	0.045512	6	0.114944	11	0	65.9622	2.81894e-05
2	1	0	1	0	1	800.765	0.606859	0.606399	0.0192315	6	0.115024	11	0	68.5591	1.1662e-05
2	1	0	0	0	1	803.362	0.593875	0.59343	0.00582527	6	0.115054	11	0	71.156	3.45689e-06
2	1	0	1	0	1	805.959	0.58089	0.580438	-0.000914515	6	0.115059	11	0	0.1997	-5.30819e-07
2	1	0	1	0	1	808.556	0.567906	0.567465	-0.0038783	6	0.115052	11	0	2.2972	-2.2008e-06
2	0	0	0	0	1	811.153	0.554921	0.554463	-0.00660496	6	0.115037	11	0	4.8942	-3.66221e-06
2	1	0	1	0	1	813.75	0.541936	0.541448	-0.0067808	6	0.11502	11	0	7.4911	-3.67145e-06
2	0	0	1	0	1	816.347	0.528952	0.528516	-0.00838951	6	0.115	11	0	10.088	-4.43399e-06
2	0	0	1	0	1	818.944	0.515968	0.515508	-0.00829636	6	0.114978	11	0	12.6849	-4.27684e-06
2	0	0	1	0	1	821.541	0.502982	0.502506	-0.00941982	6	0.114955	11	0	15.2819	-4.73352e-06
2	0	0	1	0	1	824.138	0.489998	0.489562	-0.0101456	6	0.114931	11	0	17.8788	-4.96689e-06
2	0	0	1	0	1	826.735	0.477013	0.476516	-0.0104113	6	0.114906	11	0	20.4757	-4.96114e-06
2	0	0	0	0	1	829.332	0.464029	0.463521	-0.0107263	6	0.11488	11	0	23.0726	-4.97186e-06
2	0	0	1	0	1	831.928	0.451045	0.450646	-0.0113272	6	0.114852	11	0	25.6695	-5.10455e-06
2	0	0	1	0	0	834.295	0.460832	0.460404	0.010874	7	0.114874	11	0	2.0975	5.00643e-06
2	0	0	1	0	0	836.892	0.473818	0.473396	0.0110428	7	0.114905	11	0	4.6945	5.22763e-06
2	1	0	1	0	0	839.489	0.486802	0.486339	0.0112089	7	0.114936	11	0	7.2914	5.45134e-06
2	1	0	1	0	0	842.086	0.499787	0.499331	0.0113306	7	0.114966	11	0	9.8883	5.65773e-06
2	1	0	0	0	0	844.683	0.512771	0.512318	0.0114787	7	0.114997	11	0	12.4852	5.88075e-06
2	1	0	1	0	0	847.279	0.525755	0.525315	0.0122669	7	0.115027	11	0	15.0821	6.44396e-06
2	1	0	1	0	0	849.876	0.538741	0.538265	0.0125971	7	0.115058	11	0	17.6791	6.78057e-06
2	1	0	0	0	0	852.473	0.551725	0.55125	0.0125098	7	0.115091	11	0	20.276	6.89604e-06
2	0	0	1	0	0	855.07	0.564709	0.564241	0.0132846	7	0.115126	11	0	22.8729	7.49574e-06
2	1	0	1	0	0	857.667	0.577694	0.577227	0.0163381	7	0.115166	11	0	25.4698	9.43083e-06
2	1	0	1	0	0	860.264	0.590678	0.590171	0.0220843	7	0.115216	11	0	28.0667	1.30335e-05
2	1	0	1	0	0	862.861	0.603664	0.603238	0.0327522	7	0.115287	11	0	30.6637	1.97574e-05
2	1	0	1	0	0	865.458	0.616648	0.616237	0.054924	7	0.115399	11	0	33.2606	3.38462e-05
2	1	0	1	0	0	868.055	0.629632	0.629205	0.101095	7	0.115597	11	0	35.8575	6.36097e-05
2	1	0	0	0	0	870.652	0.642617	0.6422	0.191079	7	0.115966	11	0	38.4544	0.000122711
2	1	0	1	0	0	873.249	0.655601	0.655189	0.353224	7	0.116656	11	0	41.0513	0.000231429
2	1	0	1	0	0	875.846	0.668587	0.668135	0.6197	7	0.117899	11	0	43.6483	0.000414043
2	1	0	0	0	0	878.443	0.681571	0.681153	0.996759	7	0.119969	11	0	46.2452	0.000678945
2	1	0	1	0	0	881.039	0.694555	0.694101	1.51669	7	0.123196	11	0	48.8421	0.00105274
2	1	0	1	0	0	883.377	0.693756	0.69331	1.41763	7	0.126945	11	0	51.1797	0.000982855
2	1	0	1	0	0	885.974	0.680772	0.680329	0.929748	7	0.129964	11	0	53.7766	0.000632535
2	1	0	1	0	0	888.571	0.667787	0.667369	0.562494	7	0.131866	11	0	56.3735	0.000375391
2	1	0	1	0	0	891.168	0.654802	0.654374	0.31638	7	0.132987	11	0	58.9705	0.000207031
2	1	0	1	0	0	893.765	0.641818	0.641384	0.164975	7	0.133594	11	0	61.5674	0.000105813
2	1	0	1	0	0	896.362	0.628833	0.628401	0.0794715	7	0.1339	11	0	64.1643	4.994e-05
2	1	0	0	0	0	898.959	0.615849	0.615432	0.035954	7	0.134042	11	0	66.7612	2.21272e-05
2	1	0	1	0	0	901.555	0.602865	0.602417	0.0140119	7	0.134101	11	0	69.3581	8.44098e-06
2	0	0	1	0	0	904.152	0.589879	0.589407	0.00290633	7	0.134121	11	0	71.9551	1.71301e-06
2	0	0	0	0	0	906.749	0.576895	0.57642	-0.00248245	7	0.134122	11	0	0.5993	-1.43093e-06
2	1	0	1	0	0	909.346	0.56391	0.563487	-0.00442633	7	0.134112	11	0	3.1962	-2.49418e-06
2	1	0	1	0	0	911.943	0.550926	0.55047	-0.00569142	7	0.134097	11	0	5.7931	-3.13296e-06
2	1	0	1	0	0	914.54	0.537942	0.537479	-0.00748502	7	0.134078	11	0	8.39	-4.02304e-06
2	0	0	1	0	0	917.137	0.524956	0.524508	-0.00855696	7	0.134057	11	0	10.987	-4.48819e-06
2	0	0	1	0	0	919.734	0.511972	0.511514	-0.00926434	7	0.134035	11	0	13.5839	-4.73884e-06
2	0	0	1	0	0	922.331	0.498988	0.498548	-0.00960559	7	0.134012	11	0	16.1808	-4.78885e-06
2	0	0	0	0	0	924.928	0.486003	0.485558	-0.0104279	7	0.133988	11	0	18.7777	-5.06336e-06
2	0	0	1	0	0	927.525	0.473019	0.472569	-0.0102581	7	0.133962	11	0	21.3746	-4.84765e-06
2	1	0	1	0	0	930.122	0.460033	0.459542	-0.00983807	7	0.133936	11	0	23.9716	-4.52101e-06
2	1	0	1	0	1	932.488	0.451844	0.451404	0.0104266	8	0.133918	11	0	0.2997	4.70662e-06
2	1	0	1	0	1	935.085	0.464828	0.464336	0.0120586	8	0.133948	11	0	2.8966	5.59924e-06
2	1	0	1	0	1	937.682	0.477812	0.477337	0.0124686	8	0.133978	11	0	5.4935	5.95171e-06
2	1	0	0	0	1	940.279	0.490797	0.490312	0.0125009	8	0.134009	11	0	8.0904	6.12935e-06
2	1	0	1	0	1	942.876	0.503781	0.503334	0.012137	8	0.134039	11	0	10.6873	6.10898e-06
2	1	0	1	0	1	945.473	0.516767	0.516317	0.012357	8	0.13407	11	0	13.2843	6.38014e-06
2	1	0	0	0	1	948.07	0.529751	0.529337	0.0122602	8	0.1341	11	0	15.8812	6.48979e-06
2	1	0	1	0	1	950.666	0.542735	0.542281	0.0123359	8	0.134132	11	0	18.4781	6.68951e-06
2	1	0	1	0	1	953.263	0.55572	0.555258	0.0132767	8	0.134165	11	0	21.075	7.372e-06
2	1	0	1	0	1	955.86	0.568704	0.568218	0.0147644	8	0.134201	11	0	23.6719	8.38937e-06
2	1	0	1	0	1	958.457	0.58169	0.581216	0.0183942	8	0.134243	11	0	26.2689	1.0691e-05
2	1	0	1	0	1	961.054	0.594674	0.59424	0.0248098	8	0.134298	11	0	28.8658	1.4743e-05
2	1	0	1	0	1	963.651	0.607658	0.607257	0.0382944	8	0.134379	11	0	31.4627	2.32545e-05
2	1	0	0	0	1	966.248	0.620643	0.620168	0.0653447	8	0.13451	11	0	34.0596	4.05247e-05
2	1	0	1	0	1	968.845	0.633628	0.633165	0.121978	8	0.134748	11	0	36.6566	7.7232e-05
2	1	0	1	0	1	971.442	0.646612	0.646185	0.230611	8	0.135193	11	0	39.2535	0.000149017
2	1	0	0	0	1	974.039	0.659597	0.659177	0.422307	8	0.136023	11	0	41.8504	0.000278375
2	1	0	1	0	1	976.636	0.672581	0.672165	0.72522	8	0.137491	11	0	44.4473	0.000487468
2	1	0	1	0	1	979.233	0.685567	0.685124	1.14844	8	0.139892	11	0	47.0443	0.000786826
2	1	0	0	0	1	981.83	0.698551	0.698136	1.68576	8	0.143565	11	0	49.6412	0.00117689
2	1	0	1	0	1	984.167	0.689761	0.689323	1.2242	8	0.147045	11	0	51.9787	0.000843871
2	1	0	1	0	1	986.764	0.676776	0.676411	0.806374	8	0.14968	11	0	54.5757	0.00054544
2	1	0	1	0	1	989.361	0.663792	0.663358	0.480835	8	0.151318	11	0	57.1726	0.000318966
2	1	0	1	0	1	991.958	0.650807	0.650357	0.260298	8	0.15226	11	0	59.7695	0.000169287
2	1	0	0	0	1	994.555	0.637823	0.637377	0.132244	8	0.152756	11	0	62.3664	8.42895e-05
2	1	0	1	0	1	997.152	0.624839	0.624374	0.0615566	8	0.152997	11	0	64.9633	3.84343e-05
2	1	0	1	0	1	999.749	0.611853	0.611376	0.0263839	8	0.153106	11	0	67.5603	1.61305e-05
2	1	0	0	0	1	1002.35	0.598869	0.598417	0.00934455	8	0.15315	11	0	70.1572	5.59193e-06
2	0	0	1	0	1	1004.94	0.585884	0.585421	0.000524254	8	0.153162	11	0	72.7541	3.06909e-07
2	0	0	1	0	1	1007.54	0.5729	0.572468	-0.00376626	8	0.153159	11	0	1.5981	-2.15606e-06
2	0	0	1	0	1	1010.14	0.559916	0.559431	-0.00609282	8	0.153147	11	0	4.195	-3.40852e-06
2	0	0	1	0	1	1012.73	0.54693	0.546476	-0.0072583	8	0.15313	11	0	6.792	-3.96649e-06
2	0	0	1	0	1	1015.33	0.533946	0.533493	-0.00770025	8	0.153111	11	0	9.3889	-4.10803e-06
2	0	0	1	0	1	1017.93	0.520961	0.52049	-0.00840134	8	0.15309	11	0	11.9858	-4.37281e-06
2	0	0	0	0	1	1020.52	0.507977	0.507475	-0.00917989	8	0.153068	11	0	14.5827	-4.65856e-06
2	0	0	1	0	1	1023.12	0.494992	0.494518	-0.0093859	8	0.153044	11	0	17.1797	-4.64149e-06
2	0	0	1	0	1	1025.72	0.482007	0.481531	-0.00981346	8	0.15302	11	0	19.7766	-4.72549e-06
2	0	0	0	0	1	1028.31	0.469023	0.468571	-0.0104493	8	0.152994	11	0	22.3735	-4.89625e-06
2	0	0	1	0	1	1030.91	0.456039	0.455598	-0.0108884	8	0.152967	11	0	24.9704	-4.96074e-06
2	1	0	1	0	0	1033.28	0.455838	0.45537	0.0108945	9	0.152967	11	0	1.0987	4.96104e-06
2	1	0	0	0	0	1035.87	0.468823	0.46833	0.0122668	9	0.152997	11	0	3.6956	5.74494e-06
2	1	0	1	0	0	1038.47	0.481807	0.481363	0.0125025	9	0.153028	11	0	6.2925	6.01825e-06
2	1	0	1	0	0	1041.07	0.494793	0.494311	0.0123581	9	0.153058	11	0	8.8895	6.10873e-06
2	1	0	0	0	0	1043.67	0.507777	0.507318	0.0122824	9	0.153089	11	0	11.4864	6.23107e-06
2	1	0	1	0	0	1046.26	0.520761	0.520281	0.01184	9	0.153119	11	0	14.0833	6.16015e-06
2	1	0	1	0	0	1048.86	0.533746	0.533315	0.0115565	9	0.15315	11	0	16.6802	6.16325e-06
2	1	0	0	0	0	1051.46	0.546731	0.546293	0.0118707	9	0.153181	11	0	19.2772	6.48491e-06
2	1	0	1	0	0	1054.05	0.559716	0.559315	0.0128746	9	0.153215	11	0	21.8741	7.20097e-06
2	1	0	1	0	0	1056.65	0.5727	0.572282	0.0152401	9	0.153252	11	0	24.471	8.72162e-06
2	1	0	1	0	0	1059.25	0.585684	0.585285	0.01982	9	0.153298	11	0	27.0679	1.16003e-05
2	1	0	1	0	0	1061.84	0.59867	0.598205	0.0278902	9	0.153358	11	0	29.6649	1.6684e-05
2	1	0	1	0	0	1064.44	0.611654	0.611166	0.0443637	9	0.15345	11	0	32.2618	2.71136e-05
2	1	0	1	0	0	1067.04	0.624638	0.624179	0.0787539	9	0.153605	11	0	34.8587	4.91565e-05
2	1	0	0	0	0	1069.63	0.637623	0.637191	0.147771	9	0.15389	11	0	37.4556	9.41581e-05
2	1	0	1	0	0	1072.23	0.650607	0.650154	0.277074	9	0.154427	11	0	40.0525	0.000180141
2	1	0	1	0	0	1074.83	0.663593	0.663135	0.498018	9	0.155413	11	0	42.6495	0.000330253
2	1	0	0	0	0	1077.43	0.676577	0.676145	0.832336	9	0.157119	11	0	45.2464	0.00056278
2	1	0	1	0	0	1080.02	0.689561	0.689074	1.28493	9	0.159844	11	0	47.8433	0.000885409
2	1	0	1	0	0	1082.36	0.69875	0.698312	1.63402	9	0.163394	11	0	50.1809	0.00114105
2	1	0	1	0	0	1084.96	0.685766	0.685333	1.07803	9	0.166871	11	0	52.7778	0.00073881
2	1	0	1	0	0	1087.55	0.672781	0.672316	0.693794	9	0.169165	11	0	55.3747	0.000466449
2	1	0	0	0	0	1090.15	0.659797	0.659341	0.395856	9	0.170544	11	0	57.9716	0.000261004
2	1	0	1	0	0	1092.75	0.646813	0.646413	0.211823	9	0.171314	11	0	60.5685	0.000136925
2	1	0	1	0	0	1095.34	0.633827	0.633348	0.105334	9	0.171712	11	0	63.1655	6.67133e-05
2	1	0	0	0	0	1097.94	0.620843	0.620422	0.0476283	9	0.171901	11	0	65.7624	2.95497e-05
2	1	0	1	0	0	1100.54	0.607859	0.607398	0.0194581	9	0.171983	11	0	68.3593	1.18188e-05
2	1	0	1	0	0	1103.14	0.594874	0.594436	0.00678788	9	0.172015	11	0	70.9562	4.03496e-06
2	1	0	0	0	0	1105.73	0.581889	0.581438	0.000165233	9	0.172021	11	0	0.0999	9.60727e-08
2	1	0	1	0	0	1108.33	0.568904	0.568468	-0.00351512	9	0.172015	11	0	1.9976	-1.99823e-06
2	0	0	1	0	0	1110.93	0.55592	0.555476	-0.00518922	9	0.172001	11	0	4.5945	-2.88248e-06
2	0	0	1	0	0	1113.52	0.542935	0.542474	-0.00708934	9	0.171984	11	0	7.1914	-3.84578e-06
2	0	0	1	0	0	1116.12	0.52995	0.529526	-0.00868616	9	0.171964	11	0	9.7884	-4.59955e-06
2	0	0	1	0	0	1118.72	0.516966	0.516567	-0.00886972	9	0.171943	11	0	12.3853	-4.58181e-06
2	0	0	1	0	0	1121.31	0.503981	0.503511	-0.00882208	9	0.17192	11	0	14.9822	-4.44202e-06
2	1	0	0	0	0	1123.91	0.490997	0.490544	-0.00899996	9	0.171896	11	0	17.5791	-4.41488e-06
2	1	0	1	0	0	1126.51	0.478013	0.47755	-0.00889928	9	0.171872	11	0	20.176	-4.24985e-06
2	1	0	1	0	0	1129.1	0.465027	0.464545	-0.00966902	9	0.171846	11	0	22.773	-4.4917e-06
2	0	0	0	0	0	1131.7	0.452043	0.45159	-0.0111625	9	0.171819	11	0	25.3699	-5.04088e-06
2	1	0	1	0	1	1134.07	0.459834	0.459337	0.0117499	10	0.171836	11	0	1.9528	5.39717e-06
2	1	0	1	0	1	1136.67	0.472818	0.472316	0.0126038	10	0.171866	11	0	4.5497	5.95298e-06
2	1	0	0	0	1	1139.26	0.485803	0.485359	0.011463	10	0.171897	11	0	7.1466	5.56368e-06
2	1	0	1	0	1	1141.86	0.498787	0.498364	0.0109985	10	0.171927	11	0	9.7435	5.48125e-06
2	1	0	1	0	1	1144.46	0.511772	0.511308	0.011815	10	0.171958	11	0	12.3404	6.04113e-06
2	1	0	0	0	1	1147.05	0.524757	0.524293	0.0122505	10	0.171988	11	0	14.9374	6.42286e-06
2	1	0	1	0	1	1149.65	0.537742	0.537269	0.0124802	10	0.172019	11	0	17.5343	6.70523e-06
2	1	0	1	0	1	1152.25	0.550726	0.550298	0.0121992	10	0.172052	11	0	20.1312	6.71321e-06
2	0	0	1	0	1	1154.84	0.56371	0.56321	0.0131617	10	0.172086	11	0	22.7281	7.4128e-06
2	1	0	1	0	1	1157.44	0.576696	0.576224	0.0169474	10	0.172125	11	0	25.3251	9.76551e-06
2	1	0	1	0	1	1160.04	0.58968	0.589223	0.0218706	10	0.172174	11	0	27.922	1.28866e-05
2	1	0	1	0	1	1162.63	0.602664	0.60223	0.0308216	10	0.172242	11	0	30.5189	1.85617e-05
2	1	0	0	0	1	1165.23	0.615649	0.615207	0.0516297	10	0.172347	11	0	33.1158	3.1763e-05
2	1	0	1	0	1	1167.83	0.628633	0.628225	0.0949243	10	0.172532	11	0	35.7127	5.96338e-05
2	1	0	1	0	1	1170.43	0.641619	0.641164	0.179981	10	0.172877	11	0	38.3097	0.000115397
2	1	0	0	0	1	1173.02	0.654603	0.654196	0.332929	10	0.173525	11	0	40.9066	0.000217801
2	1	0	1	0	1	1175.62	0.667587	0.667136	0.589431	10	0.174701	11	0	43.5035	0.000393231
2	1	0	1	0	1	1178.22	0.680572	0.68015	0.962142	10	0.176687	11	0	46.1004	0.000654401
2	1	0	0	0	1	1180.81	0.693557	0.693169	1.45061	10	0.179785	11	0	48.6974	0.00100552
2	1	0	1	0	1	1183.15	0.694755	0.694292	1.43597	10	0.183453	11	0	51.0349	0.000996981
2	1	0	0	0	1	1185.75	0.681771	0.681339	0.943893	10	0.186515	11	0	53.6318	0.000643112
2	1	0	1	0	1	1188.34	0.668786	0.668331	0.574435	10	0.188441	11	0	56.2288	0.000383913
2	1	0	1	0	1	1190.94	0.655801	0.655322	0.328385	10	0.189589	11	0	58.8257	0.000215198
2	1	0	0	0	1	1193.54	0.642817	0.642365	0.171195	10	0.190219	11	0	61.4226	0.00010997
2	1	0	1	0	1	1196.13	0.629833	0.629377	0.0814951	10	0.190535	11	0	64.0195	5.12911e-05
2	1	0	1	0	1	1198.73	0.616848	0.616443	0.0359385	10	0.190681	11	0	66.6164	2.2154e-05
2	1	0	0	0	1	1201.33	0.603863	0.603434	0.0137057	10	0.190744	11	0	69.2134	8.27048e-06
2	1	0	1	0	1	1203.93	0.590878	0.590396	0.00423822	10	0.190765	11	0	71.8103	2.50223e-06
2	1	0	1	0	1	1206.52	0.577894	0.57745	-0.00178966	10	0.190766	11	0	0.4994	-1.03344e-06
2	0	0	1	0	1	1209.12	0.56491	0.564463	-0.00568546	10	0.190757	11	0	3.0963	-3.20923e-06
2	0	0	1	0	1	1211.72	0.551924	0.551461	-0.00691489	10	0.190741	11	0	5.6933	-3.81329e-06
2	1	0	1	0	1	1214.31	0.53894	0.538481	-0.00652181	10	0.190723	11	0	8.2902	-3.51188e-06
2	0	0	1	0	1	1216.91	0.525955	0.525515	-0.00822092	10	0.190702	11	0	10.8871	-4.32022e-06
2	0	0	0	0	1	1219.51	0.512971	0.512496	-0.00866295	10	0.190681	11	0	13.484	-4.43973e-06
2	1	0	1	0	1	1222.1	0.499987	0.49957	-0.0084643	10	0.190657	11	0	16.0809	-4.22851e-06
2	0	0	1	0	1	1224.7	0.487001	0.486561	-0.00985839	10	0.190633	11	0	18.6779	-4.79671e-06
2	0	0	0	0	1	1227.3	0.474017	0.473593	-0.00942387	10	0.190608	11	0	21.2748	-4.46309e-06
2	0	0	1	0	1	1229.89	0.461032	0.460541	-0.0107622	10	0.190582	11	0	23.8717	-4.95641e-06
2	0	0	1	0	0	1232.26	0.450844	0.450385	0.00971762	11	0.19056	11	0	0.1549	4.37667e-06
2	1	0	0	0	0	1234.86	0.463829	0.463402	0.0118019	11	0.190589	11	0	2.7518	5.46901e-06
2	1	0	1	0	0	1237.46	0.476813	0.476335	0.0116419	11	0.19062	11	0	5.3487	5.54546e-06
2	1	0	1	0	0	1240.05	0.489799	0.489334	0.0113202	11	0.19065	11	0	7.9457	5.53935e-06
2	1	0	0	0	0	1242.65	0.502783	0.502339	0.012122	11	0.190681	11	0	10.5426	6.08933e-06
2	1	0	1	0	0	1245.25	0.515768	0.515308	0.0110029	11	0.190711	11	0	13.1395	5.66988e-06
2	1	0	1	0	0	1247.84	0.528752	0.528278	0.0120544	11	0.190742	11	0	15.7364	6.36808e-06
2	1	0	1	0	0	1250.44	0.541736	0.54129	0.0116346	11	0.190773	11	0	18.3333	6.29771e-06
2	1	0	1	0	0	1253.04	0.554722	0.55431	0.0131516	11	0.190805	11	0	20.9303	7.29006e-06
2	1	0	1	0	0	1255.63	0.567706	0.567261	0.0141587	11	0.190841	11	0	23.5272	8.03166e-06
2	1	0	1	0	0	1258.23	0.58069	0.580213	0.0169657	11	0.190882	11	0	26.1241	9.84369e-06
2	1	0	0	0	0	1260.83	0.593675	0.593228	0.0237525	11	0.190935	11	0	28.721	1.40906e-05
2	1	0	1	0	0	1263.42	0.60666	0.60617	0.0364526	11	0.191011	11	0	31.318	2.20965e-05
2	1	0	1	0	0	1266.02	0.619645	0.61922	0.0621797	11	0.191135	11	0	33.9149	3.85029e-05
2	1	0	0	0	0	1268.62	0.632629	0.632187	0.114575	11	0.191356	11	0	36.5118	7.24331e-05
2	1	0	1	0	0	1271.22	0.645613	0.645152	0.21557	11	0.191772	11	0	39.1087	0.000139075
2	1	0	1	0	0	1273.81	0.658598	0.658151	0.397369	11	0.19255	11	0	41.7056	0.000261529
2	1	0	0	0	0	1276.41	0.671583	0.671115	0.677306	11	0.19392	11	0	44.3026	0.00045455
2	1	0	1	0	0	1279.01	0.684568	0.684151	1.07914	11	0.196191	11	0	46.8995	0.000738296
2	1	0	1	0	0	1281.6	0.697552	0.697097	1.56258	11	0.199636	11	0	49.4964	0.00108927
2	1	0	1	0	0	1283.94	0.69076	0.690302	1.24626	11	0.203014	11	0	51.834	0.0008603
2	1	0	1	0	0	1286.54	0.677775	0.677319	0.785672	11	0.205625	11	0	54.4309	0.000532151
2	1	0	0	0	0	1289.13	0.664791	0.664342	0.474225	11	0.207222	11	0	57.0278	0.000315047
2	1	0	1	0	0	1291.73	0.651807	0.651351	0.264867	11	0.208162	11	0	59.6247	0.000172521
2	1	0	1	0	0	1294.33	0.638821	0.638333	0.134242	11	0.208666	11	0	62.2217	8.56911e-05
2	1	0	0	0	0	1296.92	0.625837	0.625413	0.0635631	11	0.208912	11	0	64.8186	3.97532e-05
2	1	0	1	0	0	1299.52	0.612852	0.612385	0.0266272	11	0.209023	11	0	67.4155	1.63061e-05
2	1	0	1	0	0	1302.12	0.599868	0.599377	0.00980673	11	0.209068	11	0	70.0124	5.87793e-06
2	1	0	1	0	0	1304.72	0.586884	0.586434	0.00128879	11	0.209081	11	0	72.6093	7.55788e-07
2	1	0	1	0	0	1307.31	0.573898	0.573448	-0.00307941	11	0.209078	11	0	1.1986	-1.76588e-06
2	0	0	1	0	0	1309.91	0.560914	0.560456	-0.00523705	11	0.209066	11	0	3.7955	-2.93513e-06
2	0	0	1	0	0	1312.51	0.547929	0.547454	-0.00679738	11	0.20905	11	0	6.3924	-3.72125e-06
2	0	0	0	0	0	1315.1	0.534945	0.534491	-0.00807531	11	0.20903	11	0	8.9893	-4.31618e-06
2	1	0	1	0	0	1317.7	0.52196	0.521501	-0.0075628	11	0.20901	11	0	11.5863	-3.94401e-06
2	0	0	1	0	0	1320.3	0.508975	0.508519	-0.00922023	11	0.208987	11	0	14.1832	-4.68866e-06
2	1	0	0	0	0	1322.89	0.495991	0.495535	-0.00851173	11	0.208964	11	0	16.7801	-4.21786e-06
2	0	0	1	0	0	1325.49	0.483006	0.482534	-0.00980447	11	0.20894	11	0	19.377	-4.73099e-06
2	1	0	1	0	0	1328.09	0.470022	0.46951	-0.00954086	11	0.208914	11	0	21.9739	-4.47953e-06
2	0	0	0	0	0	1330.68	0.457037	0.456564	-0.0109217	11	0.208887	11	0	24.5709	-4.98644e-06
2	1	0	1	0	1	1333.05	0.454839	0.454365	0.0113227	12	0.208883	11	0	0.8989	5.14463e-06
2	1	0	1	0	1	1335.65	0.467825	0.467388	0.0120678	12	0.208913	11	0	3.4959	5.64034e-06
2	0	0	0	0	1	1338.25	0.480809	0.480358	0.0110607	12	0.208943	11	0	6.0928	5.31308e-06
2	1	0	1	0	1	1340.84	0.493793	0.493307	0.0110266	12	0.208974	11	0	8.6897	5.43948e-06
2	1	0	1	0	1	1343.44	0.506778	0.506291	0.0112932	12	0.209004	11	0	11.2866	5.71764e-06
2	1	0	0	0	1	1346.04	0.519763	0.519283	0.0118788	12	0.209034	11	0	13.8836	6.16844e-06
2	1	0	1	0	1	1348.63	0.532748	0.532241	0.0111054	12	0.209065	11	0	16.4805	5.91074e-06
2	0	0	1	0	1	1351.23	0.545732	0.545292	0.0116615	12	0.209096	11	0	19.0774	6.35891e-06
2	1	0	1	0	1	1353.83	0.558716	0.558258	0.0136749	12	0.20913	11	0	21.6743	7.63411e-06
2	1	0	1	0	1	1356.42	0.571702	0.57125	0.0155812	12	0.209166	11	0	24.2713	8.90077e-06
2	1	0	1	0	1	1359.02	0.584686	0.584233	0.0182702	12	0.20921	11	0	26.8682	1.0674e-05
2	1	0	1	0	1	1361.62	0.597671	0.597229	0.0265992	12	0.209268	11	0	29.4651	1.58858e-05
2	1	0	0	0	1	1364.21	0.610655	0.610192	0.0422632	12	0.209355	11	0	32.062	2.57887e-05
2	1	0	1	0	1	1366.81	0.623639	0.623184	0.0734802	12	0.209501	11	0	34.6589	4.57917e-05
2	1	0	1	0	1	1369.41	0.636625	0.636235	0.137518	12	0.209767	11	0	37.2559	8.74936e-05
2	1	0	0	0	1	1372.01	0.649609	0.649175	0.260716	12	0.210271	11	0	39.8528	0.00016925
2	1	0	1	0	1	1374.6	0.662594	0.662195	0.470913	12	0.211204	11	0	42.4497	0.000311836
2	1	0	1	0	1	1377.2	0.675578	0.675155	0.7857	12	0.212814	11	0	45.0466	0.00053047
2	1	0	1	0	1	1379.8	0.688562	0.688123	1.20948	12	0.215388	11	0	47.6435	0.000832273
2	1	0	1	0	1	1382.13	0.699749	0.699288	1.65354	12	0.21877	11	0	49.9811	0.0011563
2	1	0	0	0	1	1384.73	0.686765	0.686309	1.07632	12	0.22223	11	0	52.578	0.000738691
2	1	0	1	0	1	1387.33	0.673781	0.67334	0.685371	12	0.224496	11	0	55.1749	0.000461488
2	1	0	1	0	1	1389.92	0.660795	0.660349	0.401046	12	0.225882	11	0	57.7719	0.00026483
2	1	0	0	0	1	1392.52	0.647811	0.647344	0.217437	12	0.226668	11	0	60.3688	0.000140757
2	1	0	1	0	1	1395.12	0.634826	0.634396	0.106925	12	0.227074	11	0	62.9657	6.78325e-05
2	1	0	1	0	1	1397.71	0.621842	0.621361	0.048305	12	0.227266	11	0	65.5626	3.00148e-05
2	1	0	0	0	1	1400.31	0.608857	0.608407	0.0198156	12	0.227351	11	0	68.1596	1.2056e-05
2	1	0	1	0	1	1402.91	0.595872	0.595416	0.00630388	12	0.227384	11	0	70.7565	3.75343e-06
2	1	0	1	0	1	1405.51	0.582888	0.582503	0.000242422	12	0.22739	11	0	0.0999	1.41212e-07
2	1	0	1	0	1	1408.1	0.569903	0.569453	-0.00336988	12	0.227383	11	0	1.9976	-1.91899e-06
2	1	0	0	0	1	1410.7	0.556919	0.556442	-0.00555243	12	0.22737	11	0	4.5945	-3.08961e-06
2	0	0	1	0	1	1413.3	0.543934	0.543503	-0.00706089	12	0.227353	11	0	7.1915	-3.83761e-06
2	0	0	1	0	1	1415.89	0.530949	0.53049	-0.00813908	12	0.227333	11	0	9.7884	-4.3177e-06
2	0	0	0	0	1	1418.49	0.517965	0.517502	-0.0090564	12	0.227311	11	0	12.3853	-4.6867e-06
2	0	0	1	0	1	1421.09	0.504981	0.504489	-0.00897712	12	0.227289	11	0	14.9822	-4.52886e-06
2	1	0	1	0	1	1423.68	0.491995	0.491523	-0.00867875	12	0.227265	11	0	17.5792	-4.2658e-06
2	1	0	0	0	1	1426.28	0.479011	0.47853	-0.0090185	12	0.22724	11	0	20.1761	-4.31562e-06
2	0	0	1	0	1	1428.88	0.466026	0.465566	-0.0105645	12	0.227215	11	0	22.773	-4.91847e-06
2	0	0	1	0	1	1431.47	0.453042	0.452559	-0.011192	12	0.227188	11	0	25.3699	-5.06505e-06
2	0	0	0	0	0	1433.84	0.458835	0.458367	0.0105134	13	0.227201	11	0	1.753	4.81901e-06
2	0	0	1	0	0	1436.44	0.471819	0.471375	0.011036	13	0.227231	11	0	4.3499	5.20211e-06
2	0	0	1	0	0	1439.04	0.484804	0.484308	0.0111793	13	0.227262	11	0	6.9468	5.41425e-06
2	1	0	0	0	0	1441.63	0.497789	0.497294	0.01189	13	0.227292	11	0	9.5438	5.91284e-06
2	1	0	1	0	0	1444.23	0.510773	0.510322	0.0122249	13	0.227323	11	0	12.1407	6.23861e-06
2	1	0	1	0	0	1446.83	0.523758	0.523313	0.0118865	13	0.227353	11	0	14.7376	6.22036e-06
2	1	0	1	0	0	1449.42	0.536742	0.536302	0.0116103	13	0.227384	11	0	17.3345	6.22663e-06
2	1	0	1	0	0	1452.02	0.549728	0.549251	0.0119139	13	0.227415	11	0	19.9315	6.54371e-06
2	0	0	1	0	0	1454.62	0.562712	0.562284	0.0131362	13	0.227449	11	0	22.5284	7.38625e-06
2	0	0	1	0	0	1457.21	0.575696	0.575233	0.0152375	13	0.227488	11	0	25.1253	8.76513e-06
2	1	0	0	0	0	1459.81	0.588681	0.588231	0.0199368	13	0.227535	11	0	27.7222	1.17274e-05
2	1	0	1	0	0	1462.41	0.601665	0.601223	0.0296519	13	0.2276	11	0	30.3191	1.78274e-05
2	1	0	1	0	0	1465	0.614651	0.61422	0.0492269	13	0.2277	11	0	32.9161	3.02362e-05
2	1	0	0	0	0	1467.6	0.627635	0.627227	0.0890887	13	0.227873	11	0	35.513	5.58788e-05
2	1	0	1	0	0	1470.2	0.640619	0.640173	0.16803	13	0.228196	11	0	38.1099	0.000107568
2	1	0	1	0	0	1472.8	0.653604	0.653115	0.314443	13	0.228804	11	0	40.7068	0.000205367
2	1	0	1	0	0	1475.39	0.666588	0.666134	0.554123	13	0.229913	11	0	43.3037	0.00036912
2	1	0	1	0	0	1477.99	0.679574	0.679052	0.914183	13	0.231806	11	0	45.9007	0.000620778
2	1	0	1	0	0	1480.59	0.692558	0.692105	1.37447	13	0.234763	11	0	48.4976	0.000951278
2	1	0	1	0	0	1482.92	0.695754	0.695329	1.43064	13	0.238335	11	0	50.8352	0.000994766
2	1	0	1	0	0	1485.52	0.682769	0.682333	0.955453	13	0.241398	11	0	53.4321	0.000651937
2	1	0	0	0	0	1488.12	0.669785	0.669321	0.602895	13	0.243394	11	0	56.029	0.00040353
2	1	0	1	0	0	1490.71	0.6568	0.656394	0.342251	13	0.244596	11	0	58.6259	0.000224652
2	1	0	1	0	0	1493.31	0.643816	0.643336	0.17842	13	0.245253	11	0	61.2228	0.000114784
2	1	0	0	0	0	1495.91	0.630831	0.630382	0.0852922	13	0.245582	11	0	63.8198	5.37667e-05
2	1	0	1	0	0	1498.51	0.617846	0.617413	0.0384126	13	0.245735	11	0	66.4167	2.37164e-05
2	1	0	1	0	0	1501.1	0.604862	0.604398	0.0155267	13	0.2458	11	0	69.0136	9.38429e-06
2	1	0	1	0	0	1503.7	0.591877	0.591437	0.00462204	13	0.245822	11	0	71.6105	2.73365e-06
2	1	0	1	0	0	1506.3	0.578892	0.578443	-0.0014553	13	0.245824	11	0	0.4995	-8.41808e-07
2	1	0	1	0	0	1508.89	0.565908	0.565432	-0.00453079	13	0.245815	11	0	3.0964	-2.56185e-06
2	0	0	1	0	0	1511.49	0.552923	0.552477	-0.00606123	13	0.2458	11	0	5.6933	-3.34869e-06
2	0	0	0	0	0	1514.09	0.539939	0.539498	-0.00732777	13	0.245782	11	0	8.2902	-3.95332e-06
2	0	0	1	0	0	1516.68	0.526955	0.526483	-0.00839978	13	0.245761	11	0	10.8871	-4.42234e-06
2	0	0	1	0	0	1519.28	0.513969	0.513522	-0.00911853	13	0.24574	11	0	13.4841	-4.68256e-06
2	0	0	0	0	0	1521.88	0.500985	0.500511	-0.00920769	13	0.245717	11	0	16.081	-4.60855e-06
2	0	0	1	0	0	1524.47	0.488	0.487543	-0.0091384	13	0.245693	11	0	18.6779	-4.45536e-06
2	0	0	1	0	0	1527.07	0.475016	0.474558	-0.00988774	13	0.245668	11	0	21.2748	-4.69231e-06
2	0	0	1	0	0	1529.67	0.462032	0.461548	-0.0109235	13	0.245642	11	0	23.8717	-5.04174e-06
2	1	0	0	0	1	1532.08	0.450071	0.449668	0.00623672	14	0.245617	11	0	0.000000000000000E+000	2.80445e-06
2	1	0	1	0	1	1534.63	0.462831	0.462351	0.0114775	14	0.245645	11	0	2.5521	5.30666e-06
2	1	0	0	0	1	1537.23	0.475815	0.475323	0.011383	14	0.245676	11	0	5.149	5.41058e-06
2	1	0	1	0	1	1539.83	0.488799	0.488351	0.0116863	14	0.245706	11	0	7.7459	5.70703e-06
2	1	0	1	0	1	1542.42	0.501784	0.50126	0.0116109	14	0.245737	11	0	10.3428	5.82009e-06
2	1	0	1	0	1	1545.02	0.514768	0.514287	0.0112127	14	0.245767	11	0	12.9397	5.76653e-06
2	1	0	1	0	1	1547.62	0.527754	0.527304	0.0112348	14	0.245798	11	0	15.5367	5.92415e-06
2	1	0	1	0	1	1550.21	0.540738	0.540274	0.0113487	14	0.245829	11	0	18.1336	6.13144e-06
2	0	0	1	0	1	1552.81	0.553722	0.553282	0.0122121	14	0.245861	11	0	20.7305	6.75675e-06
2	0	0	0	0	1	1555.41	0.566707	0.566233	0.0137759	14	0.245896	11	0	23.3274	7.80036e-06
2	0	0	1	0	1	1558	0.579691	0.579212	0.0162839	14	0.245936	11	0	25.9243	9.43182e-06
2	1	0	1	0	1	1560.6	0.592676	0.592218	0.0219549	14	0.245987	11	0	28.5213	1.30021e-05
2	1	0	0	0	1	1563.2	0.605661	0.605213	0.03378	14	0.24606	11	0	31.1182	2.04441e-05
2	1	0	1	0	1	1565.79	0.618645	0.618194	0.0576171	14	0.246177	11	0	33.7151	3.56185e-05
2	1	0	1	0	1	1568.39	0.63163	0.631201	0.107292	14	0.246385	11	0	36.312	6.77225e-05
2	1	0	0	0	1	1570.99	0.644615	0.644161	0.205794	14	0.246779	11	0	38.909	0.000132565
2	1	0	1	0	1	1573.59	0.657599	0.657158	0.38242	14	0.247523	11	0	41.5059	0.00025131
2	1	0	1	0	1	1576.18	0.670584	0.670118	0.668265	14	0.248863	11	0	44.1028	0.000447817
2	1	0	1	0	1	1578.78	0.683568	0.683108	1.07255	14	0.251104	11	0	46.6997	0.000732667
2	1	0	1	0	1	1581.38	0.696554	0.696137	1.56983	14	0.254512	11	0	49.2967	0.00109281
2	1	0	0	0	1	1583.71	0.691759	0.691284	1.30849	14	0.258123	11	0	51.6342	0.000904536
2	1	0	1	0	1	1586.31	0.678774	0.678315	0.84141	14	0.260861	11	0	54.2311	0.000570741
2	1	0	1	0	1	1588.91	0.665789	0.665325	0.509462	14	0.262589	11	0	56.8281	0.000338958
2	1	0	0	0	1	1591.5	0.652805	0.652367	0.28008	14	0.263593	11	0	59.425	0.000182715
2	1	0	1	0	1	1594.1	0.63982	0.639407	0.143011	14	0.264125	11	0	62.0219	9.14421e-05
2	1	0	1	0	1	1596.7	0.626836	0.626357	0.0664891	14	0.264385	11	0	64.6188	4.16459e-05
2	1	0	1	0	1	1599.3	0.613852	0.613411	0.028599	14	0.264503	11	0	67.2157	1.75429e-05
2	1	0	1	0	1	1601.89	0.600866	0.600445	0.00995322	14	0.264551	11	0	69.8127	5.97636e-06
2	0	0	1	0	1	1604.49	0.587882	0.587425	0.00127178	14	0.264565	11	0	72.4096	7.47076e-07
2	0	0	1	0	1	1607.09	0.574897	0.574484	-0.00338413	14	0.264563	11	0	1.0987	-1.94413e-06
2	0	0	0	0	1	1609.68	0.561913	0.561428	-0.00602785	14	0.264552	11	0	3.6956	-3.3842e-06
2	0	0	1	0	1	1612.28	0.548929	0.548492	-0.00731224	14	0.264536	11	0	6.2925	-4.0107e-06
2	0	0	1	0	1	1614.88	0.535943	0.535479	-0.00795755	14	0.264517	11	0	8.8895	-4.2611e-06
2	0	0	0	0	1	1617.47	0.522959	0.522527	-0.00859658	14	0.264496	11	0	11.4864	-4.49194e-06
2	0	0	1	0	1	1620.07	0.509974	0.509557	-0.00919965	14	0.264474	11	0	14.0833	-4.68774e-06
2	0	0	1	0	1	1622.67	0.49699	0.496554	-0.00976515	14	0.264451	11	0	16.6802	-4.84892e-06
2	0	0	0	0	1	1625.26	0.484005	0.483575	-0.00994131	14	0.264427	11	0	19.2772	-4.80737e-06
2	0	0	1	0	1	1627.86	0.47102	0.47055	-0.0104542	14	0.264402	11	0	21.8741	-4.91925e-06
2	0	0	1	0	1	1630.46	0.458036	0.457597	-0.0111022	14	0.264375	11	0	24.471	-5.08032e-06
2	1	0	0	0	0	1632.82	0.453841	0.453403	0.0108615	15	0.264366	11	0	0.6992	4.92462e-06
2	1	0	1	0	0	1635.42	0.466825	0.466377	0.0116734	15	0.264396	11	0	3.2961	5.44421e-06
2	1	0	1	0	0	1638.02	0.47981	0.479364	0.0125742	15	0.264427	11	0	5.893	6.02762e-06
2	1	0	1	0	0	1640.62	0.492794	0.492317	0.0121733	15	0.264458	11	0	8.4899	5.99311e-06
2	1	0	1	0	0	1643.21	0.50578	0.505375	0.0122534	15	0.264488	11	0	11.0869	6.19258e-06
2	1	0	1	0	0	1645.81	0.518764	0.518355	0.0124106	15	0.264518	11	0	13.6838	6.43308e-06
2	1	0	1	0	0	1648.41	0.531748	0.531293	0.0123079	15	0.264549	11	0	16.2807	6.53911e-06
2	1	0	0	0	0	1651	0.544733	0.544306	0.0127317	15	0.26458	11	0	18.8776	6.92993e-06
2	1	0	1	0	0	1653.6	0.557717	0.557286	0.0136499	15	0.264613	11	0	21.4745	7.6069e-06
2	1	0	1	0	0	1656.2	0.570703	0.570231	0.0145417	15	0.264649	11	0	24.0715	8.29213e-06
2	1	0	0	0	0	1658.79	0.583687	0.583287	0.0176553	15	0.264692	11	0	26.6684	1.02981e-05
2	1	0	1	0	0	1661.39	0.596671	0.596182	0.0245194	15	0.264748	11	0	29.2653	1.4618e-05
2	1	0	1	0	0	1663.99	0.609656	0.609266	0.0390726	15	0.264831	11	0	31.8622	2.38056e-05
2	1	0	0	0	0	1666.58	0.622641	0.622186	0.0688812	15	0.264968	11	0	34.4592	4.28569e-05
2	1	0	1	0	0	1669.18	0.635626	0.635189	0.129428	15	0.265218	11	0	37.0561	8.22111e-05
2	1	0	1	0	0	1671.78	0.64861	0.648177	0.247827	15	0.265694	11	0	39.653	0.000160636
2	1	0	1	0	0	1674.38	0.661594	0.661167	0.455622	15	0.266589	11	0	42.2499	0.000301242
2	1	0	1	0	0	1676.97	0.67458	0.674146	0.771987	15	0.26816	11	0	44.8469	0.000520432
2	1	0	1	0	0	1679.57	0.687564	0.687078	1.20593	15	0.270704	11	0	47.4438	0.000828567
2	1	0	0	0	0	1682.05	0.699974	0.699461	1.73001	15	0.274327	11	0	49.9258	0.00121007
2	1	0	1	0	0	1684.5	0.687763	0.687289	1.15548	15	0.277797	11	0	52.3783	0.00079415
2	1	0	0	0	0	1687.1	0.674779	0.674354	0.722823	15	0.280208	11	0	54.9752	0.000487438
2	1	0	1	0	0	1689.7	0.661794	0.661366	0.428728	15	0.281676	11	0	57.5721	0.000283546
2	1	0	1	0	0	1692.29	0.64881	0.648376	0.229699	15	0.282506	11	0	60.169	0.000148931
2	1	0	1	0	0	1694.89	0.635826	0.635387	0.112169	15	0.282935	11	0	62.7659	7.12708e-05
2	1	0	1	0	0	1697.49	0.62284	0.622422	0.0513876	15	0.283137	11	0	65.3629	3.19848e-05
2	1	0	1	0	0	1700.09	0.609856	0.609382	0.0214153	15	0.283226	11	0	67.9598	1.30501e-05
2	0	0	1	0	0	1702.68	0.596871	0.596427	0.00645676	15	0.28326	11	0	70.5567	3.85099e-06
2	1	0	0	0	0	1705.28	0.583887	0.583412	-3.34128e-05	15	0.283267	11	0	0.1997	-1.94934e-08
2	1	0	1	0	0	1707.88	0.570902	0.57048	-0.00318569	15	0.283262	11	0	2.2973	-1.81737e-06
2	0	0	1	0	0	1710.47	0.557917	0.557453	-0.0059906	15	0.283249	11	0	4.8942	-3.33948e-06
2	0	0	0	0	0	1713.07	0.544933	0.544518	-0.00733101	15	0.283232	11	0	7.4911	-3.99187e-06
2	0	0	1	0	0	1715.67	0.531948	0.531504	-0.0075526	15	0.283212	11	0	10.088	-4.01423e-06
2	1	0	1	0	0	1718.26	0.518964	0.518555	-0.0078124	15	0.283191	11	0	12.6849	-4.05117e-06
2	1	0	0	0	0	1720.86	0.505979	0.505521	-0.00826913	15	0.283169	11	0	15.2819	-4.18022e-06
2	0	0	1	0	0	1723.46	0.492994	0.492495	-0.00920126	15	0.283146	11	0	17.8788	-4.53158e-06
2	0	0	1	0	0	1726.05	0.48001	0.479563	-0.00999393	15	0.283121	11	0	20.4757	-4.79272e-06
2	0	0	1	0	0	1728.65	0.467025	0.466586	-0.00920009	15	0.283096	11	0	23.0726	-4.29263e-06
2	0	0	1	0	0	1731.25	0.45404	0.453589	-0.0106441	15	0.283069	11	0	25.6696	-4.82804e-06
2	0	0	1	0	0	1732.05	0.450021	0.449554	-0.0112347	15	0.28306	11	0	26.4727	-5.0506e-06