File: ACS_Catal_2026/Figures_Na_K/main_figures/data/EC/20251112_2-148_alpha_reproducibility/20251112_2-148_003_alpha_Na_first_1_Na1_03_CVA_C01.mpt
EC-Lab ASCII FILE
Nb header lines : 66

Cyclic Voltammetry Advanced

Run on channel : 1 (SN 69187)
User :
CE vs. WE compliance from -10 V to 10 V
Electrode connection : standard
Potential control : Ewe
Ewe ctrl range : min = -1.00 V, max = 1.00 V
Safety Limits :
	Do not start on E overload
Acquisition started on : 11/12/2025 15:46:22.293
Loaded Setting File :  C:\Users\User\Documents\EC-Lab\Data\Yatsuzuka\20251030_2-147_gamma_reproducibility\20251030_2-147_001_gamma1_K_1.mps
Saved on :
	File : 20251112_2-148_003_alpha_Na_first_1_Na1_03_CVA_C01.mpr
	Directory : C:\Users\User\Documents\EC-Lab\Data\Yatsuzuka\20251112_2-148_alpha_reproducibility\
	Host : 192.109.209.127
Device : SP-150e (SN .003883)
Address : 192.109.209.128
EC-Lab for windows v11.52 (software)
Internet server v11.52 (firmware)
Command interpretor v11.50 (firmware)
Electrode material :
Initial state :
Electrolyte :
Comments :
Electrode surface area : 0.001 cm2
Characteristic mass : 0.001 g
Equivalent Weight : 0.000 g/eq.
Density : 0.000 g/cm3
Volume (V) : 0.001 cm3
Cycle Definition : Charge/Discharge alternance
Ei (V)              0.450
vs.                 Ref
ti (h:m:s)          0:00:10.0000
dti (s)             0.0000
dE/dt               5.000
dE/dt unit          mV/s
E1 (V)              0.700
vs.                 Ref
t1 (h:m:s)          0:00:0.0000
dt1 (s)             0.1000
Step percent        50
N                   10
E range min (V)     -1.000
E range max (V)     1.000
I Range             10 mA
I Range min         Unset
I Range max         Unset
I Range init        Unset
Bandwidth           5
E2 (V)              0.450
vs.                 Ref
t2 (h:m:s)          0:00:0.0000
dt2 (s)             0.1000
nc cycles           14
nr                  1
Reverse Scan        0
Ef (V)              0.000
vs.                 Eoc
tf (h:m:s)          0:00:0.0000
dtf (s)             0.1000

mode	ox/red	error	control changes	Ns changes	counter inc.	time/s	control/V	Ewe/V	<I>/mA	cycle number	(Q-Qo)/C	I Range	Ns	step time/s	P/W
2	1	0	1	0	0	231.75	0.449961	0.449773	0.0118975	1	0.0000000E+000	11	0	0.000000000000000E+000	5.35119e-06
2	1	0	1	0	0	234.302	0.462718	0.462489	0.0191867	1	5.01139e-05	11	0	2.4965	8.87365e-06
2	1	0	1	0	0	236.898	0.4757	0.475498	0.0250183	1	0.000105494	11	0	5.0929	1.18962e-05
2	1	0	1	0	0	239.495	0.488682	0.488484	0.0232796	1	0.000165882	11	0	7.6893	1.13717e-05
2	1	0	1	0	0	242.091	0.501664	0.501428	0.0247179	1	0.000233034	11	0	10.2857	1.23943e-05
2	1	0	1	0	0	244.687	0.514646	0.514417	0.0328026	1	0.000308445	11	0	12.8821	1.68742e-05
2	1	0	1	0	0	247.284	0.527628	0.527467	0.0349007	1	0.000393417	11	0	15.4785	1.8409e-05
2	1	0	1	0	0	249.88	0.54061	0.540359	0.0371156	1	0.000490131	11	0	18.0749	2.00558e-05
2	1	0	1	0	0	252.477	0.553592	0.553362	0.047024	1	0.000601013	11	0	20.6713	2.60213e-05
2	1	0	1	0	0	255.073	0.566574	0.566351	0.0545184	1	0.000728857	11	0	23.2677	3.08765e-05
2	1	0	1	0	0	257.669	0.579556	0.579315	0.0600785	1	0.000878273	11	0	25.8641	3.48044e-05
2	1	0	1	0	0	260.266	0.592538	0.592245	0.0750947	1	0.0010567	11	0	28.4605	4.44744e-05
2	1	0	1	0	0	262.862	0.60552	0.605351	0.0957332	1	0.00127525	11	0	31.0569	5.79522e-05
2	1	0	1	0	0	265.459	0.618502	0.618311	0.118188	1	0.00155058	11	0	33.6533	7.30772e-05
2	1	0	1	0	0	268.055	0.631484	0.631235	0.157637	1	0.00190771	11	0	36.2497	9.95061e-05
2	1	0	1	0	0	270.651	0.644466	0.644263	0.214684	1	0.00238518	11	0	38.8461	0.000138313
2	1	0	1	0	0	273.248	0.657448	0.657217	0.294263	1	0.00304093	11	0	41.4425	0.000193395
2	1	0	1	0	0	275.844	0.67043	0.670191	0.420286	1	0.00395947	11	0	44.0389	0.000281672
2	1	0	1	0	0	278.441	0.683412	0.683221	0.592166	1	0.00526152	11	0	46.6353	0.00040458
2	1	0	1	0	0	281.037	0.696394	0.696151	0.825747	1	0.00709208	11	0	49.2317	0.000574845
2	1	0	1	0	0	283.416	0.691701	0.691464	0.674427	1	0.00900438	11	0	51.6106	0.000466342
2	1	0	1	0	0	286.012	0.678719	0.678485	0.431367	1	0.0104174	11	0	54.207	0.000292676
2	1	0	1	0	0	288.609	0.665737	0.665514	0.26665	1	0.0113102	11	0	56.8034	0.000177459
2	1	0	1	0	0	291.205	0.652754	0.652499	0.164055	1	0.0118617	11	0	59.3998	0.000107046
2	1	0	1	0	0	293.801	0.639773	0.63955	0.100138	1	0.0121945	11	0	61.9962	6.4043e-05
2	1	0	1	0	0	296.398	0.626791	0.626561	0.058356	1	0.0123903	11	0	64.5926	3.65636e-05
2	1	0	1	0	0	298.994	0.613809	0.61359	0.0299328	1	0.0125016	11	0	67.189	1.83665e-05
2	1	0	1	0	0	301.591	0.600827	0.600591	0.0132803	1	0.0125609	11	0	69.7854	7.97605e-06
2	1	0	1	0	0	304.187	0.587845	0.587622	0.00462919	1	0.0125887	11	0	72.3818	2.72022e-06
2	1	0	1	0	0	306.783	0.574863	0.574622	0.000714405	1	0.012597	11	0	74.9782	4.10513e-07
2	1	0	1	0	0	309.38	0.561881	0.561667	-0.00200249	1	0.0125934	11	0	1.7975	-1.12473e-06
2	1	0	1	0	0	311.976	0.548899	0.548648	-0.00414976	1	0.0125821	11	0	4.3939	-2.27676e-06
2	1	0	1	0	0	314.573	0.535917	0.535713	-0.00576523	1	0.0125657	11	0	6.9903	-3.08851e-06
2	0	0	1	0	0	317.169	0.522935	0.522679	-0.0059386	1	0.0125456	11	0	9.5867	-3.10398e-06
2	0	0	1	0	0	319.765	0.509953	0.509693	-0.0104659	1	0.0125224	11	0	12.1831	-5.3344e-06
2	0	0	1	0	0	322.362	0.496971	0.496706	-0.0126946	1	0.0124967	11	0	14.7795	-6.30549e-06
2	0	0	1	0	0	324.958	0.483989	0.483737	-0.0135459	1	0.0124689	11	0	17.3759	-6.55263e-06
2	0	0	1	0	0	327.555	0.471007	0.470777	-0.0143609	1	0.012439	11	0	19.9723	-6.76076e-06
2	0	0	1	0	0	330.151	0.458025	0.457799	-0.0153053	1	0.012407	11	0	22.5687	-7.00674e-06
2	1	0	1	0	1	332.605	0.45428	0.454025	0.0132892	2	0.0123975	11	0	0.7989	6.03363e-06
2	1	0	1	0	1	335.201	0.467262	0.467	0.0135536	2	0.012437	11	0	3.3953	6.32952e-06
2	1	0	1	0	1	337.798	0.480244	0.480013	0.0131719	2	0.0124776	11	0	5.9917	6.32269e-06
2	1	0	1	0	1	340.394	0.493226	0.492991	0.01314	2	0.0125185	11	0	8.5881	6.4779e-06
2	1	0	1	0	1	342.99	0.506208	0.505964	0.0137784	2	0.0125595	11	0	11.1845	6.97137e-06
2	0	0	1	0	1	345.587	0.51919	0.518971	0.0156849	2	0.0126011	11	0	13.7809	8.14001e-06
2	1	0	1	0	1	348.183	0.532172	0.531933	0.0189703	2	0.0126436	11	0	16.3773	1.00909e-05
2	1	0	1	0	1	350.78	0.545154	0.544944	0.0193267	2	0.0126874	11	0	18.9737	1.0532e-05
2	1	0	1	0	1	353.376	0.558136	0.557903	0.018046	2	0.0127339	11	0	21.5701	1.00679e-05
2	1	0	1	0	1	355.972	0.571118	0.570908	0.0184571	2	0.0127853	11	0	24.1665	1.05373e-05
2	1	0	1	0	1	358.569	0.5841	0.583883	0.0236319	2	0.0128453	11	0	26.7629	1.37983e-05
2	1	0	1	0	1	361.165	0.597082	0.596844	0.0338905	2	0.0129197	11	0	29.3593	2.02273e-05
2	1	0	1	0	1	363.762	0.610064	0.609866	0.0466287	2	0.013018	11	0	31.9557	2.84372e-05
2	1	0	1	0	1	366.358	0.623046	0.622824	0.0636392	2	0.0131565	11	0	34.5521	3.9636e-05
2	1	0	1	0	1	368.954	0.636028	0.635813	0.093529	2	0.0133611	11	0	37.1485	5.9467e-05
2	1	0	1	0	1	371.551	0.64901	0.648851	0.148192	2	0.013673	11	0	39.7449	9.61547e-05
2	1	0	1	0	1	374.147	0.661992	0.661742	0.232398	2	0.0141564	11	0	42.3413	0.000153788
2	1	0	1	0	1	376.744	0.674974	0.674695	0.356362	2	0.0149057	11	0	44.9377	0.000240436
2	1	0	1	0	1	379.34	0.687956	0.687801	0.537319	2	0.0160518	11	0	47.5341	0.000369568
2	1	0	0	0	1	381.754	0.699964	0.699688	0.775207	2	0.0176167	11	0	49.948	0.000542403
2	1	0	1	0	1	384.305	0.687207	0.686987	0.487974	2	0.0191728	11	0	52.4995	0.000335232
2	1	0	1	0	1	386.902	0.674224	0.674011	0.305988	2	0.0201797	11	0	55.0959	0.000206239
2	1	0	1	0	1	389.498	0.661242	0.660959	0.185525	2	0.0208045	11	0	57.6923	0.000122624
2	1	0	1	0	1	392.095	0.64826	0.64805	0.107933	2	0.02118	11	0	60.2887	6.99457e-05
2	1	0	1	0	1	394.691	0.635278	0.635065	0.0612253	2	0.0213992	11	0	62.8851	3.8882e-05
2	1	0	1	0	1	397.287	0.622297	0.622076	0.0338251	2	0.0215221	11	0	65.4815	2.10418e-05
2	1	0	1	0	1	399.884	0.609314	0.609128	0.0192811	2	0.0215861	11	0	68.0779	1.17447e-05
2	1	0	1	0	1	402.48	0.596332	0.596089	0.00649119	2	0.0216142	11	0	70.6743	3.86933e-06
2	0	0	1	0	1	405.077	0.58335	0.583079	-0.00314995	2	0.0216205	11	0	0.0999	-1.83667e-06
2	0	0	1	0	1	407.673	0.570368	0.570186	-0.00382873	2	0.0216137	11	0	2.6963	-2.18309e-06
2	1	0	1	0	1	410.269	0.557387	0.557199	-0.00479393	2	0.0215988	11	0	5.2927	-2.67117e-06
2	0	0	1	0	1	412.866	0.544404	0.544186	-0.0108496	2	0.0215787	11	0	7.8891	-5.90422e-06
2	0	0	1	0	1	415.462	0.531423	0.531199	-0.0096121	2	0.0215551	11	0	10.4855	-5.10594e-06
2	0	0	1	0	1	418.059	0.51844	0.518215	-0.00801029	2	0.0215292	11	0	13.0819	-4.15105e-06
2	0	0	1	0	1	420.655	0.505458	0.505159	-0.00851362	2	0.0215014	11	0	15.6783	-4.30073e-06
2	0	0	1	0	1	423.251	0.492476	0.49227	-0.0101296	2	0.0214718	11	0	18.2747	-4.98652e-06
2	0	0	1	0	1	425.848	0.479494	0.479259	-0.0110251	2	0.0214407	11	0	20.8711	-5.28386e-06
2	0	0	1	0	1	428.444	0.466513	0.466278	-0.0108145	2	0.0214082	11	0	23.4675	-5.04256e-06
2	0	0	1	0	1	431.041	0.45353	0.453336	-0.0107832	2	0.0213743	11	0	26.0639	-4.88844e-06
2	1	0	1	0	0	433.494	0.458774	0.458505	0.0139873	3	0.0213875	11	0	1.6977	6.41323e-06
2	1	0	1	0	0	436.091	0.471756	0.471513	0.0131273	3	0.0214246	11	0	4.2941	6.1897e-06
2	1	0	1	0	0	438.687	0.484738	0.484523	0.0120916	3	0.0214624	11	0	6.8905	5.85865e-06
2	1	0	1	0	0	441.284	0.49772	0.497488	0.0140234	3	0.0215003	11	0	9.4869	6.97645e-06
2	1	0	1	0	0	443.88	0.510702	0.510441	0.0158551	3	0.0215381	11	0	12.0833	8.09311e-06
2	1	0	1	0	0	446.476	0.523684	0.523455	0.0163026	3	0.0215761	11	0	14.6797	8.53368e-06
2	1	0	1	0	0	449.073	0.536666	0.536415	0.0166487	3	0.0216148	11	0	17.2761	8.93063e-06
2	1	0	1	0	0	451.669	0.549648	0.549425	0.01759	3	0.021655	11	0	19.8725	9.66437e-06
2	1	0	1	0	0	454.266	0.56263	0.56239	0.0195346	3	0.0216981	11	0	22.4689	1.0986e-05
2	1	0	1	0	0	456.862	0.575612	0.575333	0.0221428	3	0.0217459	11	0	25.0653	1.27395e-05
2	1	0	1	0	0	459.458	0.588594	0.588366	0.0263665	3	0.0218024	11	0	27.6617	1.55131e-05
2	1	0	1	0	0	462.055	0.601576	0.601339	0.0336234	3	0.0218736	11	0	30.2581	2.02191e-05
2	1	0	1	0	0	464.651	0.614558	0.614349	0.0459054	3	0.0219695	11	0	32.8545	2.8202e-05
2	1	0	1	0	0	467.248	0.62754	0.627324	0.0662609	3	0.0221067	11	0	35.4509	4.1567e-05
2	1	0	1	0	0	469.844	0.640522	0.640303	0.0997126	3	0.0223128	11	0	38.0473	6.38463e-05
2	1	0	1	0	0	472.44	0.653504	0.653304	0.153306	3	0.0226316	11	0	40.6437	0.000100155
2	1	0	1	0	0	475.037	0.666486	0.666281	0.238981	3	0.0231313	11	0	43.2401	0.000159229
2	1	0	1	0	0	477.633	0.679468	0.679225	0.371279	3	0.0239127	11	0	45.8365	0.000252182
2	1	0	1	0	0	480.23	0.69245	0.69221	0.563525	3	0.0251145	11	0	48.4329	0.000390078
2	1	0	1	0	0	482.599	0.695695	0.695464	0.601185	3	0.0266309	11	0	50.8018	0.000418103
2	1	0	1	0	0	485.195	0.682713	0.682491	0.379499	3	0.0278802	11	0	53.3982	0.000259005
2	1	0	1	0	0	487.791	0.669731	0.669511	0.236407	3	0.0286596	11	0	55.9946	0.000158277
2	1	0	1	0	0	490.388	0.656749	0.656591	0.142341	3	0.0291361	11	0	58.591	9.34598e-05
2	1	0	1	0	0	492.984	0.643767	0.643561	0.0839068	3	0.029417	11	0	61.1874	5.39991e-05
2	1	0	1	0	0	495.581	0.630785	0.630559	0.0476415	3	0.0295772	11	0	63.7838	3.00407e-05
2	1	0	1	0	0	498.177	0.617803	0.617537	0.0246579	3	0.0296632	11	0	66.3802	1.52272e-05
2	1	0	1	0	0	500.773	0.604821	0.604598	0.00952233	3	0.0297042	11	0	68.9766	5.75718e-06
2	1	0	1	0	0	503.37	0.591839	0.591619	-0.000330255	3	0.0297181	11	0	71.573	-1.95385e-07
2	0	0	1	0	0	505.966	0.578857	0.578615	-0.00474698	3	0.0297156	11	0	1.4979	-2.74667e-06
2	0	0	1	0	0	508.563	0.565875	0.565709	-0.0051132	3	0.0297029	11	0	4.0943	-2.89258e-06
2	1	0	1	0	0	511.159	0.552893	0.552675	-0.00559567	3	0.0296841	11	0	6.6907	-3.09259e-06
2	0	0	1	0	0	513.755	0.539911	0.539667	-0.00991926	3	0.0296613	11	0	9.2871	-5.35309e-06
2	0	0	1	0	0	516.352	0.526929	0.526748	-0.0123182	3	0.0296359	11	0	11.8835	-6.48857e-06
2	0	0	1	0	0	518.948	0.513947	0.513733	-0.0133535	3	0.0296084	11	0	14.4799	-6.86014e-06
2	0	0	1	0	0	521.545	0.500965	0.500701	-0.011739	3	0.0295793	11	0	17.0763	-5.87774e-06
2	0	0	1	0	0	524.141	0.487983	0.487825	-0.00938473	3	0.0295491	11	0	19.6727	-4.5781e-06
2	1	0	1	0	0	526.737	0.475001	0.474759	-0.00983363	3	0.0295175	11	0	22.2691	-4.66861e-06
2	1	0	1	0	0	529.334	0.462019	0.461769	-0.0128245	3	0.0294843	11	0	24.8655	-5.92195e-06
2	1	0	1	0	1	531.788	0.450285	0.450042	0.00666444	4	0.0294525	11	0	0.000000000000000E+000	2.99928e-06
2	1	0	1	0	1	534.384	0.463267	0.463027	0.0111312	4	0.0294867	11	0	2.5964	5.15405e-06
2	1	0	1	0	1	536.98	0.476249	0.476024	0.0127652	4	0.029523	11	0	5.1928	6.07654e-06
2	1	0	1	0	1	539.577	0.489231	0.489044	0.0162764	4	0.0295595	11	0	7.7892	7.95988e-06
2	1	0	1	0	1	542.173	0.502213	0.501994	0.0162896	4	0.0295958	11	0	10.3856	8.1773e-06
2	1	0	1	0	1	544.77	0.515195	0.514965	0.0132665	4	0.0296323	11	0	12.982	6.83178e-06
2	1	0	1	0	1	547.366	0.528177	0.527954	0.0117956	4	0.0296692	11	0	15.5784	6.22755e-06
2	1	0	1	0	1	549.962	0.541159	0.540886	0.0157107	4	0.0297066	11	0	18.1748	8.49767e-06
2	1	0	1	0	1	552.559	0.554141	0.553877	0.0170125	4	0.0297457	11	0	20.7712	9.42283e-06
2	1	0	1	0	1	555.155	0.567123	0.566938	0.0142985	4	0.0297877	11	0	23.3676	8.10636e-06
2	1	0	1	0	1	557.752	0.580105	0.579904	0.020871	4	0.0298353	11	0	25.964	1.21032e-05
2	1	0	1	0	1	560.348	0.593087	0.592889	0.0258709	4	0.0298921	11	0	28.5604	1.53386e-05
2	1	0	1	0	1	562.944	0.606069	0.605872	0.0298098	4	0.0299648	11	0	31.1568	1.80609e-05
2	1	0	1	0	1	565.541	0.619051	0.618838	0.0475903	4	0.0300648	11	0	33.7532	2.94507e-05
2	1	0	1	0	1	568.137	0.632033	0.631857	0.0669382	4	0.0302103	11	0	36.3496	4.22954e-05
2	1	0	1	0	1	570.734	0.645015	0.644836	0.105034	4	0.0304311	11	0	38.946	6.77299e-05
2	1	0	1	0	1	573.33	0.657997	0.657757	0.166265	4	0.0307754	11	0	41.5424	0.000109362
2	1	0	1	0	1	575.926	0.670979	0.670781	0.257966	4	0.0313191	11	0	44.1388	0.000173039
2	1	0	1	0	1	578.523	0.683961	0.683775	0.404596	4	0.0321706	11	0	46.7352	0.000276652
2	1	0	1	0	1	581.119	0.696943	0.696691	0.616386	4	0.0334797	11	0	49.3316	0.000429431
2	1	0	0	0	1	583.488	0.691201	0.690959	0.486435	4	0.034872	11	0	51.7006	0.000336107
2	1	0	0	0	1	586.085	0.678219	0.678019	0.301167	4	0.0358774	11	0	54.297	0.000204197
2	1	0	0	0	1	588.681	0.665237	0.664995	0.181867	4	0.0364962	11	0	56.8934	0.000120941
2	1	0	0	0	1	591.277	0.652255	0.652021	0.110621	4	0.0368673	11	0	59.4898	7.21273e-05
2	1	0	0	0	1	593.874	0.639273	0.639072	0.0598399	4	0.0370823	11	0	62.0862	3.8242e-05
2	1	0	0	0	1	596.47	0.626291	0.626068	0.0328789	4	0.0372016	11	0	64.6826	2.05844e-05
2	1	0	0	0	1	599.067	0.613309	0.613095	0.0177062	4	0.0372629	11	0	67.279	1.08556e-05
2	0	0	0	0	1	601.663	0.600327	0.600133	0.0028368	4	0.0372886	11	0	69.8754	1.70246e-06
2	1	0	0	0	1	604.259	0.587345	0.587132	0.00117674	4	0.0372931	11	0	0.4993	6.909e-07
2	1	0	0	0	1	606.856	0.574363	0.574122	-0.00492545	4	0.0372848	11	0	3.0957	-2.82781e-06
2	0	0	0	0	1	609.452	0.561381	0.561155	-0.00956246	4	0.0372686	11	0	5.6921	-5.36602e-06
2	0	0	0	0	1	612.049	0.548399	0.548199	-0.00785852	4	0.0372474	11	0	8.2885	-4.30803e-06
2	1	0	0	0	1	614.645	0.535417	0.535189	-0.00816613	4	0.037223	11	0	10.8849	-4.37043e-06
2	0	0	0	0	1	617.241	0.522435	0.522234	-0.012927	4	0.0371963	11	0	13.4813	-6.75091e-06
2	0	0	0	0	1	619.838	0.509453	0.509222	-0.0114463	4	0.0371681	11	0	16.0777	-5.8287e-06
2	0	0	0	0	1	622.434	0.496471	0.496293	-0.00897728	4	0.0371384	11	0	18.6741	-4.45536e-06
2	0	0	0	0	1	625.031	0.483489	0.483227	-0.0132077	4	0.0371073	11	0	21.2705	-6.38233e-06
2	0	0	0	0	1	627.627	0.470507	0.47025	-0.0151214	4	0.037075	11	0	23.8669	-7.11085e-06
2	0	0	0	0	1	630.223	0.457525	0.457321	-0.0121027	4	0.0370414	11	0	26.4633	-5.5348e-06
2	1	0	0	0	0	632.677	0.454779	0.454551	0.0142026	5	0.0370323	11	0	0.8988	6.45579e-06
2	1	0	0	0	0	635.274	0.467761	0.46753	0.0154294	5	0.0370671	11	0	3.4952	7.21372e-06
2	1	0	0	0	0	637.87	0.480743	0.480516	0.0121233	5	0.0371027	11	0	6.0916	5.82546e-06
2	0	0	0	0	0	640.466	0.493725	0.493479	0.0113577	5	0.0371385	11	0	8.688	5.60478e-06
2	1	0	0	0	0	643.063	0.506707	0.506459	0.0149925	5	0.0371741	11	0	11.2844	7.59309e-06
2	1	0	0	0	0	645.659	0.519689	0.519466	0.0139967	5	0.0372098	11	0	13.8808	7.27082e-06
2	0	0	0	0	0	648.256	0.532671	0.532435	0.0135103	5	0.037246	11	0	16.4772	7.19336e-06
2	1	0	0	0	0	650.852	0.545653	0.545476	0.0119175	5	0.0372832	11	0	19.0736	6.5007e-06
2	1	0	0	0	0	653.448	0.558635	0.558477	0.0130112	5	0.037322	11	0	21.67	7.26646e-06
2	1	0	0	0	0	656.045	0.571617	0.57141	0.014617	5	0.0373641	11	0	24.2664	8.3523e-06
2	1	0	0	0	0	658.641	0.584599	0.584411	0.0177727	5	0.0374123	11	0	26.8628	1.03866e-05
2	1	0	0	0	0	661.238	0.597581	0.597328	0.0247279	5	0.0374712	11	0	29.4592	1.47707e-05
2	1	0	0	0	0	663.834	0.610563	0.610396	0.0361284	5	0.037548	11	0	32.0556	2.20526e-05
2	1	0	0	0	0	666.43	0.623545	0.623361	0.0518079	5	0.0376552	11	0	34.652	3.2295e-05
2	1	0	0	0	0	669.027	0.636527	0.636297	0.0749589	5	0.0378134	11	0	37.2484	4.76961e-05
2	1	0	0	0	0	671.623	0.649509	0.649363	0.113531	5	0.0380566	11	0	39.8448	7.3723e-05
2	1	0	0	0	0	674.22	0.662491	0.662291	0.182292	5	0.0384385	11	0	42.4412	0.00012073
2	1	0	0	0	0	676.816	0.675473	0.675254	0.291468	5	0.0390421	11	0	45.0376	0.000196815
2	1	0	0	0	0	679.412	0.688455	0.688224	0.448024	5	0.0399882	11	0	47.634	0.00030834
2	1	0	1	0	0	681.781	0.69969	0.699452	0.632563	5	0.0412824	11	0	50.0029	0.000442447
2	1	0	1	0	0	684.378	0.686708	0.68652	0.396235	5	0.0425881	11	0	52.5993	0.000272024
2	1	0	1	0	0	686.974	0.673726	0.673533	0.23962	5	0.043398	11	0	55.1957	0.000161392
2	1	0	1	0	0	689.57	0.660744	0.660493	0.145301	5	0.0438907	11	0	57.7921	9.59705e-05
2	1	0	1	0	0	692.167	0.647762	0.647594	0.0866824	5	0.044182	11	0	60.3885	5.6135e-05
2	1	0	1	0	0	694.763	0.63478	0.634588	0.0445547	5	0.0443481	11	0	62.9849	2.82738e-05
2	1	0	1	0	0	697.36	0.621798	0.621591	0.0218381	5	0.0444373	11	0	65.5813	1.35743e-05
2	1	0	1	0	0	699.956	0.608816	0.60857	0.00790474	5	0.0444801	11	0	68.1777	4.81059e-06
2	1	0	1	0	0	702.552	0.595834	0.595625	0.00010837	5	0.0444948	11	0	70.7741	6.45478e-08
2	1	0	1	0	0	705.149	0.582852	0.582634	-0.00256743	5	0.0444925	11	0	1.4979	-1.49587e-06
2	1	0	1	0	0	707.745	0.56987	0.569687	-0.00462317	5	0.0444798	11	0	4.0943	-2.63376e-06
2	1	0	1	0	0	710.342	0.556888	0.55665	-0.00588511	5	0.0444608	11	0	6.6907	-3.27595e-06
2	1	0	1	0	0	712.938	0.543906	0.543659	-0.00672417	5	0.044438	11	0	9.2871	-3.65565e-06
2	1	0	1	0	0	715.534	0.530924	0.530703	-0.00766097	5	0.0444124	11	0	11.8835	-4.0657e-06
2	1	0	1	0	0	718.131	0.517942	0.517735	-0.008716	5	0.0443849	11	0	14.4799	-4.51257e-06
2	1	0	1	0	0	720.727	0.50496	0.504674	-0.00942144	5	0.0443559	11	0	17.0763	-4.75475e-06
2	1	0	1	0	0	723.324	0.491978	0.491766	-0.0103232	5	0.0443258	11	0	19.6727	-5.07662e-06
2	0	0	1	0	0	725.92	0.478996	0.478781	-0.0130802	5	0.0442943	11	0	22.2691	-6.26254e-06
2	0	0	1	0	0	728.516	0.466014	0.465783	-0.0153704	5	0.0442614	11	0	24.8655	-7.15926e-06
2	0	0	1	0	0	731.113	0.453032	0.45282	-0.0152404	5	0.0442272	11	0	27.4619	-6.90115e-06
2	0	0	1	0	1	733.567	0.459273	0.459043	0.0106321	6	0.0442418	11	0	1.7975	4.88059e-06
2	0	0	1	0	1	736.163	0.472255	0.47204	0.0131931	6	0.0442768	11	0	4.3939	6.22767e-06
2	1	0	1	0	1	738.759	0.485237	0.485007	0.0154301	6	0.0443121	11	0	6.9903	7.4837e-06
2	1	0	1	0	1	741.356	0.498219	0.498002	0.0159282	6	0.0443473	11	0	9.5867	7.93228e-06
2	1	0	1	0	1	743.952	0.511201	0.510979	0.0158344	6	0.0443825	11	0	12.1831	8.09103e-06
2	1	0	1	0	1	746.549	0.524183	0.523947	0.0149766	6	0.0444178	11	0	14.7795	7.84692e-06
2	1	0	1	0	1	749.145	0.537165	0.536917	0.0132717	6	0.0444534	11	0	17.3759	7.1258e-06
2	1	0	1	0	1	751.741	0.550147	0.549933	0.0119957	6	0.0444901	11	0	19.9723	6.59685e-06
2	1	0	1	0	1	754.338	0.563129	0.562886	0.0129477	6	0.044529	11	0	22.5687	7.28807e-06
2	1	0	1	0	1	756.934	0.576111	0.575855	0.0150323	6	0.0445718	11	0	25.1651	8.65644e-06
2	1	0	1	0	1	759.531	0.589093	0.588894	0.0185841	6	0.0446215	11	0	27.7615	1.09441e-05
2	1	0	1	0	1	762.127	0.602075	0.601835	0.0251191	6	0.0446832	11	0	30.3579	1.51176e-05
2	1	0	1	0	1	764.723	0.615057	0.614863	0.0357596	6	0.0447655	11	0	32.9543	2.19872e-05
2	1	0	1	0	1	767.32	0.628039	0.627849	0.0530678	6	0.0448824	11	0	35.5507	3.33185e-05
2	1	0	1	0	1	769.916	0.641021	0.640772	0.0815178	6	0.0450573	11	0	38.1471	5.22343e-05
2	1	0	1	0	1	772.513	0.654003	0.653838	0.128709	6	0.0453287	11	0	40.7435	8.41549e-05
2	1	0	1	0	1	775.109	0.666985	0.666755	0.203974	6	0.0457573	11	0	43.3399	0.000136001
2	1	0	1	0	1	777.705	0.679966	0.679718	0.321488	6	0.0464349	11	0	45.9363	0.000218521
2	1	0	1	0	1	780.302	0.692949	0.692712	0.49834	6	0.0474897	11	0	48.5327	0.000345206
2	1	0	1	0	1	782.671	0.695196	0.694983	0.51883	6	0.0488208	11	0	50.9017	0.000360578
2	1	0	1	0	1	785.267	0.682213	0.682048	0.323474	6	0.0498908	11	0	53.4981	0.000220625
2	1	0	1	0	1	787.864	0.669231	0.668998	0.19751	6	0.0505488	11	0	56.0945	0.000132134
2	1	0	1	0	1	790.46	0.65625	0.656052	0.117739	6	0.0509421	11	0	58.6909	7.72429e-05
2	1	0	1	0	1	793.056	0.643268	0.64309	0.0679584	6	0.0511716	11	0	61.2873	4.37034e-05
2	1	0	1	0	1	795.653	0.630286	0.630079	0.0379807	6	0.0512999	11	0	63.8837	2.39308e-05
2	1	0	1	0	1	798.249	0.617303	0.617076	0.019555	6	0.0513662	11	0	66.4801	1.20669e-05
2	1	0	1	0	1	800.846	0.604321	0.604112	0.00850518	6	0.051395	11	0	69.0765	5.13808e-06
2	1	0	1	0	1	803.442	0.591339	0.59114	0.00126978	6	0.0514014	11	0	0.000000000000000E+000	7.50619e-07
2	1	0	1	0	1	806.038	0.578358	0.578158	-0.00238016	6	0.0513943	11	0	2.7962	-1.37611e-06
2	1	0	1	0	1	808.635	0.565376	0.565182	-0.00466989	6	0.0513791	11	0	5.3926	-2.63934e-06
2	1	0	1	0	1	811.231	0.552393	0.552167	-0.00612638	6	0.0513584	11	0	7.989	-3.38279e-06
2	0	0	1	0	1	813.828	0.539411	0.539179	-0.0106977	6	0.0513344	11	0	10.5854	-5.76799e-06
2	0	0	1	0	1	816.424	0.526429	0.5262	-0.012782	6	0.0513082	11	0	13.1818	-6.72586e-06
2	0	0	1	0	1	819.02	0.513448	0.513217	-0.0131138	6	0.0512805	11	0	15.7782	-6.7302e-06
2	1	0	1	0	1	821.617	0.500466	0.500226	-0.0104015	6	0.0512511	11	0	18.3746	-5.20312e-06
2	0	0	1	0	1	824.213	0.487484	0.487297	-0.00974969	6	0.0512205	11	0	20.971	-4.75099e-06
2	0	0	1	0	1	826.81	0.474502	0.47425	-0.0132188	6	0.0511888	11	0	23.5674	-6.26902e-06
2	0	0	1	0	1	829.406	0.461519	0.461296	-0.0151972	6	0.0511559	11	0	26.1638	-7.01038e-06
2	1	0	1	0	0	831.86	0.450785	0.450581	0.0134893	7	0.0511266	11	0	0.0999	6.07801e-06
2	1	0	1	0	0	834.456	0.463767	0.463529	0.0148148	7	0.0511597	11	0	2.6963	6.86711e-06
2	1	0	1	0	0	837.053	0.476749	0.4765	0.0123403	7	0.0511946	11	0	5.2927	5.88014e-06
2	0	0	1	0	0	839.649	0.489731	0.489539	0.0109499	7	0.0512297	11	0	7.8891	5.36039e-06
2	1	0	1	0	0	842.245	0.502713	0.502481	0.0109008	7	0.0512646	11	0	10.4855	5.47742e-06
2	1	0	1	0	0	844.842	0.515695	0.51546	0.0120465	7	0.0512993	11	0	13.0819	6.20947e-06
2	1	0	1	0	0	847.438	0.528677	0.528455	0.0132256	7	0.0513343	11	0	15.6783	6.98912e-06
2	1	0	1	0	0	850.035	0.541659	0.541446	0.0147879	7	0.05137	11	0	18.2747	8.00683e-06
2	1	0	1	0	0	852.631	0.554641	0.554409	0.0159985	7	0.0514068	11	0	20.8711	8.86969e-06
2	1	0	1	0	0	855.227	0.567623	0.567416	0.0176311	7	0.051446	11	0	23.4675	1.00041e-05
2	1	0	1	0	0	857.824	0.580605	0.5804	0.019217	7	0.0514899	11	0	26.0639	1.11535e-05
2	1	0	1	0	0	860.42	0.593587	0.593392	0.0226458	7	0.051542	11	0	28.6603	1.34378e-05
2	1	0	1	0	0	863.017	0.606569	0.606383	0.0287763	7	0.0516078	11	0	31.2567	1.74495e-05
2	1	0	1	0	0	865.613	0.619551	0.619347	0.0393553	7	0.0516971	11	0	33.8531	2.43746e-05
2	1	0	1	0	0	868.209	0.632533	0.632336	0.0582827	7	0.0518263	11	0	36.4495	3.68542e-05
2	1	0	1	0	0	870.806	0.645515	0.645362	0.0906129	7	0.0520223	11	0	39.0459	5.84781e-05
2	1	0	1	0	0	873.402	0.658497	0.65827	0.14516	7	0.0523282	11	0	41.6423	9.55543e-05
2	1	0	1	0	0	875.999	0.671479	0.671263	0.233439	7	0.0528137	11	0	44.2387	0.000156699
2	1	0	1	0	0	878.595	0.684461	0.684247	0.368471	7	0.0535815	11	0	46.8351	0.000252125
2	1	0	1	0	0	881.191	0.697443	0.697207	0.564258	7	0.0547742	11	0	49.4315	0.000393405
2	1	0	0	0	0	883.56	0.690702	0.690486	0.425146	7	0.056015	11	0	51.8004	0.000293557
2	1	0	0	0	0	886.157	0.67772	0.677512	0.263649	7	0.0568938	11	0	54.3968	0.000178626
2	1	0	0	0	0	888.753	0.664738	0.664532	0.160155	7	0.0574304	11	0	56.9932	0.000106428
2	1	0	0	0	0	891.35	0.651756	0.651536	0.0938542	7	0.0577474	11	0	59.5896	6.11494e-05
2	1	0	0	0	0	893.946	0.638774	0.638576	0.0504761	7	0.0579285	11	0	62.186	3.22328e-05
2	1	0	0	0	0	896.542	0.625792	0.625567	0.024475	7	0.0580269	11	0	64.7824	1.53107e-05
2	1	0	0	0	0	899.139	0.61281	0.612579	0.0117597	7	0.0580751	11	0	67.3788	7.20373e-06
2	1	0	0	0	0	901.735	0.599828	0.599567	0.00556656	7	0.0580933	11	0	69.9752	3.33753e-06
2	1	0	0	0	0	904.332	0.586846	0.586628	-0.00231332	7	0.0580933	11	0	1.0985	-1.35706e-06
2	0	0	0	0	0	906.928	0.573864	0.573654	-0.00763829	7	0.0580821	11	0	3.6949	-4.38173e-06
2	0	0	0	0	0	909.524	0.560882	0.560659	-0.00986756	7	0.0580643	11	0	6.2913	-5.53233e-06
2	0	0	0	0	0	912.121	0.5479	0.547692	-0.00811799	7	0.0580423	11	0	8.8877	-4.44615e-06
2	0	0	0	0	0	914.717	0.534918	0.534678	-0.00742296	7	0.0580174	11	0	11.4841	-3.96889e-06
2	1	0	0	0	0	917.314	0.521936	0.521726	-0.0104467	7	0.0579904	11	0	14.0805	-5.45034e-06
2	0	0	0	0	0	919.91	0.508954	0.508755	-0.013531	7	0.057962	11	0	16.6769	-6.88396e-06
2	0	0	0	0	0	922.506	0.495972	0.495761	-0.0126721	7	0.0579325	11	0	19.2733	-6.28231e-06
2	0	0	0	0	0	925.103	0.48299	0.482814	-0.00944328	7	0.0579017	11	0	21.8697	-4.55934e-06
2	0	0	0	0	0	927.699	0.470008	0.469773	-0.0135373	7	0.0578695	11	0	24.4661	-6.35947e-06
2	0	0	0	0	0	930.296	0.457026	0.456756	-0.0150544	7	0.057836	11	0	27.0625	-6.87621e-06
2	0	0	1	0	1	932.749	0.455279	0.455049	0.0111214	8	0.0578295	11	0	0.9987	5.0608e-06
2	1	0	0	0	1	935.346	0.46826	0.468058	0.0157683	8	0.0578636	11	0	3.595	7.38047e-06
2	1	0	1	0	1	937.942	0.481243	0.481049	0.01525	8	0.0578983	11	0	6.1915	7.33601e-06
2	1	0	1	0	1	940.539	0.494225	0.494045	0.0122399	8	0.0579329	11	0	8.7879	6.04705e-06
2	1	0	0	0	1	943.135	0.507206	0.506986	0.0106226	8	0.0579675	11	0	11.3842	5.38551e-06
2	0	0	1	0	1	945.731	0.520189	0.519938	0.0133467	8	0.058002	11	0	13.9807	6.93945e-06
2	1	0	1	0	1	948.328	0.533171	0.53298	0.015951	8	0.0580367	11	0	16.5771	8.50156e-06
2	1	0	1	0	1	950.924	0.546153	0.545931	0.012888	8	0.0580722	11	0	19.1735	7.03598e-06
2	1	0	1	0	1	953.521	0.559135	0.558937	0.0122313	8	0.0581093	11	0	21.7699	6.83651e-06
2	1	0	0	0	1	956.117	0.572116	0.571953	0.0172529	8	0.0581494	11	0	24.3662	9.86786e-06
2	1	0	0	0	1	958.713	0.585098	0.584936	0.0210524	8	0.0581946	11	0	26.9626	1.23143e-05
2	1	0	1	0	1	961.31	0.598081	0.59789	0.0218942	8	0.0582492	11	0	29.5591	1.30903e-05
2	1	0	1	0	1	963.906	0.611063	0.610874	0.0298508	8	0.0583199	11	0	32.1555	1.8235e-05
2	1	0	1	0	1	966.503	0.624045	0.62387	0.0465995	8	0.0584178	11	0	34.7519	2.9072e-05
2	1	0	0	0	1	969.099	0.637026	0.636843	0.0697181	8	0.0585617	11	0	37.3482	4.43995e-05
2	1	0	0	0	1	971.695	0.650008	0.649821	0.103789	8	0.0587822	11	0	39.9446	6.7444e-05
2	1	0	1	0	1	974.292	0.662991	0.662809	0.165116	8	0.0591297	11	0	42.5411	0.00010944
2	1	0	1	0	1	976.888	0.675973	0.675793	0.267015	8	0.0596817	11	0	45.1375	0.000180447
2	1	0	1	0	1	979.485	0.688955	0.688779	0.414952	8	0.0605515	11	0	47.7339	0.00028581
2	1	0	1	0	1	981.854	0.69919	0.698941	0.56607	8	0.0617476	11	0	50.1028	0.000395649
2	1	0	1	0	1	984.45	0.686208	0.685984	0.350555	8	0.0629122	11	0	52.6992	0.000240475
2	1	0	1	0	1	987.046	0.673226	0.673008	0.212433	8	0.063632	11	0	55.2956	0.000142969
2	1	0	1	0	1	989.643	0.660244	0.660049	0.124652	8	0.0640657	11	0	57.892	8.22762e-05
2	1	0	1	0	1	992.239	0.647262	0.647075	0.0701476	8	0.0643186	11	0	60.4884	4.53907e-05
2	1	0	1	0	1	994.836	0.63428	0.634083	0.0379935	8	0.0644604	11	0	63.0848	2.4091e-05
2	1	0	1	0	1	997.432	0.621298	0.62107	0.0196855	8	0.0645351	11	0	65.6812	1.22261e-05
2	1	0	1	0	1	1000.03	0.608316	0.608123	0.0087413	8	0.064569	11	0	68.2776	5.31578e-06
2	0	0	1	0	1	1002.62	0.595334	0.595145	-0.00183393	8	0.0645784	11	0	70.874	-1.09146e-06
2	1	0	1	0	1	1005.22	0.582352	0.582094	-0.00315605	8	0.0645732	11	0	1.9973	-1.83712e-06
2	1	0	1	0	1	1007.82	0.56937	0.569176	-0.00405982	8	0.0645591	11	0	4.5937	-2.31075e-06
2	0	0	1	0	1	1010.41	0.556388	0.556183	-0.0066207	8	0.0645392	11	0	7.1901	-3.68232e-06
2	0	0	1	0	1	1013.01	0.543406	0.543149	-0.0104591	8	0.0645159	11	0	9.7865	-5.68084e-06
2	0	0	1	0	1	1015.61	0.530424	0.530162	-0.012407	8	0.0644904	11	0	12.3829	-6.57774e-06
2	0	0	1	0	1	1018.2	0.517442	0.517229	-0.0127766	8	0.0644632	11	0	14.9793	-6.60845e-06
2	0	0	1	0	1	1020.8	0.50446	0.50422	-0.0119547	8	0.0644345	11	0	17.5757	-6.02782e-06
2	1	0	1	0	1	1023.4	0.491478	0.491248	-0.0107387	8	0.0644045	11	0	20.1721	-5.27537e-06
2	1	0	1	0	1	1025.99	0.478496	0.478257	-0.0102526	8	0.0643734	11	0	22.7685	-4.90336e-06
2	1	0	1	0	1	1028.59	0.465514	0.465294	-0.0103406	8	0.0643411	11	0	25.3649	-4.81143e-06
2	1	0	1	0	1	1031.19	0.452532	0.452328	-0.0109436	8	0.0643072	11	0	27.9613	-4.9501e-06
2	1	0	1	0	0	1033.64	0.459772	0.459519	0.013476	9	0.0643238	11	0	1.8974	6.19249e-06
2	0	0	1	0	0	1036.24	0.472754	0.472533	0.0120108	9	0.0643578	11	0	4.4938	5.67549e-06
2	0	0	1	0	0	1038.83	0.485736	0.48551	0.0108397	9	0.0643923	11	0	7.0902	5.2628e-06
2	0	0	1	0	0	1041.43	0.498718	0.498471	0.0107442	9	0.0644266	11	0	9.6866	5.35566e-06
2	0	0	1	0	0	1044.02	0.5117	0.51146	0.0110428	9	0.0644607	11	0	12.283	5.64794e-06
2	0	0	1	0	0	1046.62	0.524682	0.524394	0.0114379	9	0.064495	11	0	14.8794	5.99795e-06
2	0	0	1	0	0	1049.22	0.537664	0.537454	0.0122445	9	0.0645297	11	0	17.4758	6.58087e-06
2	1	0	1	0	0	1051.81	0.550646	0.550392	0.0134371	9	0.0645652	11	0	20.0722	7.39566e-06
2	1	0	1	0	0	1054.41	0.563628	0.563429	0.0145842	9	0.0646026	11	0	22.6686	8.21719e-06
2	1	0	1	0	0	1057.01	0.57661	0.576375	0.0163238	9	0.0646436	11	0	25.265	9.40863e-06
2	1	0	1	0	0	1059.6	0.589592	0.589386	0.019565	9	0.0646909	11	0	27.8614	1.15314e-05
2	1	0	1	0	0	1062.2	0.602574	0.602399	0.0257057	9	0.064749	11	0	30.4578	1.54851e-05
2	1	0	1	0	0	1064.8	0.615556	0.615328	0.0355484	9	0.0648256	11	0	33.0542	2.1874e-05
2	1	0	1	0	0	1067.39	0.628538	0.628295	0.051738	9	0.064934	11	0	35.6506	3.25067e-05
2	1	0	1	0	0	1069.99	0.64152	0.641268	0.0784895	9	0.0650957	11	0	38.247	5.03328e-05
2	1	0	1	0	0	1072.58	0.654502	0.654249	0.12212	9	0.0653461	11	0	40.8434	7.98971e-05
2	1	0	1	0	0	1075.18	0.667484	0.667252	0.192069	9	0.0657423	11	0	43.4398	0.000128158
2	1	0	1	0	0	1077.78	0.680466	0.680244	0.301309	9	0.0663726	11	0	46.0362	0.000204964
2	1	0	1	0	0	1080.37	0.693448	0.693259	0.469372	9	0.0673626	11	0	48.6326	0.000325397
2	1	0	1	0	0	1082.74	0.694697	0.694521	0.464992	9	0.0685943	11	0	51.0015	0.000322946
2	1	0	1	0	0	1085.34	0.681715	0.681516	0.287384	9	0.0695565	11	0	53.5979	0.000195856
2	1	0	1	0	0	1087.94	0.668733	0.668492	0.172102	9	0.0701465	11	0	56.1943	0.000115048
2	1	0	1	0	0	1090.53	0.655751	0.6555	0.100113	9	0.0704968	11	0	58.7907	6.56242e-05
2	1	0	1	0	0	1093.13	0.642769	0.642614	0.0561838	9	0.0706982	11	0	61.3871	3.61045e-05
2	1	0	1	0	0	1095.73	0.629787	0.629632	0.0304614	9	0.0708085	11	0	63.9835	1.91795e-05
2	1	0	1	0	0	1098.32	0.616805	0.61657	0.0150656	9	0.070864	11	0	66.5799	9.28903e-06
2	1	0	1	0	0	1100.92	0.603823	0.603649	0.00543617	9	0.0708866	11	0	69.1763	3.28154e-06
2	0	0	1	0	0	1103.51	0.590841	0.590594	-0.000676494	9	0.0708892	11	0	0.699	-3.99533e-07
2	0	0	1	0	0	1106.11	0.577859	0.577601	-0.00476179	9	0.0708797	11	0	3.2954	-2.75042e-06
2	0	0	1	0	0	1108.71	0.564877	0.564655	-0.00754565	9	0.070863	11	0	5.8918	-4.26069e-06
2	0	0	1	0	0	1111.3	0.551895	0.551713	-0.00836825	9	0.0708418	11	0	8.4882	-4.61688e-06
2	0	0	1	0	0	1113.9	0.538913	0.538706	-0.00897699	9	0.0708176	11	0	11.0846	-4.83596e-06
2	0	0	1	0	0	1116.5	0.525931	0.52574	-0.00958784	9	0.0707911	11	0	13.681	-5.04071e-06
2	0	0	1	0	0	1119.09	0.512949	0.512732	-0.00927316	9	0.0707632	11	0	16.2774	-4.75464e-06
2	0	0	1	0	0	1121.69	0.499967	0.499683	-0.00895226	9	0.0707341	11	0	18.8738	-4.47329e-06
2	0	0	1	0	0	1124.29	0.486985	0.486804	-0.0092555	9	0.0707038	11	0	21.4702	-4.50561e-06
2	0	0	1	0	0	1126.88	0.474003	0.4738	-0.0100374	9	0.0706722	11	0	24.0666	-4.75574e-06
2	0	0	1	0	0	1129.48	0.461021	0.460766	-0.0111173	9	0.0706395	11	0	26.663	-5.12249e-06
2	0	0	1	0	1	1131.93	0.451284	0.451058	0.00896993	10	0.0706129	11	0	0.1997	4.04596e-06
2	0	0	1	0	1	1134.53	0.464266	0.464041	0.0105141	10	0.0706456	11	0	2.7961	4.87896e-06
2	1	0	1	0	1	1137.12	0.477248	0.477043	0.0106593	10	0.0706796	11	0	5.3925	5.08496e-06
2	1	0	1	0	1	1139.72	0.49023	0.490007	0.0107511	10	0.0707137	11	0	7.9889	5.26812e-06
2	1	0	1	0	1	1142.32	0.503212	0.502966	0.0111408	10	0.0707479	11	0	10.5853	5.60343e-06
2	1	0	1	0	1	1144.91	0.516193	0.515975	0.0117121	10	0.0707819	11	0	13.1817	6.04316e-06
2	1	0	1	0	1	1147.51	0.529175	0.52898	0.0126365	10	0.0708158	11	0	15.7781	6.68448e-06
2	1	0	1	0	1	1150.11	0.542158	0.541936	0.0145638	10	0.0708502	11	0	18.3745	7.89267e-06
2	1	0	1	0	1	1152.7	0.55514	0.554961	0.0162602	10	0.0708858	11	0	20.9709	9.02377e-06
2	1	0	1	0	1	1155.3	0.568122	0.567928	0.0164829	10	0.0709236	11	0	23.5673	9.36111e-06
2	1	0	1	0	1	1157.9	0.581103	0.58087	0.0158986	10	0.0709655	11	0	26.1637	9.23503e-06
2	1	0	1	0	1	1160.49	0.594085	0.593883	0.0185176	10	0.0710148	11	0	28.7601	1.09973e-05
2	1	0	1	0	1	1163.09	0.607068	0.606887	0.0265447	10	0.071077	11	0	31.3565	1.61096e-05
2	1	0	1	0	1	1165.69	0.62005	0.619802	0.0396099	10	0.0711608	11	0	33.9529	2.45503e-05
2	1	0	1	0	1	1168.28	0.633031	0.6328	0.0584562	10	0.0712811	11	0	36.5493	3.69911e-05
2	1	0	1	0	1	1170.88	0.646014	0.645814	0.0876072	10	0.0714632	11	0	39.1457	5.6578e-05
2	1	0	1	0	1	1173.47	0.658995	0.658795	0.134697	10	0.0717486	11	0	41.7421	8.87375e-05
2	1	0	1	0	1	1176.07	0.671978	0.671808	0.219581	10	0.0722026	11	0	44.3385	0.000147517
2	1	0	1	0	1	1178.67	0.68496	0.684735	0.347002	10	0.072923	11	0	46.9349	0.000237605
2	1	0	1	0	1	1181.26	0.697941	0.697678	0.52916	10	0.0740477	11	0	49.5313	0.000369183
2	1	0	1	0	1	1183.63	0.690202	0.689977	0.389787	10	0.0751864	11	0	51.9003	0.000268944
2	1	0	1	0	1	1186.23	0.677221	0.67702	0.236069	10	0.075986	11	0	54.4967	0.000159824
2	1	0	1	0	1	1188.83	0.664239	0.664022	0.140259	10	0.0764686	11	0	57.0931	9.31351e-05
2	1	0	1	0	1	1191.42	0.651257	0.651081	0.0829997	10	0.0767514	11	0	59.6895	5.40395e-05
2	1	0	1	0	1	1194.02	0.638274	0.638087	0.0432382	10	0.076911	11	0	62.2859	2.75897e-05
2	1	0	1	0	1	1196.61	0.625292	0.625085	0.0233929	10	0.0769963	11	0	64.8823	1.46225e-05
2	1	0	1	0	1	1199.21	0.612311	0.612136	0.0104194	10	0.0770362	11	0	67.4787	6.3781e-06
2	0	0	1	0	1	1201.81	0.599329	0.599086	-0.000956026	10	0.0770493	11	0	70.0751	-5.72741e-07
2	1	0	1	0	1	1204.4	0.586347	0.586134	-0.0023366	10	0.0770463	11	0	1.6976	-1.36956e-06
2	0	0	1	0	1	1207	0.573365	0.573184	-0.00449508	10	0.0770336	11	0	4.294	-2.57651e-06
2	0	0	1	0	1	1209.6	0.560382	0.560156	-0.0100953	10	0.0770146	11	0	6.8904	-5.65495e-06
2	0	0	1	0	1	1212.19	0.5474	0.547161	-0.0101828	10	0.0769919	11	0	9.4868	-5.57162e-06
2	0	0	1	0	1	1214.79	0.534419	0.534213	-0.00767191	10	0.0769666	11	0	12.0832	-4.09844e-06
2	0	0	1	0	1	1217.39	0.521437	0.521213	-0.0107047	10	0.0769397	11	0	14.6796	-5.57945e-06
2	0	0	1	0	1	1219.98	0.508455	0.508213	-0.0135575	10	0.0769112	11	0	17.276	-6.89011e-06
2	1	0	1	0	1	1222.58	0.495473	0.495221	-0.010949	10	0.0768816	11	0	19.8724	-5.42219e-06
2	1	0	1	0	1	1225.18	0.482491	0.482239	-0.00943091	10	0.0768509	11	0	22.4688	-4.54795e-06
2	0	0	1	0	1	1227.77	0.469509	0.469309	-0.0127431	10	0.0768191	11	0	25.0652	-5.98046e-06
2	0	0	1	0	1	1230.37	0.456527	0.456327	-0.0151852	10	0.0767859	11	0	27.6616	-6.92941e-06
2	1	0	1	0	0	1232.82	0.455778	0.455573	0.0145103	11	0.0767815	11	0	1.0985	6.61049e-06
2	0	0	1	0	0	1235.42	0.46876	0.468545	0.0110327	11	0.0768147	11	0	3.6949	5.16932e-06
2	1	0	1	0	0	1238.01	0.481742	0.481563	0.0115125	11	0.0768487	11	0	6.2913	5.54397e-06
2	1	0	1	0	0	1240.61	0.494724	0.494513	0.0150983	11	0.0768825	11	0	8.8877	7.46633e-06
2	1	0	1	0	0	1243.21	0.507706	0.507524	0.0138431	11	0.076916	11	0	11.4841	7.02569e-06
2	0	0	1	0	0	1245.8	0.520688	0.520485	0.0108132	11	0.0769496	11	0	14.0805	5.62809e-06
2	1	0	1	0	0	1248.4	0.53367	0.533512	0.011526	11	0.0769836	11	0	16.6769	6.14926e-06
2	1	0	1	0	0	1251	0.546652	0.546436	0.0153844	11	0.0770181	11	0	19.2733	8.40659e-06
2	1	0	1	0	0	1253.59	0.559634	0.559445	0.0158948	11	0.077054	11	0	21.8697	8.89225e-06
2	1	0	1	0	0	1256.19	0.572616	0.572377	0.0137	11	0.0770926	11	0	24.4661	7.84155e-06
2	1	0	1	0	0	1258.79	0.585598	0.585381	0.0162196	11	0.0771362	11	0	27.0625	9.49463e-06
2	1	0	1	0	0	1261.38	0.59858	0.598343	0.0241894	11	0.0771884	11	0	29.6589	1.44735e-05
2	1	0	1	0	0	1263.98	0.611562	0.611383	0.031528	11	0.0772554	11	0	32.2553	1.92757e-05
2	1	0	1	0	0	1266.57	0.624544	0.62436	0.0413107	11	0.0773479	11	0	34.8517	2.57928e-05
2	1	0	1	0	0	1269.17	0.637526	0.6373	0.0615275	11	0.0774834	11	0	37.4481	3.92115e-05
2	1	0	1	0	0	1271.77	0.650508	0.650331	0.101226	11	0.0776908	11	0	40.0445	6.58306e-05
2	1	0	1	0	0	1274.36	0.66349	0.663291	0.155512	11	0.0780174	11	0	42.6409	0.00010315
2	1	0	1	0	0	1276.96	0.676472	0.676274	0.252444	11	0.0785387	11	0	45.2373	0.000170721
2	1	0	1	0	0	1279.56	0.689454	0.689245	0.392883	11	0.0793656	11	0	47.8337	0.000270793
2	1	0	1	0	0	1281.93	0.69869	0.698474	0.518173	11	0.0805009	11	0	50.2027	0.00036193
2	1	0	1	0	0	1284.52	0.685708	0.685459	0.322688	11	0.0815729	11	0	52.7991	0.000221189
2	1	0	1	0	0	1287.12	0.672726	0.672529	0.19413	11	0.0822295	11	0	55.3955	0.000130558
2	1	0	1	0	0	1289.72	0.659744	0.659533	0.112308	11	0.0826214	11	0	57.9919	7.40711e-05
2	1	0	1	0	0	1292.31	0.646762	0.646628	0.0661301	11	0.0828481	11	0	60.5883	4.27615e-05
2	1	0	1	0	0	1294.91	0.63378	0.633588	0.0364175	11	0.0829736	11	0	63.1847	2.30737e-05
2	1	0	1	0	0	1297.5	0.620798	0.620578	0.0144878	11	0.0830381	11	0	65.7811	8.99081e-06
2	1	0	1	0	0	1300.1	0.607816	0.607622	0.00679729	11	0.0830662	11	0	68.3775	4.13019e-06
2	0	0	1	0	0	1302.7	0.594834	0.594604	0.000588422	11	0.0830721	11	0	0.000000000000000E+000	3.49878e-07
2	0	0	1	0	0	1305.29	0.581852	0.581611	-0.00691011	11	0.0830647	11	0	2.5964	-4.019e-06
2	1	0	1	0	0	1307.89	0.56887	0.568636	-0.00551801	11	0.0830492	11	0	5.1928	-3.13774e-06
2	0	0	1	0	0	1310.49	0.555888	0.555678	-0.00702068	11	0.0830288	11	0	7.7892	-3.90123e-06
2	0	0	1	0	0	1313.08	0.542906	0.542716	-0.0116579	11	0.0830052	11	0	10.3856	-6.32693e-06
2	0	0	1	0	0	1315.68	0.529924	0.529721	-0.0107264	11	0.0829793	11	0	12.982	-5.68199e-06
2	1	0	1	0	0	1318.28	0.516942	0.516759	-0.00855706	11	0.0829519	11	0	15.5784	-4.42194e-06
2	0	0	1	0	0	1320.87	0.50396	0.503732	-0.0105163	11	0.0829231	11	0	18.1748	-5.29741e-06
2	0	0	1	0	0	1323.47	0.490978	0.49075	-0.0138511	11	0.0828933	11	0	20.7712	-6.79744e-06
2	0	0	1	0	0	1326.06	0.477996	0.477764	-0.0128131	11	0.0828622	11	0	23.3676	-6.12164e-06
2	0	0	1	0	0	1328.66	0.465014	0.464748	-0.0103311	11	0.0828298	11	0	25.964	-4.80137e-06
2	0	0	1	0	0	1331.26	0.452032	0.451806	-0.0129779	11	0.0827962	11	0	28.5604	-5.86351e-06
2	1	0	1	0	1	1333.71	0.460272	0.460023	0.0129592	12	0.0828152	11	0	1.9973	5.96154e-06
2	1	0	1	0	1	1336.31	0.473254	0.473043	0.0154133	12	0.0828486	11	0	4.5937	7.29116e-06
2	0	0	1	0	1	1338.9	0.486236	0.485973	0.0110109	12	0.0828822	11	0	7.1901	5.35099e-06
2	1	0	1	0	1	1341.5	0.499218	0.498964	0.0131511	12	0.0829159	11	0	9.7865	6.56193e-06
2	1	0	1	0	1	1344.1	0.5122	0.511964	0.0141977	12	0.0829495	11	0	12.3829	7.26873e-06
2	0	0	1	0	1	1346.69	0.525182	0.524962	0.0106343	12	0.082983	11	0	14.9793	5.58261e-06
2	1	0	1	0	1	1349.29	0.538164	0.537897	0.0126991	12	0.0830168	11	0	17.5757	6.8308e-06
2	1	0	1	0	1	1351.89	0.551146	0.550948	0.0158477	12	0.0830516	11	0	20.1721	8.73127e-06
2	1	0	1	0	1	1354.48	0.564128	0.563901	0.0152627	12	0.0830881	11	0	22.7685	8.60663e-06
2	0	0	1	0	1	1357.08	0.57711	0.576867	0.0139561	12	0.0831277	11	0	25.3649	8.05082e-06
2	1	0	1	0	1	1359.68	0.590092	0.589878	0.020039	12	0.0831733	11	0	27.9613	1.18206e-05
2	1	0	1	0	1	1362.27	0.603074	0.602861	0.025557	12	0.0832291	11	0	30.5577	1.54073e-05
2	1	0	1	0	1	1364.87	0.616056	0.615826	0.0307255	12	0.0833025	11	0	33.1541	1.89216e-05
2	1	0	1	0	1	1367.46	0.629038	0.628811	0.0470483	12	0.0834055	11	0	35.7505	2.95845e-05
2	1	0	1	0	1	1370.06	0.64202	0.641831	0.0744594	12	0.0835586	11	0	38.3469	4.77904e-05
2	1	0	1	0	1	1372.66	0.655002	0.654783	0.114937	12	0.0837959	11	0	40.9433	7.52585e-05
2	1	0	1	0	1	1375.25	0.667984	0.667775	0.181136	12	0.0841724	11	0	43.5397	0.000120958
2	1	0	1	0	1	1377.85	0.680966	0.680749	0.286496	12	0.0847735	11	0	46.1361	0.000195032
2	1	0	1	0	1	1380.45	0.693948	0.693738	0.451563	12	0.0857216	11	0	48.7325	0.000313266
2	1	0	0	0	1	1382.82	0.694197	0.693978	0.432361	12	0.0868869	11	0	51.1014	0.000300049
2	1	0	0	0	1	1385.41	0.681215	0.681005	0.268827	12	0.0877796	11	0	53.6978	0.000183073
2	1	0	0	0	1	1388.01	0.668233	0.667978	0.157025	12	0.0883216	11	0	56.2942	0.000104889
2	1	0	0	0	1	1390.6	0.655251	0.65504	0.0943276	12	0.0886403	11	0	58.8906	6.17884e-05
2	1	0	0	0	1	1393.2	0.642269	0.642056	0.0501386	12	0.0888216	11	0	61.487	3.21918e-05
2	1	0	0	0	1	1395.8	0.629287	0.629081	0.0254437	12	0.08892	11	0	64.0834	1.60061e-05
2	1	0	0	0	1	1398.39	0.616305	0.6161	0.0137498	12	0.0889682	11	0	66.6798	8.47127e-06
2	1	0	0	0	1	1400.99	0.603323	0.603081	0.0043597	12	0.0889863	11	0	69.2762	2.62925e-06
2	0	0	0	0	1	1403.59	0.590341	0.590094	-0.00323144	12	0.0889863	11	0	1.1983	-1.90686e-06
2	0	0	0	0	1	1406.18	0.577359	0.577096	-0.00733407	12	0.0889756	11	0	3.7947	-4.23247e-06
2	0	0	0	0	1	1408.78	0.564377	0.564219	-0.00984872	12	0.0889581	11	0	6.3911	-5.55684e-06
2	0	0	0	0	1	1411.38	0.551395	0.551198	-0.0113506	12	0.0889363	11	0	8.9875	-6.25644e-06
2	0	0	0	0	1	1413.97	0.538413	0.538189	-0.0117964	12	0.0889118	11	0	11.5839	-6.34868e-06
2	0	0	0	0	1	1416.57	0.525431	0.525231	-0.012014	12	0.0888855	11	0	14.1803	-6.31014e-06
2	0	0	0	0	1	1419.16	0.512449	0.512214	-0.0117479	12	0.0888577	11	0	16.7767	-6.01742e-06
2	0	0	0	0	1	1421.76	0.499467	0.499195	-0.0114572	12	0.0888285	11	0	19.3731	-5.71936e-06
2	1	0	0	0	1	1424.36	0.486485	0.486275	-0.0116001	12	0.0887983	11	0	21.9695	-5.64083e-06
2	0	0	0	0	1	1426.95	0.473503	0.473252	-0.0129787	12	0.0887671	11	0	24.5659	-6.14222e-06
2	0	0	0	0	1	1429.55	0.460521	0.460252	-0.0145608	12	0.0887345	11	0	27.1623	-6.70162e-06
2	1	0	0	0	0	1432	0.451783	0.451587	0.0114854	13	0.0887104	11	0	0.2996	5.18664e-06
2	1	0	0	0	0	1434.6	0.464765	0.464512	0.0106715	13	0.0887426	11	0	2.896	4.95703e-06
2	1	0	0	0	0	1437.2	0.477747	0.477575	0.0111789	13	0.0887762	11	0	5.4924	5.33875e-06
2	1	0	0	0	0	1439.79	0.490729	0.490507	0.011391	13	0.0888098	11	0	8.0888	5.58739e-06
2	1	0	0	0	0	1442.39	0.503711	0.503497	0.0105219	13	0.0888432	11	0	10.6852	5.29774e-06
2	0	0	0	0	0	1444.99	0.516693	0.516457	0.0107544	13	0.0888766	11	0	13.2816	5.55419e-06
2	0	0	0	0	0	1447.58	0.529675	0.529453	0.0118894	13	0.0889102	11	0	15.878	6.29486e-06
2	1	0	0	0	0	1450.18	0.542657	0.542443	0.0135713	13	0.0889443	11	0	18.4744	7.36164e-06
2	1	0	0	0	0	1452.78	0.555639	0.555404	0.0159383	13	0.0889793	11	0	21.0708	8.85219e-06
2	1	0	0	0	0	1455.37	0.568621	0.568439	0.0170024	13	0.0890164	11	0	23.6672	9.66485e-06
2	1	0	0	0	0	1457.97	0.581603	0.581392	0.0168826	13	0.0890575	11	0	26.2636	9.8154e-06
2	1	0	0	0	0	1460.56	0.594585	0.594417	0.0186765	13	0.0891055	11	0	28.86	1.11016e-05
2	1	0	0	0	0	1463.16	0.607567	0.607372	0.0240462	13	0.0891654	11	0	31.4564	1.4605e-05
2	1	0	0	0	0	1465.76	0.620549	0.620344	0.0355812	13	0.0892459	11	0	34.0528	2.20726e-05
2	1	0	0	0	0	1468.35	0.633531	0.633326	0.0552338	13	0.0893614	11	0	36.6492	3.4981e-05
2	1	0	0	0	0	1470.95	0.646513	0.6463	0.0844698	13	0.0895356	11	0	39.2456	5.45928e-05
2	1	0	0	0	0	1473.55	0.659495	0.659212	0.128982	13	0.0898081	11	0	41.842	8.50262e-05
2	1	0	0	0	0	1476.14	0.672477	0.672241	0.208916	13	0.0902423	11	0	44.4384	0.000140442
2	1	0	0	0	0	1478.74	0.685459	0.685258	0.334637	13	0.0909357	11	0	47.0348	0.000229312
2	1	0	0	0	0	1481.34	0.698441	0.698256	0.514627	13	0.0920228	11	0	49.6312	0.000359342
2	1	0	1	0	0	1483.7	0.689704	0.68948	0.362199	13	0.0930908	11	0	52.0001	0.000249729
2	1	0	1	0	0	1486.3	0.676722	0.676507	0.221508	13	0.0938303	11	0	54.5965	0.000149852
2	1	0	1	0	0	1488.9	0.66374	0.663515	0.129195	13	0.0942741	11	0	57.1929	8.5723e-05
2	1	0	1	0	0	1491.49	0.650758	0.650535	0.0718151	13	0.0945319	11	0	59.7893	4.67182e-05
2	1	0	1	0	0	1494.09	0.637776	0.637596	0.0380923	13	0.0946761	11	0	62.3857	2.42875e-05
2	1	0	1	0	0	1496.69	0.624794	0.62461	0.0197604	13	0.0947517	11	0	64.9821	1.23425e-05
2	1	0	1	0	0	1499.28	0.611812	0.61161	0.00829509	13	0.0947863	11	0	67.5785	5.07336e-06
2	1	0	1	0	0	1501.88	0.59883	0.59858	0.000352994	13	0.0947963	11	0	70.1749	2.11295e-07
2	1	0	1	0	0	1504.48	0.585848	0.585618	-0.0044948	13	0.0947913	11	0	1.9972	-2.63223e-06
2	0	0	1	0	0	1507.07	0.572866	0.572634	-0.00812067	13	0.0947774	11	0	4.5936	-4.65018e-06
2	0	0	1	0	0	1509.67	0.559884	0.559634	-0.00871217	13	0.094758	11	0	7.19	-4.87563e-06
2	1	0	1	0	0	1512.27	0.546902	0.546722	-0.008927	13	0.0947352	11	0	9.7864	-4.88059e-06
2	1	0	1	0	0	1514.86	0.53392	0.53371	-0.00984276	13	0.0947098	11	0	12.3828	-5.25318e-06
2	0	0	1	0	0	1517.46	0.520938	0.52069	-0.0126032	13	0.0946828	11	0	14.9792	-6.56234e-06
2	0	0	1	0	0	1520.05	0.507956	0.507747	-0.0134471	13	0.0946545	11	0	17.5756	-6.82775e-06
2	0	0	1	0	0	1522.65	0.494974	0.494772	-0.0135519	13	0.0946251	11	0	20.172	-6.70509e-06
2	0	0	1	0	0	1525.25	0.481992	0.481786	-0.0140128	13	0.0945945	11	0	22.7684	-6.75117e-06
2	0	0	1	0	0	1527.84	0.46901	0.468769	-0.0124826	13	0.0945627	11	0	25.3648	-5.85145e-06
2	1	0	1	0	0	1530.44	0.456028	0.455797	-0.0123308	13	0.0945298	11	0	27.9612	-5.62033e-06
2	1	0	1	0	1	1532.89	0.456277	0.456053	0.0147069	14	0.0945281	11	0	1.1983	6.70711e-06
2	1	0	1	0	1	1535.49	0.469259	0.469043	0.0150709	14	0.094561	11	0	3.7947	7.06888e-06
2	1	0	1	0	1	1538.09	0.482241	0.482016	0.0151042	14	0.0945943	11	0	6.3912	7.28046e-06
2	1	0	1	0	1	1540.68	0.495223	0.495003	0.0140202	14	0.0946276	11	0	8.9875	6.94003e-06
2	1	0	1	0	1	1543.28	0.508205	0.507955	0.0133729	14	0.0946609	11	0	11.584	6.79285e-06
2	0	0	1	0	1	1545.88	0.521187	0.520965	0.0126342	14	0.0946941	11	0	14.1803	6.58195e-06
2	0	0	1	0	1	1548.47	0.534169	0.533922	0.0127296	14	0.0947273	11	0	16.7767	6.79661e-06
2	1	0	1	0	1	1551.07	0.547151	0.546964	0.0136718	14	0.0947614	11	0	19.3732	7.47798e-06
2	1	0	1	0	1	1553.67	0.560133	0.559911	0.0152794	14	0.0947969	11	0	21.9696	8.55508e-06
2	1	0	1	0	1	1556.26	0.573115	0.572901	0.0160817	14	0.0948348	11	0	24.566	9.2132e-06
2	1	0	1	0	1	1558.86	0.586097	0.585881	0.0162869	14	0.0948773	11	0	27.1623	9.54219e-06
2	1	0	1	0	1	1561.45	0.599079	0.598881	0.019371	14	0.0949282	11	0	29.7587	1.16009e-05
2	1	0	1	0	1	1564.05	0.612061	0.611872	0.0267325	14	0.0949932	11	0	32.3551	1.63569e-05
2	1	0	1	0	1	1566.65	0.625043	0.624857	0.0391876	14	0.0950823	11	0	34.9516	2.44866e-05
2	1	0	1	0	1	1569.24	0.638025	0.637823	0.0593676	14	0.0952121	11	0	37.548	3.78661e-05
2	1	0	1	0	1	1571.84	0.651006	0.650848	0.0932323	14	0.0954111	11	0	40.1443	6.06801e-05
2	1	0	1	0	1	1574.44	0.663989	0.6638	0.149278	14	0.0957252	11	0	42.7407	9.9091e-05
2	1	0	1	0	1	1577.03	0.676971	0.676822	0.23991	14	0.0962272	11	0	45.3371	0.000162376
2	1	0	1	0	1	1579.63	0.689953	0.689752	0.379868	14	0.097026	11	0	47.9336	0.000262015
2	1	0	1	0	1	1582	0.698192	0.697997	0.489893	14	0.0981215	11	0	50.3025	0.000341944
2	1	0	1	0	1	1584.59	0.68521	0.685001	0.302895	14	0.0991256	11	0	52.8989	0.000207483
2	1	0	1	0	1	1587.19	0.672228	0.672046	0.183075	14	0.0997385	11	0	55.4953	0.000123035
2	1	0	1	0	1	1589.79	0.659246	0.659003	0.10737	14	0.100102	11	0	58.0917	7.07572e-05
2	1	0	1	0	1	1592.38	0.646264	0.646054	0.0610129	14	0.10031	11	0	60.6881	3.94176e-05
2	1	0	1	0	1	1594.98	0.633282	0.633073	0.0329653	14	0.100424	11	0	63.2845	2.08695e-05
2	1	0	1	0	1	1597.58	0.6203	0.620097	0.0153217	14	0.100481	11	0	65.8809	9.50092e-06
2	1	0	1	0	1	1600.17	0.607318	0.607104	0.00387442	14	0.100505	11	0	68.4773	2.35218e-06
2	0	0	1	0	1	1602.77	0.594336	0.594143	-0.0032572	14	0.100508	11	0	0.5992	-1.93524e-06
2	0	0	1	0	1	1605.37	0.581354	0.581109	-0.00709588	14	0.100499	11	0	3.1956	-4.12348e-06
2	0	0	1	0	1	1607.96	0.568372	0.568169	-0.00917735	14	0.100483	11	0	5.792	-5.21428e-06
2	0	0	1	0	1	1610.56	0.55539	0.555185	-0.00963282	14	0.100462	11	0	8.3884	-5.348e-06
2	0	0	1	0	1	1613.15	0.542408	0.542143	-0.00939112	14	0.100439	11	0	10.9848	-5.09133e-06
2	0	0	1	0	1	1615.75	0.529426	0.529173	-0.00895779	14	0.100413	11	0	13.5812	-4.74022e-06
2	0	0	1	0	1	1618.35	0.516444	0.516173	-0.00872451	14	0.100386	11	0	16.1776	-4.50336e-06
2	0	0	1	0	1	1620.94	0.503462	0.503203	-0.00886264	14	0.100357	11	0	18.774	-4.45971e-06
2	1	0	1	0	1	1623.54	0.49048	0.490259	-0.00922804	14	0.100327	11	0	21.3704	-4.52413e-06
2	0	0	1	0	1	1626.14	0.477498	0.477272	-0.010423	14	0.100297	11	0	23.9668	-4.97462e-06
2	1	0	1	0	1	1628.73	0.464516	0.464239	-0.0120018	14	0.100265	11	0	26.5632	-5.5717e-06
2	0	0	1	0	1	1631.33	0.451534	0.451331	-0.0138862	14	0.100231	11	0	29.1596	-6.26726e-06
2	1	0	1	0	0	1633.78	0.460771	0.460521	0.0143522	15	0.100252	11	0	2.0971	6.60951e-06
2	1	0	1	0	0	1636.38	0.473753	0.473526	0.0135968	15	0.100286	11	0	4.6935	6.43843e-06
2	1	0	1	0	0	1638.98	0.486735	0.486529	0.0125774	15	0.100319	11	0	7.2899	6.11927e-06
2	1	0	1	0	0	1641.57	0.499717	0.499492	0.0114426	15	0.100352	11	0	9.8863	5.71547e-06
2	1	0	1	0	0	1644.17	0.512699	0.512477	0.0105595	15	0.100385	11	0	12.4827	5.41151e-06
2	1	0	1	0	0	1646.77	0.525681	0.525455	0.0102579	15	0.100418	11	0	15.0791	5.39006e-06
2	1	0	1	0	0	1649.36	0.538663	0.538377	0.010624	15	0.100452	11	0	17.6755	5.71973e-06
2	0	0	1	0	0	1651.96	0.551645	0.551419	0.0114541	15	0.100486	11	0	20.2719	6.31599e-06
2	0	0	1	0	0	1654.55	0.564627	0.564416	0.012666	15	0.100521	11	0	22.8683	7.14892e-06
2	1	0	1	0	0	1657.15	0.577609	0.577382	0.0152047	15	0.10056	11	0	25.4647	8.77893e-06
2	1	0	1	0	0	1659.75	0.590591	0.590414	0.0192008	15	0.100605	11	0	28.0611	1.13364e-05
2	1	0	1	0	0	1662.34	0.603573	0.603382	0.0245535	15	0.100659	11	0	30.6575	1.48151e-05
2	1	0	1	0	0	1664.94	0.616555	0.616359	0.0330644	15	0.10073	11	0	33.2539	2.03796e-05
2	1	0	1	0	0	1667.54	0.629537	0.629304	0.0474992	15	0.100829	11	0	35.8503	2.98914e-05
2	1	0	1	0	0	1670.13	0.642519	0.642347	0.0717803	15	0.100977	11	0	38.4467	4.61079e-05
2	1	0	1	0	0	1672.73	0.655501	0.655276	0.111802	15	0.101205	11	0	41.0431	7.32615e-05
2	1	0	1	0	0	1675.33	0.668483	0.668289	0.177453	15	0.101568	11	0	43.6395	0.00011859
2	1	0	1	0	0	1677.92	0.681465	0.68126	0.282224	15	0.102151	11	0	46.2359	0.000192268
2	1	0	1	0	0	1680.52	0.694447	0.694232	0.441597	15	0.103074	11	0	48.8323	0.000306571
2	1	0	1	0	0	1682.89	0.693698	0.693492	0.40543	15	0.104189	11	0	51.2013	0.000281163
2	1	0	1	0	0	1685.48	0.680715	0.680521	0.245871	15	0.105022	11	0	53.7977	0.00016732
2	1	0	1	0	0	1688.08	0.667733	0.667522	0.149382	15	0.105526	11	0	56.3941	9.97159e-05
2	1	0	1	0	0	1690.68	0.654751	0.654513	0.0843088	15	0.10582	11	0	58.9905	5.51812e-05
2	1	0	1	0	0	1693.27	0.641769	0.641564	0.0464191	15	0.105986	11	0	61.5869	2.97808e-05
2	1	0	1	0	0	1695.87	0.628787	0.62858	0.023283	15	0.106074	11	0	64.1833	1.46352e-05
2	1	0	1	0	0	1698.47	0.615806	0.615613	0.0118584	15	0.106117	11	0	66.7797	7.30021e-06
2	0	0	1	0	0	1701.06	0.602823	0.602594	-0.000199827	15	0.106132	11	0	69.3761	-1.20414e-07
2	1	0	1	0	0	1703.66	0.589841	0.589615	-0.00242368	15	0.10613	11	0	1.498	-1.42904e-06
2	0	0	1	0	0	1706.26	0.576859	0.576614	-0.00400058	15	0.106117	11	0	4.0944	-2.30679e-06
2	0	0	1	0	0	1708.85	0.563878	0.563631	-0.00933193	15	0.106099	11	0	6.6908	-5.25976e-06
2	0	0	1	0	0	1711.45	0.550896	0.55069	-0.0103105	15	0.106077	11	0	9.2872	-5.67788e-06
2	1	0	1	0	0	1714.04	0.537913	0.537683	-0.00830016	15	0.106053	11	0	11.8836	-4.46286e-06
2	0	0	1	0	0	1716.64	0.524931	0.524679	-0.00839733	15	0.106026	11	0	14.48	-4.4059e-06
2	0	0	1	0	0	1719.24	0.51195	0.511714	-0.0112639	15	0.105999	11	0	17.0764	-5.7639e-06
2	0	0	1	0	0	1721.83	0.498968	0.498733	-0.0134569	15	0.10597	11	0	19.6728	-6.71139e-06
2	0	0	1	0	0	1724.43	0.485985	0.485791	-0.0133012	15	0.10594	11	0	22.2692	-6.46162e-06
2	1	0	1	0	0	1727.03	0.473004	0.472729	-0.0115977	15	0.105908	11	0	24.8656	-5.48256e-06
2	1	0	1	0	0	1729.62	0.460021	0.459788	-0.0103299	15	0.105876	11	0	27.462	-4.74958e-06
2	0	0	0	0	0	1731.62	0.450011	0.449964	-0.000207749	15	0.10585	11	0	29.4613	-9.34794e-08