File: ACS_Catal_2026/Figures_Na_K/main_figures/data/EC/20251112_2-148_alpha_reproducibility/20251112_2-148_005_gamma_reproducibility_K2_02_PEIS_C01.mpt
EC-Lab ASCII FILE
Nb header lines : 63

Potentio Electrochemical Impedance Spectroscopy

Run on channel : 1 (SN 69187)
User :
CE vs. WE compliance from -10 V to 10 V
Electrode connection : standard
Potential control : Ewe
Ewe ctrl range : min = -1.00 V, max = 1.00 V
Safety Limits :
	Do not start on E overload
Acquisition started on : 11/12/2025 20:19:02.947
Loaded Setting File :  C:\Users\User\Documents\EC-Lab\Data\Yatsuzuka\20251030_2-147_gamma_reproducibility\20251030_2-147_001_gamma1_K_1.mps
Saved on :
	File : 20251112_2-148_005_gamma_reproducibility_K2_02_PEIS_C01.mpr
	Directory : C:\Users\User\Documents\EC-Lab\Data\Yatsuzuka\20251112_2-148_alpha_reproducibility\
	Host : 192.109.209.127
Device : SP-150e (SN .003883)
Address : 192.109.209.128
EC-Lab for windows v11.52 (software)
Internet server v11.52 (firmware)
Command interpretor v11.50 (firmware)
Electrode material :
Initial state :
Electrolyte :
Comments :
Electrode surface area : 0.001 cm2
Characteristic mass : 0.001 g
Equivalent Weight : 0.000 g/eq.
Density : 0.000 g/cm3
Volume (V) : 0.001 cm3
Cycle Definition : Charge/Discharge alternance
Mode                Single sine
E (V)               0.4500
vs.                 Ref
tE (h:m:s)          0:00:0.0000
record              0
dI                  0.000
unit dI             mA
dt (s)              0.000
fi                  500.000
unit fi             kHz
ff                  1.000
unit ff             Hz
Nd                  6
Points              per decade
spacing             Logarithmic
Va (mV)             10.0
pw                  0.10
Na                  2
corr                0
E range min (V)     -1.000
E range max (V)     1.000
I Range             Auto
Bandwidth           5
nc cycles           0
goto Ns'            0
nr cycles           0
inc. cycle          0

freq/Hz	Re(Z)/Ohm	-Im(Z)/Ohm	|Z|/Ohm	Phase(Z)/deg	time/s	<Ewe>/V	<I>/mA	Cs/uF	Cp/uF	cycle number	I Range	|Ewe|/V	|I|/A	Ns	(Q-Qo)/mA.h	Re(Y)/Ohm-1	Im(Y)/Ohm-1	|Y|/Ohm-1	Phase(Y)/deg	Re(C)/nF	Im(C)/nF	|C|/nF	Phase(C)/deg	Re(M)	Im(M)	|M|	Phase(M)/deg	Re(Permittivity)	Im(Permittivity)	|Permittivity|	Phase(Permittivity)/deg	Re(Resistivity)/Ohm.cm	Im(Resistivity)/Ohm.cm	|Resistivity|/Ohm.cm	Phase(Resistivity)/deg	Re(Conductivity)/mS/cm	Im(Conductivity)/mS/cm	|Conductivity|/mS/cm	Phase(Conductivity)/deg	Tan(Delta)	Loss Angle(Delta)/deg	dq/mA.h
500019	17.9831	-1.48464	18.0443	4.71947	202.26	0.450122	0.00881356	-0.214395	-0.00145135	1	10	0.00603494	0.000334451	0	1.80935e-05	0.0552312	-0.00455973	0.0554191	-4.71947	-1.45135	17.58	17.6398	-94.7195	0.0000000E+000	0.0000000E+000	0.0000000E+000	94.7195	0.0000000E+000	0.0000000E+000	0.0000000E+000	-94.7195	0.0000000E+000	0.0000000E+000	0.0000000E+000	4.71947	0.0000000E+000	0.0000000E+000	0.0000000E+000	-4.71947	12.1128	85.2805	1.80935e-05
339899	12.8445	-1.16353	12.8971	5.17607	202.546	0.449982	0.00902973	-0.402431	-0.00327541	1	10	0.0099958	0.000775043	0	1.84173e-05	0.0772207	-0.00699512	0.0775369	-5.17607	-3.2754	36.1579	36.306	-95.1761	0.0000000E+000	0.0000000E+000	0.0000000E+000	95.1761	0.0000000E+000	0.0000000E+000	0.0000000E+000	-95.1761	0.0000000E+000	0.0000000E+000	0.0000000E+000	5.17607	0.0000000E+000	0.0000000E+000	0.0000000E+000	-5.17607	11.0392	84.8239	3.23843e-07
231063	10.9355	-0.722861	10.9593	3.78189	202.969	0.44979	0.00980866	-0.952874	-0.00414551	1	10	0.0106874	0.000975192	0	1.94415e-05	0.0910478	-0.00601848	0.0912465	-3.78189	-4.14551	62.7133	62.8502	-93.7819	0.0000000E+000	0.0000000E+000	0.0000000E+000	93.7819	0.0000000E+000	0.0000000E+000	0.0000000E+000	-93.7819	0.0000000E+000	0.0000000E+000	0.0000000E+000	3.78189	0.0000000E+000	0.0000000E+000	0.0000000E+000	-3.78189	15.128	86.2181	1.02423e-06
157076	10.1566	-0.357266	10.1628	2.0146	203.527	0.44975	0.0104795	-2.83608	-0.00350487	1	10	0.0101058	0.000994389	0	2.16255e-05	0.0983368	-0.00345908	0.0983976	-2.0146	-3.50486	99.6385	99.7001	-92.0146	0.0000000E+000	0.0000000E+000	0.0000000E+000	92.0146	0.0000000E+000	0.0000000E+000	0.0000000E+000	-92.0146	0.0000000E+000	0.0000000E+000	0.0000000E+000	2.0146	0.0000000E+000	0.0000000E+000	0.0000000E+000	-2.0146	28.4286	87.9854	2.18394e-06
106786	9.90295	-0.129462	9.90379	0.748989	203.949	0.449752	0.0109864	-11.5123	-0.00196718	1	10	0.0108251	0.00109303	0	2.32181e-05	0.100963	-0.00131989	0.100971	-0.748989	-1.96719	150.476	150.488	-90.749	0.0000000E+000	0.0000000E+000	0.0000000E+000	90.749	0.0000000E+000	0.0000000E+000	0.0000000E+000	-90.749	0.0000000E+000	0.0000000E+000	0.0000000E+000	0.748989	0.0000000E+000	0.0000000E+000	0.0000000E+000	-0.748989	76.4931	89.251	1.59262e-06
72595	9.81998	-0.0311773	9.82003	0.181907	204.371	0.449742	0.0111708	-70.3194	-0.000708803	1	10	0.0107441	0.0010941	0	2.44106e-05	0.101832	-0.000323305	0.101833	-0.181907	-0.708807	223.253	223.255	-90.1819	0.0000000E+000	0.0000000E+000	0.0000000E+000	90.1819	0.0000000E+000	0.0000000E+000	0.0000000E+000	-90.1819	0.0000000E+000	0.0000000E+000	0.0000000E+000	0.181907	0.0000000E+000	0.0000000E+000	0.0000000E+000	-0.181907	314.972	89.8181	1.19252e-06
49352.4	9.79873	0.0248344	9.79876	-0.145213	204.793	0.449751	0.0111392	129.855	0.000834112	1	10	0.0106034	0.00108212	0	2.41617e-05	0.102053	0.00025865	0.102054	0.145213	0.834095	329.109	329.11	-89.8548	0.0000000E+000	0.0000000E+000	0.0000000E+000	89.8548	0.0000000E+000	0.0000000E+000	0.0000000E+000	-89.8548	0.0000000E+000	0.0000000E+000	0.0000000E+000	-0.145213	0.0000000E+000	0.0000000E+000	0.0000000E+000	0.145213	394.562	89.8548	-2.48936e-07
33551.1	9.78954	0.087691	9.78993	-0.51322	205.215	0.449758	0.0105615	54.0952	0.0043402	1	10	0.010482	0.00107069	0	2.45167e-05	0.102142	0.000914947	0.102146	0.51322	4.34021	484.526	484.545	-89.4868	0.0000000E+000	0.0000000E+000	0.0000000E+000	89.4868	0.0000000E+000	0.0000000E+000	0.0000000E+000	-89.4868	0.0000000E+000	0.0000000E+000	0.0000000E+000	-0.51322	0.0000000E+000	0.0000000E+000	0.0000000E+000	0.51322	111.637	89.4868	3.55004e-07
22806.6	9.79457	0.124235	9.79536	-0.726707	205.637	0.449742	0.0105708	56.1714	0.00903576	1	10	0.0104256	0.00106434	0	2.57814e-05	0.102081	0.00129481	0.102089	0.726707	9.03578	712.369	712.427	-89.2733	0.0000000E+000	0.0000000E+000	0.0000000E+000	89.2733	0.0000000E+000	0.0000000E+000	0.0000000E+000	-89.2733	0.0000000E+000	0.0000000E+000	0.0000000E+000	-0.726707	0.0000000E+000	0.0000000E+000	0.0000000E+000	0.726707	78.8389	89.2733	1.26472e-06
15504.4	9.80333	0.170627	9.80481	-0.99713	206.059	0.44975	0.0109528	60.1616	0.0182194	1	10	0.010301	0.00105061	0	2.51098e-05	0.101975	0.00177488	0.101991	0.99713	18.2194	1046.79	1046.95	-89.0029	0.0000000E+000	0.0000000E+000	0.0000000E+000	89.0029	0.0000000E+000	0.0000000E+000	0.0000000E+000	-89.0029	0.0000000E+000	0.0000000E+000	0.0000000E+000	-0.99713	0.0000000E+000	0.0000000E+000	0.0000000E+000	0.99713	57.4549	89.0029	-6.71611e-07
10540.4	9.81113	0.243777	9.81416	-1.42333	206.481	0.449753	0.0116218	61.94	0.0382164	1	10	0.0102603	0.00104546	0	2.6347e-05	0.101862	0.00253096	0.101894	1.42333	38.2164	1538.07	1538.55	-88.5767	0.0000000E+000	0.0000000E+000	0.0000000E+000	88.5767	0.0000000E+000	0.0000000E+000	0.0000000E+000	-88.5767	0.0000000E+000	0.0000000E+000	0.0000000E+000	-1.42333	0.0000000E+000	0.0000000E+000	0.0000000E+000	1.42333	40.2464	88.5767	1.23714e-06
7163.78	9.81932	0.347517	9.82546	-2.02692	207.004	0.449734	0.010023	63.9296	0.0799737	1	10	0.0100538	0.00102324	0	2.73308e-05	0.101713	0.00359973	0.101776	2.02692	79.9737	2259.71	2261.13	-87.9731	0.0000000E+000	0.0000000E+000	0.0000000E+000	87.9731	0.0000000E+000	0.0000000E+000	0.0000000E+000	-87.9731	0.0000000E+000	0.0000000E+000	0.0000000E+000	-2.02692	0.0000000E+000	0.0000000E+000	0.0000000E+000	2.02692	28.2557	87.9731	9.8382e-07
4871.56	9.83367	0.488924	9.84582	-2.84637	207.472	0.449759	0.0125479	66.8207	0.164774	1	10	0.0105778	0.00107435	0	2.80173e-05	0.101441	0.00504356	0.101566	2.84637	164.774	3314.09	3318.18	-87.1536	0.0000000E+000	0.0000000E+000	0.0000000E+000	87.1536	0.0000000E+000	0.0000000E+000	0.0000000E+000	-87.1536	0.0000000E+000	0.0000000E+000	0.0000000E+000	-2.84637	0.0000000E+000	0.0000000E+000	0.0000000E+000	2.84637	20.1129	87.1536	6.8654e-07
3311.06	9.87063	0.664908	9.893	-3.85375	207.937	0.449764	0.0122218	72.2922	0.326557	1	10	0.0108615	0.0010979	0	2.92415e-05	0.100853	0.00679369	0.101082	3.85375	326.557	4847.77	4858.76	-86.1462	0.0000000E+000	0.0000000E+000	0.0000000E+000	86.1462	0.0000000E+000	0.0000000E+000	0.0000000E+000	-86.1462	0.0000000E+000	0.0000000E+000	0.0000000E+000	-3.85375	0.0000000E+000	0.0000000E+000	0.0000000E+000	3.85375	14.8451	86.1462	1.22418e-06
2250.72	9.90238	0.94895	9.94775	-5.47396	208.623	0.449764	0.0123467	74.517	0.678098	1	10	0.0101352	0.00101884	0	3.14743e-05	0.100067	0.00958945	0.100525	5.47396	678.097	7076.01	7108.43	-84.526	0.0000000E+000	0.0000000E+000	0.0000000E+000	84.526	0.0000000E+000	0.0000000E+000	0.0000000E+000	-84.526	0.0000000E+000	0.0000000E+000	0.0000000E+000	-5.47396	0.0000000E+000	0.0000000E+000	0.0000000E+000	5.47396	10.4351	84.526	2.23286e-06
1530.49	9.95224	1.35037	10.0434	-7.72697	209.088	0.449765	0.0120094	77.0084	1.39212	1	10	0.0101974	0.00101533	0	3.28047e-05	0.0986635	0.0133871	0.0995676	7.72697	1392.12	10260	10354	-82.273	0.0000000E+000	0.0000000E+000	0.0000000E+000	82.273	0.0000000E+000	0.0000000E+000	0.0000000E+000	-82.273	0.0000000E+000	0.0000000E+000	0.0000000E+000	-7.72697	0.0000000E+000	0.0000000E+000	0.0000000E+000	7.72697	7.37003	82.273	1.33035e-06
1040.33	10.0015	1.93351	10.1867	-10.9415	209.553	0.449766	0.0119349	79.1226	2.85053	1	10	0.0102106	0.00100234	0	3.39792e-05	0.0963824	0.0186328	0.098167	10.9415	2850.53	14745	15018	-79.0585	0.0000000E+000	0.0000000E+000	0.0000000E+000	79.0585	0.0000000E+000	0.0000000E+000	0.0000000E+000	-79.0585	0.0000000E+000	0.0000000E+000	0.0000000E+000	-10.9415	0.0000000E+000	0.0000000E+000	0.0000000E+000	10.9415	5.17273	79.0585	1.17449e-06
707.036	10.085	2.76364	10.4569	-15.3248	210.018	0.449767	0.0124007	81.451	5.68929	1	10	0.0102252	0.000977844	0	3.53553e-05	0.0922307	0.0252743	0.095631	15.3248	5689.3	20761.3	21526.7	-74.6752	0.0000000E+000	0.0000000E+000	0.0000000E+000	74.6752	0.0000000E+000	0.0000000E+000	0.0000000E+000	-74.6752	0.0000000E+000	0.0000000E+000	0.0000000E+000	-15.3248	0.0000000E+000	0.0000000E+000	0.0000000E+000	15.3248	3.64918	74.6752	1.37615e-06
480.769	10.1891	3.95705	10.9305	-21.2243	210.483	0.449756	0.0120616	83.6589	10.9642	1	10	0.0102288	0.000935805	0	3.69424e-05	0.0852818	0.0331203	0.0914874	21.2243	10964.2	28231.9	30286.2	-68.7757	0.0000000E+000	0.0000000E+000	0.0000000E+000	68.7757	0.0000000E+000	0.0000000E+000	0.0000000E+000	-68.7757	0.0000000E+000	0.0000000E+000	0.0000000E+000	-21.2243	0.0000000E+000	0.0000000E+000	0.0000000E+000	21.2243	2.57491	68.7757	1.58707e-06
326.778	10.3294	5.67703	11.7867	-28.793	210.946	0.449754	0.0114709	85.792	19.9024	1	10	0.0102282	0.000867774	0	3.80972e-05	0.0743521	0.0408636	0.0848415	28.793	19902.4	36212.7	41321.5	-61.207	0.0000000E+000	0.0000000E+000	0.0000000E+000	61.207	0.0000000E+000	0.0000000E+000	0.0000000E+000	-61.207	0.0000000E+000	0.0000000E+000	0.0000000E+000	-28.793	0.0000000E+000	0.0000000E+000	0.0000000E+000	28.793	1.81952	61.207	1.15477e-06
222.061	10.4972	8.15696	13.2939	-37.8493	211.407	0.449754	0.0116162	87.8658	33.0805	1	10	0.0102039	0.000767563	0	4.00515e-05	0.0593977	0.0461555	0.0752225	37.8493	33080.5	42571.4	53913.3	-52.1507	0.0000000E+000	0.0000000E+000	0.0000000E+000	52.1507	0.0000000E+000	0.0000000E+000	0.0000000E+000	-52.1507	0.0000000E+000	0.0000000E+000	0.0000000E+000	-37.8493	0.0000000E+000	0.0000000E+000	0.0000000E+000	37.8493	1.2869	52.1507	1.95434e-06
151.015	10.7312	11.8031	15.9522	-47.7234	211.871	0.449758	0.011646	89.2903	48.883	1	10	0.0101984	0.000639312	0	4.12096e-05	0.0421705	0.0463828	0.0626874	47.7234	48883	44443.6	66066.5	-42.2766	0.0000000E+000	0.0000000E+000	0.0000000E+000	42.2766	0.0000000E+000	0.0000000E+000	0.0000000E+000	-42.2766	0.0000000E+000	0.0000000E+000	0.0000000E+000	-47.7234	0.0000000E+000	0.0000000E+000	0.0000000E+000	47.7234	0.909183	42.2766	1.15804e-06
102.667	11.0609	17.0193	20.2977	-56.9801	212.346	0.449767	0.0116348	91.085	64.0373	1	10	0.0101817	0.000501615	0	4.22042e-05	0.0268469	0.0413091	0.0492666	56.9801	64037.3	41618	76373	-33.0199	0.0000000E+000	0.0000000E+000	0.0000000E+000	33.0199	0.0000000E+000	0.0000000E+000	0.0000000E+000	-33.0199	0.0000000E+000	0.0000000E+000	0.0000000E+000	-56.9801	0.0000000E+000	0.0000000E+000	0.0000000E+000	56.9801	0.649902	33.0199	9.94629e-07
69.7545	11.5883	24.72	27.3014	-64.8836	213.066	0.449755	0.000260499	92.2998	75.6705	1	11	0.0102223	0.000374425	0	4.29719e-05	0.0155472	0.0331649	0.0366282	64.8836	75670.5	35473.1	83572.6	-25.1164	0.0000000E+000	0.0000000E+000	0.0000000E+000	25.1164	0.0000000E+000	0.0000000E+000	0.0000000E+000	-25.1164	0.0000000E+000	0.0000000E+000	0.0000000E+000	-64.8836	0.0000000E+000	0.0000000E+000	0.0000000E+000	64.8836	0.468784	25.1164	7.67686e-07
47.4443	12.2889	35.7243	37.7789	-71.0172	213.51	0.449749	0.000329824	93.9014	83.9657	1	11	0.0101962	0.000269891	0	4.32292e-05	0.00861021	0.0250303	0.0264698	71.0172	83965.7	28883.5	88794.7	-18.9828	0.0000000E+000	0.0000000E+000	0.0000000E+000	18.9828	0.0000000E+000	0.0000000E+000	0.0000000E+000	-18.9828	0.0000000E+000	0.0000000E+000	0.0000000E+000	-71.0172	0.0000000E+000	0.0000000E+000	0.0000000E+000	71.0172	0.343991	18.9828	2.57339e-07
32.2387	13.2774	51.8402	53.5135	-75.6342	213.947	0.449755	0.000159669	95.2305	89.3682	1	11	0.0101871	0.000190366	0	4.31459e-05	0.00463644	0.0181025	0.0186869	75.6342	89368.2	22889	92252.8	-14.3658	0.0000000E+000	0.0000000E+000	0.0000000E+000	14.3658	0.0000000E+000	0.0000000E+000	0.0000000E+000	-14.3658	0.0000000E+000	0.0000000E+000	0.0000000E+000	-75.6342	0.0000000E+000	0.0000000E+000	0.0000000E+000	75.6342	0.256121	14.3658	-8.33077e-08
21.9144	14.7162	74.9328	76.3642	-78.889	214.378	0.449752	-4.58965e-05	96.921	93.3216	1	11	0.0101767	0.000133266	0	4.33508e-05	0.00252358	0.0128497	0.0130951	78.889	93321.6	18327.6	95104.3	-11.111	0.0000000E+000	0.0000000E+000	0.0000000E+000	11.111	0.0000000E+000	0.0000000E+000	0.0000000E+000	-11.111	0.0000000E+000	0.0000000E+000	0.0000000E+000	-78.889	0.0000000E+000	0.0000000E+000	0.0000000E+000	78.889	0.196392	11.111	2.04856e-07
14.9093	16.7362	108.076	109.365	-81.1974	214.847	0.449765	0.00039393	98.7713	96.4582	1	11	0.0101731	9.30206e-05	0	4.35603e-05	0.00139928	0.00903603	0.00914373	81.1974	96458.2	14937.1	97607.9	-8.80265	0.0000000E+000	0.0000000E+000	0.0000000E+000	8.80265	0.0000000E+000	0.0000000E+000	0.0000000E+000	-8.80265	0.0000000E+000	0.0000000E+000	0.0000000E+000	-81.1974	0.0000000E+000	0.0000000E+000	0.0000000E+000	81.1974	0.154856	8.80264	2.09481e-07
10.1329	20.1754	158.013	159.296	-82.7237	215.557	0.449766	-4.67122e-05	99.4012	97.8067	1	12	0.0101913	6.39775e-05	0	4.29373e-05	0.000795086	0.00622708	0.00627763	82.7237	97806.7	12488.2	98600.7	-7.27628	0.0000000E+000	0.0000000E+000	0.0000000E+000	7.27628	0.0000000E+000	0.0000000E+000	0.0000000E+000	-7.27628	0.0000000E+000	0.0000000E+000	0.0000000E+000	-82.7237	0.0000000E+000	0.0000000E+000	0.0000000E+000	82.7237	0.127682	7.27628	-6.22965e-07
6.88933	23.7293	230.812	232.028	-84.1302	215.91	0.449755	-0.000424625	100.089	99.042	1	12	0.0101883	4.39097e-05	0	4.33608e-05	0.000440761	0.00428722	0.00430982	84.1302	99042	10182.3	99564	-5.86984	0.0000000E+000	0.0000000E+000	0.0000000E+000	5.86984	0.0000000E+000	0.0000000E+000	0.0000000E+000	-5.86984	0.0000000E+000	0.0000000E+000	0.0000000E+000	-84.1302	0.0000000E+000	0.0000000E+000	0.0000000E+000	84.1302	0.102808	5.86984	4.23559e-07
4.68375	29.3173	330.972	332.268	-84.938	216.407	0.449769	2.43132e-05	102.668	101.869	1	12	0.0101803	3.06388e-05	0	4.32288e-05	0.000265551	0.00299789	0.00300962	84.938	101869	9023.47	102268	-5.06201	0.0000000E+000	0.0000000E+000	0.0000000E+000	5.06201	0.0000000E+000	0.0000000E+000	0.0000000E+000	-5.06201	0.0000000E+000	0.0000000E+000	0.0000000E+000	-84.938	0.0000000E+000	0.0000000E+000	0.0000000E+000	84.938	0.0885794	5.06201	-1.32036e-07
3.18099	37.553	479.055	480.525	-85.5178	217.11	0.449765	2.05659e-05	104.441	103.804	1	12	0.0101817	2.11887e-05	0	4.28971e-05	0.000162634	0.00207469	0.00208106	85.5178	103804	8137.12	104122	-4.48223	0.0000000E+000	0.0000000E+000	0.0000000E+000	4.48223	0.0000000E+000	0.0000000E+000	0.0000000E+000	-4.48223	0.0000000E+000	0.0000000E+000	0.0000000E+000	-85.5178	0.0000000E+000	0.0000000E+000	0.0000000E+000	85.5178	0.0783897	4.48224	-3.31662e-07
2.16533	48.7701	696.716	698.421	-85.9958	218.633	0.449772	2.43543e-05	105.497	104.983	1	13	0.0101847	1.45825e-05	0	4.31383e-05	9.99815e-05	0.00142831	0.0014318	85.9958	104983	7348.79	105240	-4.00417	0.0000000E+000	0.0000000E+000	0.0000000E+000	4.00417	0.0000000E+000	0.0000000E+000	0.0000000E+000	-4.00417	0.0000000E+000	0.0000000E+000	0.0000000E+000	-85.9958	0.0000000E+000	0.0000000E+000	0.0000000E+000	85.9958	0.07	4.00418	2.41141e-07
1.46962	64.7521	1012.55	1014.62	-86.3409	220.103	0.449773	3.93894e-05	106.955	106.519	1	13	0.0101788	1.00322e-05	0	4.33695e-05	6.29e-05	0.000983586	0.000985595	86.3409	106519	6811.86	106737	-3.65907	0.0000000E+000	0.0000000E+000	0.0000000E+000	3.65907	0.0000000E+000	0.0000000E+000	0.0000000E+000	-3.65907	0.0000000E+000	0.0000000E+000	0.0000000E+000	-86.3409	0.0000000E+000	0.0000000E+000	0.0000000E+000	86.3409	0.0639497	3.65906	2.31249e-07
1.00006	87.0806	1468.81	1471.39	-86.6071	222.243	0.449767	4.29079e-05	108.349	107.97	1	13	0.010176	6.91591e-06	0	4.338e-05	4.02221e-05	0.000678437	0.000679628	86.6071	107970	6401.14	108159	-3.39289	0.0000000E+000	0.0000000E+000	0.0000000E+000	3.39289	0.0000000E+000	0.0000000E+000	0.0000000E+000	-3.39289	0.0000000E+000	0.0000000E+000	0.0000000E+000	-86.6071	0.0000000E+000	0.0000000E+000	0.0000000E+000	86.6071	0.0592864	3.39288	1.04995e-08