File: ACS_Catal_2026/Figures_Na_K/main_figures/data/EC/20240116_2-97_wait_CV/20240111_2-97_wait15min_CV_1_02_PEIS_C02.mpt
EC-Lab ASCII FILE
Nb header lines : 66

Potentio Electrochemical Impedance Spectroscopy

Run on channel : 2 (SN 66414)
User :
CE vs. WE compliance from -10 V to 10 V
Electrode connection : standard
Potential control : Ewe
Ewe ctrl range : min = -1.00 V, max = 1.00 V
Safety Limits :
	Do not start on E overload
Acquisition started on : 01/16/2024 20:18:24.614
Loaded Setting File :  C:\Users\NakamuraT\Documents\EC-Lab\Data\Yatsuzuka\20240115_2-95_CA_CV\20240115_2-95_001_CA_CV.mps
Saved on :
	File : 20240111_2-97_wait15min_CV_1_02_PEIS_C02.mpr
	Directory : C:\Users\NakamuraT\Documents\EC-Lab\Data\Yatsuzuka\20240116_2-97_wait_CV\
	Host : 192.109.209.100
Device : SP-150e (SN .003411)
Address : 192.109.209.236
EC-Lab for windows v11.50 (software)
Internet server v11.50 (firmware)
Command interpretor v11.50 (firmware)
Electrode material :
Initial state :
Electrolyte :
Comments :
Electrode surface area : 0.000 cm2
Characteristic mass : 0.001 g
Equivalent Weight : 0.000 g/eq.
Density : 0.000 g/cm3
Volume (V) : 0.001 cm3
Cycle Definition : Charge/Discharge alternance
Mode                Single sine
E (V)               0.0000
vs.                 Ref
tE (h:m:s)          0:00:0.0000
record              0
dI                  0.000
unit dI             mA
dt (s)              0.000
fi                  1.000
unit fi             MHz
ff                  100.000
unit ff             mHz
Nd                  6
Points              per decade
spacing             Logarithmic
Va (mV)             10.0
pw                  0.10
Na                  2
corr                0
E range min (V)     -1.000
E range max (V)     1.000
I Range             10 mA
Bandwidth           5
nc cycles           0
goto Ns'            0
nr cycles           0
inc. cycle          0

Number of loops : 1
Loop 0 from point number 0 to 42

freq/Hz	Re(Z)/Ohm	-Im(Z)/Ohm	|Z|/Ohm	Phase(Z)/deg	time/s	<Ewe>/V	<I>/mA	Cs/uF	Cp/uF	cycle number	I Range	|Ewe|/V	|I|/A	Ns	(Q-Qo)/mA.h	Re(Y)/Ohm-1	Im(Y)/Ohm-1	|Y|/Ohm-1	Phase(Y)/deg	Re(C)/nF	Im(C)/nF	|C|/nF	Phase(C)/deg	Re(M)	Im(M)	|M|	Phase(M)/deg	Re(Permittivity)	Im(Permittivity)	|Permittivity|	Phase(Permittivity)/deg	Re(Resistivity)/Ohm.cm	Im(Resistivity)/Ohm.cm	|Resistivity|/Ohm.cm	Phase(Resistivity)/deg	Re(Conductivity)/mS/cm	Im(Conductivity)/mS/cm	|Conductivity|/mS/cm	Phase(Conductivity)/deg	Tan(Delta)	Loss Angle(Delta)/deg	dq/mA.h
1.00002e+06	32.0265	50.3808	59.6986	-57.5564	10.7379	0.000882732	0.0198879	0.00315898	0.00224983	1	11	0.0026209	4.39023e-05	0	1.88965e-06	0.00898631	0.0141363	0.0167508	57.5564	2.24983	1.43019	2.66593	-32.4436	0.0000000E+000	0.0000000E+000	0.0000000E+000	32.4436	0.0000000E+000	0.0000000E+000	0.0000000E+000	-32.4436	0.0000000E+000	0.0000000E+000	0.0000000E+000	-57.5564	0.0000000E+000	0.0000000E+000	0.0000000E+000	57.5564	0.635688	32.4436	1.88965e-06
681293	37.009	22.4568	43.2894	-31.2491	11.1599	0.000426743	-0.00514199	0.0104025	0.00279944	1	11	0.00533762	0.000123301	0	1.15858e-06	0.0197489	0.0119835	0.0231003	31.2491	2.79944	4.61349	5.39641	-58.7509	0.0000000E+000	0.0000000E+000	0.0000000E+000	58.7509	0.0000000E+000	0.0000000E+000	0.0000000E+000	-58.7509	0.0000000E+000	0.0000000E+000	0.0000000E+000	-31.2491	0.0000000E+000	0.0000000E+000	0.0000000E+000	31.2491	1.64801	58.7509	-7.31074e-07
464157	33.6791	3.9769	33.9131	-6.73442	11.4459	0.00038138	-0.00674189	0.0862205	0.00118567	1	11	0.00953585	0.000281185	0	7.81073e-07	0.0292837	0.00345787	0.0294871	6.73442	1.18567	10.0411	10.1108	-83.2656	0.0000000E+000	0.0000000E+000	0.0000000E+000	83.2656	0.0000000E+000	0.0000000E+000	0.0000000E+000	-83.2656	0.0000000E+000	0.0000000E+000	0.0000000E+000	-6.73442	0.0000000E+000	0.0000000E+000	0.0000000E+000	6.73442	8.46869	83.2656	-3.77504e-07
316230	25.0184	-1.85739	25.0872	4.24591	11.8679	0.000263364	-0.009221	-0.270965	-0.0014853	1	11	0.0102369	0.000408051	0	-7.83441e-07	0.0397515	-0.0029512	0.0398609	-4.24591	-1.4853	20.0065	20.0615	-94.2459	0.0000000E+000	0.0000000E+000	0.0000000E+000	94.2459	0.0000000E+000	0.0000000E+000	0.0000000E+000	-94.2459	0.0000000E+000	0.0000000E+000	0.0000000E+000	4.24591	0.0000000E+000	0.0000000E+000	0.0000000E+000	-4.24591	13.4696	85.7541	-1.56451e-06
215447	20.67	-1.72265	20.7417	4.76405	12.2899	0.000217051	-0.00801837	-0.428828	-0.00295794	1	11	0.0105391	0.000508114	0	-1.09786e-06	0.0480455	-0.00400414	0.0482121	-4.76405	-2.95794	35.4922	35.6153	-94.7641	0.0000000E+000	0.0000000E+000	0.0000000E+000	94.7641	0.0000000E+000	0.0000000E+000	0.0000000E+000	-94.7641	0.0000000E+000	0.0000000E+000	0.0000000E+000	4.76405	0.0000000E+000	0.0000000E+000	0.0000000E+000	-4.76405	11.999	85.2359	-3.14424e-07
146777	19.1393	-0.88054	19.1595	2.63415	12.7119	0.000224727	-0.00534771	-1.23144	-0.00260102	1	11	0.0105822	0.000552323	0	-8.95992e-07	0.0521383	-0.00239873	0.0521934	-2.63415	-2.60102	56.5353	56.5951	-92.6341	0.0000000E+000	0.0000000E+000	0.0000000E+000	92.6341	0.0000000E+000	0.0000000E+000	0.0000000E+000	-92.6341	0.0000000E+000	0.0000000E+000	0.0000000E+000	2.63415	0.0000000E+000	0.0000000E+000	0.0000000E+000	-2.63415	21.7358	87.3659	2.01873e-07
100004	18.6932	-0.412272	18.6977	1.26344	13.1339	0.000237376	-0.00342234	-3.86029	-0.00187677	1	11	0.0105697	0.000565296	0	-6.16952e-07	0.0534695	-0.00117925	0.0534825	-1.26344	-1.87677	85.0962	85.1169	-91.2634	0.0000000E+000	0.0000000E+000	0.0000000E+000	91.2634	0.0000000E+000	0.0000000E+000	0.0000000E+000	-91.2634	0.0000000E+000	0.0000000E+000	0.0000000E+000	1.26344	0.0000000E+000	0.0000000E+000	0.0000000E+000	-1.26344	45.3418	88.7366	2.7904e-07
68132	18.5101	-0.211296	18.5113	0.654015	13.5559	0.000235811	-0.00252429	-11.0555	-0.00144042	1	11	0.0105316	0.000568929	0	-1.70933e-06	0.0540176	-0.000616622	0.0540211	-0.654015	-1.44042	126.184	126.192	-90.654	0.0000000E+000	0.0000000E+000	0.0000000E+000	90.654	0.0000000E+000	0.0000000E+000	0.0000000E+000	-90.654	0.0000000E+000	0.0000000E+000	0.0000000E+000	0.654015	0.0000000E+000	0.0000000E+000	0.0000000E+000	-0.654015	87.6024	89.346	-1.09238e-06
46420.4	18.4696	-0.110379	18.47	0.342408	13.9779	0.000245498	-0.00198807	-31.0618	-0.00110934	1	11	0.0105361	0.000570445	0	-1.36984e-06	0.054141	-0.000323558	0.0541419	-0.342408	-1.10934	185.625	185.629	-90.3424	0.0000000E+000	0.0000000E+000	0.0000000E+000	90.3424	0.0000000E+000	0.0000000E+000	0.0000000E+000	-90.3424	0.0000000E+000	0.0000000E+000	0.0000000E+000	0.342408	0.0000000E+000	0.0000000E+000	0.0000000E+000	-0.342408	167.33	89.6576	3.39486e-07
31621.1	18.4566	-0.0564791	18.4566	0.175331	14.3999	0.000249708	-0.00204383	-89.1158	-0.000834498	1	11	0.0105266	0.000570341	0	-2.01149e-06	0.0541808	-0.000165799	0.054181	-0.175331	-0.834499	272.702	272.703	-90.1753	0.0000000E+000	0.0000000E+000	0.0000000E+000	90.1753	0.0000000E+000	0.0000000E+000	0.0000000E+000	-90.1753	0.0000000E+000	0.0000000E+000	0.0000000E+000	0.175331	0.0000000E+000	0.0000000E+000	0.0000000E+000	-0.175331	326.785	89.8247	-6.41647e-07
21544.7	18.4589	-0.0198395	18.4589	0.061581	14.8229	0.000240003	-0.00205018	-372.348	-0.000430127	1	11	0.0104658	0.000566975	0	-2.95998e-06	0.0541743	-5.8226e-05	0.0541743	-0.061581	-0.430152	400.196	400.196	-90.0616	0.0000000E+000	0.0000000E+000	0.0000000E+000	90.0616	0.0000000E+000	0.0000000E+000	0.0000000E+000	-90.0616	0.0000000E+000	0.0000000E+000	0.0000000E+000	0.061581	0.0000000E+000	0.0000000E+000	0.0000000E+000	-0.061581	930.413	89.9384	-9.48493e-07
14678.6	18.4452	-0.0035	18.4452	0.010872	15.2449	0.000249857	-0.00184184	-3097.9	-0.000111542	1	11	0.0104542	0.000566769	0	-2.72836e-06	0.0542146	-1.02873e-05	0.0542146	-0.010872	-0.111541	587.831	587.831	-90.0109	0.0000000E+000	0.0000000E+000	0.0000000E+000	90.0109	0.0000000E+000	0.0000000E+000	0.0000000E+000	-90.0109	0.0000000E+000	0.0000000E+000	0.0000000E+000	0.010872	0.0000000E+000	0.0000000E+000	0.0000000E+000	-0.010872	5270.05	89.9891	2.31622e-07
10002.2	18.4218	0.00645459	18.4218	-0.0200752	15.6669	0.000251776	-0.00175008	2465.22	0.000302642	1	11	0.0103439	0.000561504	0	-2.58277e-06	0.0542836	1.90198e-05	0.0542836	0.0200752	0.302608	863.759	863.759	-89.9799	0.0000000E+000	0.0000000E+000	0.0000000E+000	89.9799	0.0000000E+000	0.0000000E+000	0.0000000E+000	-89.9799	0.0000000E+000	0.0000000E+000	0.0000000E+000	-0.0200752	0.0000000E+000	0.0000000E+000	0.0000000E+000	0.0200752	2854.06	89.9799	1.45593e-07
6811.07	18.4461	0.0120431	18.4461	-0.0374072	16.2129	0.000214629	-0.0027744	1940.29	0.000827053	1	11	0.0102442	0.00055536	0	-3.79904e-06	0.054212	3.53939e-05	0.054212	0.0374072	0.827046	1266.78	1266.78	-89.9626	0.0000000E+000	0.0000000E+000	0.0000000E+000	89.9626	0.0000000E+000	0.0000000E+000	0.0000000E+000	-89.9626	0.0000000E+000	0.0000000E+000	0.0000000E+000	-0.0374072	0.0000000E+000	0.0000000E+000	0.0000000E+000	0.0374072	1531.68	89.9626	-1.21628e-06
4641.49	18.4577	0.0155178	18.4577	-0.0481699	16.9021	0.00023976	-0.00266734	2209.69	0.00156185	1	11	0.010102	0.000547306	0	-4.68398e-06	0.0541778	4.55486e-05	0.0541779	0.0481699	1.56191	1857.74	1857.74	-89.9518	0.0000000E+000	0.0000000E+000	0.0000000E+000	89.9518	0.0000000E+000	0.0000000E+000	0.0000000E+000	-89.9518	0.0000000E+000	0.0000000E+000	0.0000000E+000	-0.0481699	0.0000000E+000	0.0000000E+000	0.0000000E+000	0.0481699	1189.45	89.9518	-8.84934e-07
3161.01	18.4544	0.00692732	18.4544	-0.0215074	17.3671	0.000246467	-0.00198023	7268.23	0.00102414	1	11	0.0107731	0.000583768	0	-4.53668e-06	0.0541876	2.03407e-05	0.0541876	0.0215074	1.02413	2728.31	2728.31	-89.9785	0.0000000E+000	0.0000000E+000	0.0000000E+000	89.9785	0.0000000E+000	0.0000000E+000	0.0000000E+000	-89.9785	0.0000000E+000	0.0000000E+000	0.0000000E+000	-0.0215074	0.0000000E+000	0.0000000E+000	0.0000000E+000	0.0215074	2664	89.9785	1.47302e-07
2155.69	18.4596	0.00244372	18.4596	-0.00758493	18.0531	0.00024669	-0.00192782	30212.2	0.000529469	1	11	0.0101912	0.00055208	0	-4.8746e-06	0.0541723	7.17144e-06	0.0541723	0.00758493	0.529377	3999.55	3999.55	-89.9924	0.0000000E+000	0.0000000E+000	0.0000000E+000	89.9924	0.0000000E+000	0.0000000E+000	0.0000000E+000	-89.9924	0.0000000E+000	0.0000000E+000	0.0000000E+000	-0.00758493	0.0000000E+000	0.0000000E+000	0.0000000E+000	0.00758493	7553.9	89.9924	-3.37923e-07
1468.59	18.4484	0.0109527	18.4484	-0.034016	18.5193	0.000240114	-0.00248176	9894.61	0.00348756	1	11	0.0103578	0.000561445	0	-4.75598e-06	0.0542051	3.21812e-05	0.0542051	0.034016	3.48791	5874.35	5874.35	-89.966	0.0000000E+000	0.0000000E+000	0.0000000E+000	89.966	0.0000000E+000	0.0000000E+000	0.0000000E+000	-89.966	0.0000000E+000	0.0000000E+000	0.0000000E+000	-0.034016	0.0000000E+000	0.0000000E+000	0.0000000E+000	0.034016	1684.37	89.966	1.18617e-07
1000.32	18.4189	-0.00305422	18.4189	0.00950079	18.9831	0.000247771	-0.00211359	-52093.1	-0.00143237	1	11	0.0104268	0.000566092	0	-5.38753e-06	0.0542921	-9.00272e-06	0.0542921	-0.00950079	-1.43204	8638.09	8638.09	-90.0095	0.0000000E+000	0.0000000E+000	0.0000000E+000	90.0095	0.0000000E+000	0.0000000E+000	0.0000000E+000	-90.0095	0.0000000E+000	0.0000000E+000	0.0000000E+000	0.00950079	0.0000000E+000	0.0000000E+000	0.0000000E+000	-0.00950079	6030.63	89.9905	-6.31549e-07
681.09	18.4573	0.0120922	18.4573	-0.037537	19.4478	0.000235625	-0.0022891	19324.6	0.0082944	1	11	0.0104892	0.000568297	0	-5.4213e-06	0.0541792	3.54952e-05	0.0541792	0.037537	8.29432	12660.4	12660.4	-89.9625	0.0000000E+000	0.0000000E+000	0.0000000E+000	89.9625	0.0000000E+000	0.0000000E+000	0.0000000E+000	-89.9625	0.0000000E+000	0.0000000E+000	0.0000000E+000	-0.037537	0.0000000E+000	0.0000000E+000	0.0000000E+000	0.037537	1526.38	89.9625	-3.37735e-08
463.961	18.4502	0.0313296	18.4502	-0.0972918	19.9146	0.000255409	-0.00254667	10949.3	0.0315712	1	11	0.0105028	0.000569249	0	-5.41111e-06	0.0541999	9.20348e-05	0.0542	0.0972918	31.5706	18592.5	18592.5	-89.9027	0.0000000E+000	0.0000000E+000	0.0000000E+000	89.9027	0.0000000E+000	0.0000000E+000	0.0000000E+000	-89.9027	0.0000000E+000	0.0000000E+000	0.0000000E+000	-0.0972918	0.0000000E+000	0.0000000E+000	0.0000000E+000	0.0972918	588.906	89.9027	1.01988e-08
316.316	18.4398	0.0206109	18.4398	-0.0640416	20.3783	0.000230911	-0.00219491	24412	0.0304987	1	11	0.0105092	0.000569919	0	-5.11099e-06	0.0542304	6.06152e-05	0.0542304	0.0640416	30.4985	27286.1	27286.1	-89.936	0.0000000E+000	0.0000000E+000	0.0000000E+000	89.936	0.0000000E+000	0.0000000E+000	0.0000000E+000	-89.936	0.0000000E+000	0.0000000E+000	0.0000000E+000	-0.0640416	0.0000000E+000	0.0000000E+000	0.0000000E+000	0.0640416	894.665	89.936	3.0012e-07
215.345	18.4281	0.0433145	18.4282	-0.134671	20.8418	0.000228136	-0.00277794	17062.9	0.0942658	1	11	0.0105138	0.000570529	0	-5.59271e-06	0.0542646	0.000127546	0.0542647	0.134671	94.2681	40105.4	40105.5	-89.8653	0.0000000E+000	0.0000000E+000	0.0000000E+000	89.8653	0.0000000E+000	0.0000000E+000	0.0000000E+000	-89.8653	0.0000000E+000	0.0000000E+000	0.0000000E+000	-0.134671	0.0000000E+000	0.0000000E+000	0.0000000E+000	0.134671	425.45	89.8653	-4.81721e-07
146.737	18.4281	0.0445862	18.4282	-0.138625	21.3028	0.00024615	-0.00222046	24326.5	0.142401	1	11	0.0105215	0.000570944	0	-5.26293e-06	0.0542645	0.000131291	0.0542647	0.138625	142.403	58856.6	58856.8	-89.8614	0.0000000E+000	0.0000000E+000	0.0000000E+000	89.8614	0.0000000E+000	0.0000000E+000	0.0000000E+000	-89.8614	0.0000000E+000	0.0000000E+000	0.0000000E+000	-0.138625	0.0000000E+000	0.0000000E+000	0.0000000E+000	0.138625	413.315	89.8614	3.29782e-07
100.032	18.4314	0.0832028	18.4316	-0.258642	21.7681	0.000238792	-0.0030109	19122.4	0.389667	1	11	0.0105192	0.000570716	0	-5.66896e-06	0.0542541	0.000244913	0.0542547	0.258642	389.67	86320.5	86321.3	-89.7414	0.0000000E+000	0.0000000E+000	0.0000000E+000	89.7414	0.0000000E+000	0.0000000E+000	0.0000000E+000	-89.7414	0.0000000E+000	0.0000000E+000	0.0000000E+000	-0.258642	0.0000000E+000	0.0000000E+000	0.0000000E+000	0.258642	221.524	89.7414	-4.06038e-07
68.104	18.4361	0.0828389	18.4363	-0.257445	22.2447	0.000241921	-0.00171464	28210.7	0.569554	1	11	0.0105265	0.000570968	0	-5.87173e-06	0.0542403	0.000243718	0.0542408	0.257445	569.556	126756	126758	-89.7426	0.0000000E+000	0.0000000E+000	0.0000000E+000	89.7426	0.0000000E+000	0.0000000E+000	0.0000000E+000	-89.7426	0.0000000E+000	0.0000000E+000	0.0000000E+000	-0.257445	0.0000000E+000	0.0000000E+000	0.0000000E+000	0.257445	222.554	89.7426	-2.0277e-07
46.4415	18.4136	0.155385	18.4143	-0.483485	22.698	0.000234227	-0.00333282	22054.8	1.57042	1	11	0.0105255	0.000571593	0	-5.64222e-06	0.0543038	0.000458249	0.0543057	0.483485	1570.41	186099	186105	-89.5165	0.0000000E+000	0.0000000E+000	0.0000000E+000	89.5165	0.0000000E+000	0.0000000E+000	0.0000000E+000	-89.5165	0.0000000E+000	0.0000000E+000	0.0000000E+000	-0.483485	0.0000000E+000	0.0000000E+000	0.0000000E+000	0.483485	118.503	89.5165	2.29509e-07
31.6296	18.4165	0.170531	18.4173	-0.530525	23.1408	0.000230762	-0.00357883	29506.9	2.52975	1	11	0.0105298	0.000571732	0	-6.27764e-06	0.0542944	0.000502748	0.0542967	0.530525	2529.75	273201	273212	-89.4695	0.0000000E+000	0.0000000E+000	0.0000000E+000	89.4695	0.0000000E+000	0.0000000E+000	0.0000000E+000	-89.4695	0.0000000E+000	0.0000000E+000	0.0000000E+000	-0.530525	0.0000000E+000	0.0000000E+000	0.0000000E+000	0.530525	107.995	89.4695	-6.35419e-07
21.5517	18.4396	0.245582	18.4412	-0.763031	23.5767	0.000223106	-0.00370062	30070.6	5.3328	1	11	0.0105302	0.000571012	0	-5.18708e-06	0.0542215	0.000722133	0.0542263	0.763031	5332.8	400415	400450	-89.237	0.0000000E+000	0.0000000E+000	0.0000000E+000	89.237	0.0000000E+000	0.0000000E+000	0.0000000E+000	-89.237	0.0000000E+000	0.0000000E+000	0.0000000E+000	-0.763031	0.0000000E+000	0.0000000E+000	0.0000000E+000	0.763031	75.0853	89.237	1.09056e-06
14.6852	18.4355	0.312812	18.4381	-0.972099	24.0514	0.00024181	-0.00118756	34646.4	9.97223	1	11	0.0105267	0.000570921	0	-5.34584e-06	0.0542277	0.000920133	0.0542355	0.972099	9972.23	587709	587794	-89.0279	0.0000000E+000	0.0000000E+000	0.0000000E+000	89.0279	0.0000000E+000	0.0000000E+000	0.0000000E+000	-89.0279	0.0000000E+000	0.0000000E+000	0.0000000E+000	-0.972099	0.0000000E+000	0.0000000E+000	0.0000000E+000	0.972099	58.9346	89.0279	-1.58754e-07
10.0032	18.4191	0.444186	18.4245	-1.38145	24.5151	0.000232458	0.000234223	35819.2	20.8187	1	11	0.01053	0.000571522	0	-9.05064e-06	0.0542598	0.0013085	0.0542755	1.38145	20818.8	863295	863546	-88.6186	0.0000000E+000	0.0000000E+000	0.0000000E+000	88.6186	0.0000000E+000	0.0000000E+000	0.0000000E+000	-88.6186	0.0000000E+000	0.0000000E+000	0.0000000E+000	-1.38145	0.0000000E+000	0.0000000E+000	0.0000000E+000	1.38145	41.4672	88.6186	-3.7048e-06
6.81719	18.4601	0.684225	18.4728	-2.1227	24.8708	0.00021191	-0.003535	34120.5	46.811	1	11	0.0105339	0.000570238	0	-5.55435e-06	0.0540965	0.00200509	0.0541336	2.1227	46811	1.26294e+06	1.26381e+06	-87.8773	0.0000000E+000	0.0000000E+000	0.0000000E+000	87.8773	0.0000000E+000	0.0000000E+000	0.0000000E+000	-87.8773	0.0000000E+000	0.0000000E+000	0.0000000E+000	-2.1227	0.0000000E+000	0.0000000E+000	0.0000000E+000	2.1227	26.9796	87.8773	3.49629e-06
4.63925	18.4294	0.996368	18.4563	-3.09463	25.3707	0.000236184	-0.000620375	34431.2	100.346	1	11	0.0105331	0.000570704	0	-1.31548e-05	0.0541029	0.00292502	0.054182	3.09463	100346	1.85606e+06	1.85878e+06	-86.9054	0.0000000E+000	0.0000000E+000	0.0000000E+000	86.9054	0.0000000E+000	0.0000000E+000	0.0000000E+000	-86.9054	0.0000000E+000	0.0000000E+000	0.0000000E+000	-3.09463	0.0000000E+000	0.0000000E+000	0.0000000E+000	3.09463	18.4966	86.9054	-7.60046e-06
3.1604	18.4431	1.47528	18.502	-4.57341	26.0786	0.000227651	-0.00790618	34135.3	217.028	1	11	0.0105402	0.000569678	0	-9.68793e-06	0.0538761	0.0043096	0.0540482	4.57341	217028	2.71316e+06	2.72182e+06	-85.4266	0.0000000E+000	0.0000000E+000	0.0000000E+000	85.4266	0.0000000E+000	0.0000000E+000	0.0000000E+000	-85.4266	0.0000000E+000	0.0000000E+000	0.0000000E+000	-4.57341	0.0000000E+000	0.0000000E+000	0.0000000E+000	4.57341	12.5014	85.4266	3.46688e-06
2.15577	18.4093	2.12039	18.531	-6.57038	27.0941	0.000237511	-0.00296026	34817.9	455.863	1	11	0.0105376	0.000568644	0	-9.57536e-08	0.0536091	0.0061747	0.0539635	6.57038	455863	3.95783e+06	3.98399e+06	-83.4296	0.0000000E+000	0.0000000E+000	0.0000000E+000	83.4296	0.0000000E+000	0.0000000E+000	0.0000000E+000	-83.4296	0.0000000E+000	0.0000000E+000	0.0000000E+000	-6.57038	0.0000000E+000	0.0000000E+000	0.0000000E+000	6.57038	8.68205	83.4296	9.59218e-06
1.46631	18.5231	3.13428	18.7864	-9.604	28.5675	0.000246961	0.00321513	34630.4	963.929	1	11	0.0105424	0.000561172	0	2.5493e-06	0.052484	0.00888077	0.05323	9.604	963929	5.69667e+06	5.77765e+06	-80.396	0.0000000E+000	0.0000000E+000	0.0000000E+000	80.396	0.0000000E+000	0.0000000E+000	0.0000000E+000	-80.396	0.0000000E+000	0.0000000E+000	0.0000000E+000	-9.604	0.0000000E+000	0.0000000E+000	0.0000000E+000	9.604	5.90984	80.396	2.64506e-06
1.00006	18.4385	4.66997	19.0207	-14.2126	30.7067	0.000243694	0.000646555	34078.3	2054.25	1	11	0.0105435	0.000554318	0	-1.11568e-05	0.0509651	0.0129081	0.0525743	14.2126	2.05425e+06	8.11083e+06	8.36693e+06	-75.7874	0.0000000E+000	0.0000000E+000	0.0000000E+000	75.7874	0.0000000E+000	0.0000000E+000	0.0000000E+000	-75.7874	0.0000000E+000	0.0000000E+000	0.0000000E+000	-14.2126	0.0000000E+000	0.0000000E+000	0.0000000E+000	14.2126	3.94831	75.7874	-1.37061e-05
0.681362	18.4811	6.63886	19.6373	-19.7595	33.8264	0.000245847	-0.0024642	35184.3	4021.33	1	11	0.0105427	0.000536871	0	-3.71944e-05	0.047925	0.0172158	0.0509234	19.7595	4.02133e+06	1.11945e+07	1.18949e+07	-70.2405	0.0000000E+000	0.0000000E+000	0.0000000E+000	70.2405	0.0000000E+000	0.0000000E+000	0.0000000E+000	-70.2405	0.0000000E+000	0.0000000E+000	0.0000000E+000	-19.7595	0.0000000E+000	0.0000000E+000	0.0000000E+000	19.7595	2.78378	70.2405	-2.60376e-05
0.464091	18.8865	9.75385	21.2564	-27.3139	38.391	0.000246614	-0.00256994	35159.4	7403.07	1	11	0.0105424	0.000495961	0	-6.07526e-05	0.0417994	0.0215871	0.0470445	27.3139	7.40307e+06	1.43346e+07	1.61334e+07	-62.6861	0.0000000E+000	0.0000000E+000	0.0000000E+000	62.6861	0.0000000E+000	0.0000000E+000	0.0000000E+000	-62.6861	0.0000000E+000	0.0000000E+000	0.0000000E+000	-27.3139	0.0000000E+000	0.0000000E+000	0.0000000E+000	27.3139	1.93631	62.6861	-2.35582e-05
0.316193	18.8143	14.3907	23.687	-37.4117	45.0714	0.000245354	-0.00198774	34977.2	12910.2	1	11	0.0105454	0.0004452	0	-4.72025e-05	0.0335328	0.0256487	0.0422173	37.4117	1.29102e+07	1.68787e+07	2.125e+07	-52.5883	0.0000000E+000	0.0000000E+000	0.0000000E+000	52.5883	0.0000000E+000	0.0000000E+000	0.0000000E+000	-52.5883	0.0000000E+000	0.0000000E+000	0.0000000E+000	-37.4117	0.0000000E+000	0.0000000E+000	0.0000000E+000	37.4117	1.30739	52.5883	1.35501e-05
0.215268	18.9729	20.4998	27.9323	-47.2152	54.8692	0.000240353	-0.00194358	36065.5	19425.7	1	11	0.0105474	0.000377608	0	6.03489e-06	0.0243176	0.0262746	0.0358009	47.2152	1.94257e+07	1.79789e+07	2.64688e+07	-42.7848	0.0000000E+000	0.0000000E+000	0.0000000E+000	42.7848	0.0000000E+000	0.0000000E+000	0.0000000E+000	-42.7848	0.0000000E+000	0.0000000E+000	0.0000000E+000	-47.2152	0.0000000E+000	0.0000000E+000	0.0000000E+000	47.2152	0.925518	42.7848	5.32374e-05
0.146929	19.5448	29.8693	35.6956	-56.8014	69.2048	0.000237691	-0.00188577	36265	25392.7	1	11	0.0105443	0.000295396	0	5.10247e-05	0.0153392	0.0234421	0.0280147	56.8014	2.53927e+07	1.66156e+07	3.03458e+07	-33.1986	0.0000000E+000	0.0000000E+000	0.0000000E+000	33.1986	0.0000000E+000	0.0000000E+000	0.0000000E+000	-33.1986	0.0000000E+000	0.0000000E+000	0.0000000E+000	-56.8014	0.0000000E+000	0.0000000E+000	0.0000000E+000	56.8014	0.654346	33.1985	4.49898e-05
0.0999041	19.9498	43.8516	48.1764	-65.5373	90.2746	0.000231254	-0.00196416	36328.8	30099.2	1	11	0.0105445	0.000218873	0	3.85391e-05	0.00859551	0.0188937	0.0207571	65.5373	3.00992e+07	1.36933e+07	3.30676e+07	-24.4627	0.0000000E+000	0.0000000E+000	0.0000000E+000	24.4627	0.0000000E+000	0.0000000E+000	0.0000000E+000	-24.4627	0.0000000E+000	0.0000000E+000	0.0000000E+000	-65.5373	0.0000000E+000	0.0000000E+000	0.0000000E+000	65.5373	0.45494	24.4627	-1.24856e-05