File: ACS_Catal_2026/Figures_Na_K/main_figures/data/EC/20240514_2-139_kinetics_test/20240514_2-139_kinetic_test_02_PEIS_C01.mpt
EC-Lab ASCII FILE
Nb header lines : 63

Potentio Electrochemical Impedance Spectroscopy

Run on channel : 1 (SN 66416)
User :
CE vs. WE compliance from -10 V to 10 V
Electrode connection : standard
Potential control : Ewe
Ewe ctrl range : min = -1.00 V, max = 1.00 V
Safety Limits :
	Do not start on E overload
Acquisition started on : 05/14/2024 14:49:10.521
Loaded Setting File :  E:\20240328_2-129_K_Na_diff\20240401_2-128_CV_cycles_alpha_gamma\20240328_2-128_001_alpha_K-1.mps
Saved on :
	File : 20240514_2-139_kinetic_test_02_PEIS_C01.mpr
	Directory : C:\Users\HZ-7000\Documents\EC-Lab\Data\Yatsuzuka\20240514_2-139_kinetics_test\
	Host : 192.109.209.100
Device : SP-150e (SN .003466)
Address : 192.109.209.128
EC-Lab for windows v11.50 (software)
Internet server v11.50 (firmware)
Command interpretor v11.50 (firmware)
Electrode material :
Initial state :
Electrolyte :
Comments :
Electrode surface area : 0.001 cm2
Characteristic mass : 0.001 g
Equivalent Weight : 0.000 g/eq.
Density : 0.000 g/cm3
Volume (V) : 0.001 cm3
Cycle Definition : Charge/Discharge alternance
Mode                Single sine
E (V)               0.4500
vs.                 Ref
tE (h:m:s)          0:00:0.0000
record              0
dI                  0.000
unit dI             mA
dt (s)              0.000
fi                  500.000
unit fi             kHz
ff                  1.000
unit ff             Hz
Nd                  6
Points              per decade
spacing             Logarithmic
Va (mV)             10.0
pw                  0.10
Na                  2
corr                0
E range min (V)     -1.000
E range max (V)     1.000
I Range             Auto
Bandwidth           5
nc cycles           0
goto Ns'            0
nr cycles           0
inc. cycle          0

freq/Hz	Re(Z)/Ohm	-Im(Z)/Ohm	|Z|/Ohm	Phase(Z)/deg	time/s	<Ewe>/V	<I>/mA	Cs/uF	Cp/uF	cycle number	I Range	|Ewe|/V	|I|/A	Ns	(Q-Qo)/mA.h	Re(Y)/Ohm-1	Im(Y)/Ohm-1	|Y|/Ohm-1	Phase(Y)/deg	Re(C)/nF	Im(C)/nF	|C|/nF	Phase(C)/deg	Re(M)	Im(M)	|M|	Phase(M)/deg	Re(Permittivity)	Im(Permittivity)	|Permittivity|	Phase(Permittivity)/deg	Re(Resistivity)/Ohm.cm	Im(Resistivity)/Ohm.cm	|Resistivity|/Ohm.cm	Phase(Resistivity)/deg	Re(Conductivity)/mS/cm	Im(Conductivity)/mS/cm	|Conductivity|/mS/cm	Phase(Conductivity)/deg	Tan(Delta)	Loss Angle(Delta)/deg	dq/mA.h
500019	27.7514	-2.17022	27.8361	4.47157	200.88	0.449652	0.451194	-0.146666	-0.0008915	1	10	0.0115194	0.000413828	0	0.00048397	0.0358152	-0.00280084	0.0359246	-4.47157	-0.8915	11.3999	11.4347	-94.4716	0.0000000E+000	0.0000000E+000	0.0000000E+000	94.4716	0.0000000E+000	0.0000000E+000	0.0000000E+000	-94.4716	0.0000000E+000	0.0000000E+000	0.0000000E+000	4.47157	0.0000000E+000	0.0000000E+000	0.0000000E+000	-4.47157	12.7873	85.5284	0.00048397
339899	17.7069	-3.73917	18.0974	11.924	201.302	0.449594	0.177019	-0.125226	-0.00534583	1	10	0.0106276	0.000587244	0	0.000510643	0.0540644	-0.0114168	0.0552567	-11.924	-5.34583	25.3152	25.8735	-101.924	0.0000000E+000	0.0000000E+000	0.0000000E+000	101.924	0.0000000E+000	0.0000000E+000	0.0000000E+000	-101.924	0.0000000E+000	0.0000000E+000	0.0000000E+000	11.924	0.0000000E+000	0.0000000E+000	0.0000000E+000	-11.924	4.7355	78.076	2.66731e-05
231063	14.122	-2.311	14.3098	9.2938	201.725	0.449561	0.108399	-0.298052	-0.00777358	1	10	0.0108409	0.000757582	0	0.00052628	0.0689647	-0.0112857	0.069882	-9.2938	-7.77357	47.5026	48.1345	-99.2938	0.0000000E+000	0.0000000E+000	0.0000000E+000	99.2938	0.0000000E+000	0.0000000E+000	0.0000000E+000	-99.2938	0.0000000E+000	0.0000000E+000	0.0000000E+000	9.2938	0.0000000E+000	0.0000000E+000	0.0000000E+000	-9.2938	6.11078	80.7062	1.56366e-05
157076	13.0227	-1.22715	13.0804	5.38317	202.284	0.449565	0.0803634	-0.825686	-0.00726721	1	10	0.0101038	0.000772437	0	0.000540895	0.0761133	-0.00717227	0.0764505	-5.38317	-7.26721	77.1208	77.4625	-95.3832	0.0000000E+000	0.0000000E+000	0.0000000E+000	95.3832	0.0000000E+000	0.0000000E+000	0.0000000E+000	-95.3832	0.0000000E+000	0.0000000E+000	0.0000000E+000	5.38317	0.0000000E+000	0.0000000E+000	0.0000000E+000	-5.38317	10.6122	84.6168	1.46148e-05
106786	12.7189	-0.687095	12.7374	3.09221	202.706	0.449565	0.0694993	-2.16914	-0.00631187	1	10	0.0106923	0.000839439	0	0.000550496	0.0783945	-0.004235	0.0785088	-3.09221	-6.31187	116.84	117.01	-93.0922	0.0000000E+000	0.0000000E+000	0.0000000E+000	93.0922	0.0000000E+000	0.0000000E+000	0.0000000E+000	-93.0922	0.0000000E+000	0.0000000E+000	0.0000000E+000	3.09221	0.0000000E+000	0.0000000E+000	0.0000000E+000	-3.09221	18.5111	86.9078	9.60064e-06
72595	12.6131	-0.415009	12.6199	1.88452	203.128	0.449568	0.0620482	-5.2827	-0.00571289	1	10	0.0105839	0.000838666	0	0.000557493	0.0791968	-0.00260581	0.0792397	-1.88452	-5.71289	173.629	173.722	-91.8845	0.0000000E+000	0.0000000E+000	0.0000000E+000	91.8845	0.0000000E+000	0.0000000E+000	0.0000000E+000	-91.8845	0.0000000E+000	0.0000000E+000	0.0000000E+000	1.88452	0.0000000E+000	0.0000000E+000	0.0000000E+000	-1.88452	30.3924	88.1155	6.99768e-06
49352.4	12.5623	-0.269094	12.5652	1.22713	203.55	0.449571	0.057092	-11.9842	-0.00549639	1	10	0.0104953	0.000835265	0	0.000563511	0.0795667	-0.00170437	0.0795849	-1.22713	-5.49638	256.592	256.651	-91.2271	0.0000000E+000	0.0000000E+000	0.0000000E+000	91.2271	0.0000000E+000	0.0000000E+000	0.0000000E+000	-91.2271	0.0000000E+000	0.0000000E+000	0.0000000E+000	1.22713	0.0000000E+000	0.0000000E+000	0.0000000E+000	-1.22713	46.6838	88.7729	6.01763e-06
33551.1	12.5335	-0.177816	12.5347	0.81282	203.972	0.449571	0.0548397	-26.6773	-0.00536854	1	10	0.0104443	0.000833229	0	0.000571479	0.0797703	-0.00113173	0.0797784	-0.81282	-5.36854	378.404	378.442	-90.8128	0.0000000E+000	0.0000000E+000	0.0000000E+000	90.8128	0.0000000E+000	0.0000000E+000	0.0000000E+000	-90.8128	0.0000000E+000	0.0000000E+000	0.0000000E+000	0.81282	0.0000000E+000	0.0000000E+000	0.0000000E+000	-0.81282	70.4854	89.1872	7.96861e-06
22806.6	12.5192	-0.111265	12.5197	0.509204	204.394	0.449574	0.0548509	-62.7196	-0.00495371	1	10	0.010361	0.00082758	0	0.000577136	0.0798711	-0.000709856	0.0798742	-0.509204	-4.95368	557.378	557.4	-90.5092	0.0000000E+000	0.0000000E+000	0.0000000E+000	90.5092	0.0000000E+000	0.0000000E+000	0.0000000E+000	-90.5092	0.0000000E+000	0.0000000E+000	0.0000000E+000	0.509204	0.0000000E+000	0.0000000E+000	0.0000000E+000	-0.509204	112.517	89.4908	5.65695e-06
15504.4	12.5009	-0.0770734	12.5011	0.35325	204.816	0.449582	0.0548976	-133.187	-0.00506261	1	10	0.0101617	0.000812867	0	0.000584963	0.0799915	-0.000493183	0.079993	-0.35325	-5.06259	821.126	821.141	-90.3532	0.0000000E+000	0.0000000E+000	0.0000000E+000	90.3532	0.0000000E+000	0.0000000E+000	0.0000000E+000	-90.3532	0.0000000E+000	0.0000000E+000	0.0000000E+000	0.35325	0.0000000E+000	0.0000000E+000	0.0000000E+000	-0.35325	162.194	89.6468	7.82712e-06
10540.4	12.5067	-0.0547529	12.5068	0.250833	205.238	0.449575	0.0547072	-275.776	-0.00528541	1	10	0.0101202	0.000809173	0	0.000590821	0.0799558	-0.000350038	0.0799566	-0.250833	-5.28538	1207.3	1207.31	-90.2508	0.0000000E+000	0.0000000E+000	0.0000000E+000	90.2508	0.0000000E+000	0.0000000E+000	0.0000000E+000	-90.2508	0.0000000E+000	0.0000000E+000	0.0000000E+000	0.250833	0.0000000E+000	0.0000000E+000	0.0000000E+000	-0.250833	228.42	89.7492	5.85772e-06
7163.78	12.5074	-0.0380556	12.5074	0.17433	205.595	0.449573	0.0502399	-583.794	-0.00540454	1	10	0.0107404	0.000858718	0	0.000596378	0.079952	-0.000243266	0.0799524	-0.17433	-5.40458	1776.26	1776.27	-90.1743	0.0000000E+000	0.0000000E+000	0.0000000E+000	90.1743	0.0000000E+000	0.0000000E+000	0.0000000E+000	-90.1743	0.0000000E+000	0.0000000E+000	0.0000000E+000	0.17433	0.0000000E+000	0.0000000E+000	0.0000000E+000	-0.17433	328.661	89.8257	5.55675e-06
4871.56	12.5025	-0.0188803	12.5025	0.0865238	206.285	0.449592	0.0495793	-1730.39	-0.00394611	1	10	0.0101067	0.000808379	0	0.000604161	0.0799841	-0.000120786	0.0799842	-0.0865238	-3.94616	2613.1	2613.1	-90.0865	0.0000000E+000	0.0000000E+000	0.0000000E+000	90.0865	0.0000000E+000	0.0000000E+000	0.0000000E+000	-90.0865	0.0000000E+000	0.0000000E+000	0.0000000E+000	0.0865238	0.0000000E+000	0.0000000E+000	0.0000000E+000	-0.0865238	662.196	89.9135	7.78337e-06
3311.06	12.5022	-0.0153584	12.5022	0.0703851	206.75	0.449595	0.0499749	-3129.74	-0.00472307	1	10	0.0102541	0.000820186	0	0.000610402	0.0799857	-9.82587e-05	0.0799858	-0.0703851	-4.72331	3844.73	3844.73	-90.0704	0.0000000E+000	0.0000000E+000	0.0000000E+000	90.0704	0.0000000E+000	0.0000000E+000	0.0000000E+000	-90.0704	0.0000000E+000	0.0000000E+000	0.0000000E+000	0.0703851	0.0000000E+000	0.0000000E+000	0.0000000E+000	-0.0703851	814.032	89.9296	6.24095e-06
2250.72	12.5056	-0.00491623	12.5056	0.0225243	207.215	0.449594	0.0480958	-14383.6	-0.00222291	1	10	0.010319	0.000825153	0	0.000617006	0.0799641	-3.14357e-05	0.0799642	-0.0225243	-2.22268	5654.5	5654.5	-90.0225	0.0000000E+000	0.0000000E+000	0.0000000E+000	90.0225	0.0000000E+000	0.0000000E+000	0.0000000E+000	-90.0225	0.0000000E+000	0.0000000E+000	0.0000000E+000	0.0225243	0.0000000E+000	0.0000000E+000	0.0000000E+000	-0.0225243	2543.74	89.9775	6.60393e-06
1530.49	12.5008	-0.00445789	12.5008	0.0204321	207.68	0.449592	0.0477954	-23327.1	-0.00296647	1	10	0.0103566	0.00082847	0	0.000623235	0.0799946	-2.85267e-05	0.0799947	-0.0204321	-2.96639	8318.61	8318.61	-90.0204	0.0000000E+000	0.0000000E+000	0.0000000E+000	90.0204	0.0000000E+000	0.0000000E+000	0.0000000E+000	-90.0204	0.0000000E+000	0.0000000E+000	0.0000000E+000	0.0204321	0.0000000E+000	0.0000000E+000	0.0000000E+000	-0.0204321	2804.21	89.9796	6.22899e-06
1040.33	12.5086	0.0139988	12.5086	-0.0641218	208.145	0.449583	0.0469389	10928.4	0.0136875	1	10	0.010373	0.00082927	0	0.000628667	0.079945	8.94695e-05	0.0799451	0.0641218	13.6881	12230.4	12230.4	-89.9359	0.0000000E+000	0.0000000E+000	0.0000000E+000	89.9359	0.0000000E+000	0.0000000E+000	0.0000000E+000	-89.9359	0.0000000E+000	0.0000000E+000	0.0000000E+000	-0.0641218	0.0000000E+000	0.0000000E+000	0.0000000E+000	0.0641218	893.545	89.9359	5.43198e-06
707.036	12.5093	0.017221	12.5093	-0.0788763	208.61	0.449588	0.0455599	13071.3	0.0247724	1	10	0.0103842	0.000830119	0	0.000634557	0.0799402	0.00011005	0.0799403	0.0788763	24.7713	17994.7	17994.7	-89.9211	0.0000000E+000	0.0000000E+000	0.0000000E+000	89.9211	0.0000000E+000	0.0000000E+000	0.0000000E+000	-89.9211	0.0000000E+000	0.0000000E+000	0.0000000E+000	-0.0788763	0.0000000E+000	0.0000000E+000	0.0000000E+000	0.0788763	726.4	89.9211	5.8902e-06
480.769	12.4977	0.0250376	12.4977	-0.114785	209.075	0.449584	0.0458622	13221.8	0.0530657	1	10	0.0103819	0.000830701	0	0.000640341	0.0800144	0.000160299	0.0800145	0.114785	53.0654	26488.1	26488.2	-89.8852	0.0000000E+000	0.0000000E+000	0.0000000E+000	89.8852	0.0000000E+000	0.0000000E+000	0.0000000E+000	-89.8852	0.0000000E+000	0.0000000E+000	0.0000000E+000	-0.114785	0.0000000E+000	0.0000000E+000	0.0000000E+000	0.114785	499.158	89.8852	5.78351e-06
326.778	12.5176	0.0340508	12.5177	-0.155857	209.538	0.449584	0.0436509	14303.4	0.10584	1	10	0.0103897	0.000830001	0	0.000645676	0.0798868	0.00021731	0.0798871	0.155857	105.842	38908.3	38908.5	-89.8441	0.0000000E+000	0.0000000E+000	0.0000000E+000	89.8441	0.0000000E+000	0.0000000E+000	0.0000000E+000	-89.8441	0.0000000E+000	0.0000000E+000	0.0000000E+000	-0.155857	0.0000000E+000	0.0000000E+000	0.0000000E+000	0.155857	367.616	89.8441	5.33522e-06
222.061	12.5053	0.0478461	12.5054	-0.219217	209.999	0.449579	0.04489	14979.7	0.219281	1	10	0.0103889	0.000830752	0	0.000651891	0.079965	0.000305952	0.0799656	0.219217	219.28	57312.4	57312.8	-89.7808	0.0000000E+000	0.0000000E+000	0.0000000E+000	89.7808	0.0000000E+000	0.0000000E+000	0.0000000E+000	-89.7808	0.0000000E+000	0.0000000E+000	0.0000000E+000	-0.219217	0.0000000E+000	0.0000000E+000	0.0000000E+000	0.219217	261.365	89.7808	6.21513e-06
151.015	12.518	0.077815	12.5182	-0.35616	210.463	0.449584	0.0430445	13543.7	0.523332	1	10	0.0103944	0.00083034	0	0.000657087	0.0798819	0.000496566	0.0798834	0.35616	523.336	84187.7	84189.3	-89.6438	0.0000000E+000	0.0000000E+000	0.0000000E+000	89.6438	0.0000000E+000	0.0000000E+000	0.0000000E+000	-89.6438	0.0000000E+000	0.0000000E+000	0.0000000E+000	-0.35616	0.0000000E+000	0.0000000E+000	0.0000000E+000	0.35616	160.869	89.6438	5.19585e-06
102.667	12.5179	0.100957	12.5183	-0.462082	210.938	0.449591	0.0449534	15355	0.998695	1	10	0.0103929	0.000830216	0	0.000662188	0.0798802	0.000644236	0.0798828	0.462082	998.695	123830	123834	-89.5379	0.0000000E+000	0.0000000E+000	0.0000000E+000	89.5379	0.0000000E+000	0.0000000E+000	0.0000000E+000	-89.5379	0.0000000E+000	0.0000000E+000	0.0000000E+000	-0.462082	0.0000000E+000	0.0000000E+000	0.0000000E+000	0.462082	123.992	89.5379	5.10137e-06
69.7545	12.5136	0.149486	12.5145	-0.684414	211.405	0.449589	0.0426918	15263.3	2.17781	1	10	0.0103885	0.000830113	0	0.000667598	0.0799016	0.000954492	0.0799073	0.684414	2177.82	182307	182320	-89.3156	0.0000000E+000	0.0000000E+000	0.0000000E+000	89.3156	0.0000000E+000	0.0000000E+000	0.0000000E+000	-89.3156	0.0000000E+000	0.0000000E+000	0.0000000E+000	-0.684414	0.0000000E+000	0.0000000E+000	0.0000000E+000	0.684414	83.7111	89.3156	5.40984e-06
47.4443	12.5262	0.230393	12.5283	-1.05371	211.849	0.449572	0.0416169	14560.2	4.924	1	10	0.0103908	0.000829381	0	0.000672027	0.0798056	0.00146785	0.0798191	1.05371	4923.99	267713	267758	-88.9463	0.0000000E+000	0.0000000E+000	0.0000000E+000	88.9463	0.0000000E+000	0.0000000E+000	0.0000000E+000	-88.9463	0.0000000E+000	0.0000000E+000	0.0000000E+000	-1.05371	0.0000000E+000	0.0000000E+000	0.0000000E+000	1.05371	54.369	88.9463	4.42821e-06
32.2387	12.5294	0.296823	12.533	-1.35709	212.285	0.449565	0.0422421	16632	9.32898	1	10	0.0103897	0.00082899	0	0.000676438	0.0797672	0.00188969	0.0797896	1.35709	9328.97	393793	393903	-88.6429	0.0000000E+000	0.0000000E+000	0.0000000E+000	88.6429	0.0000000E+000	0.0000000E+000	0.0000000E+000	-88.6429	0.0000000E+000	0.0000000E+000	0.0000000E+000	-1.35709	0.0000000E+000	0.0000000E+000	0.0000000E+000	1.35709	42.2118	88.6429	4.41169e-06
21.9144	12.527	0.426209	12.5343	-1.94863	212.716	0.449568	0.0433747	17039.9	19.7021	1	10	0.0103995	0.000829687	0	0.000680087	0.079735	0.00271283	0.0797812	1.94863	19702.1	579080	579415	-88.0514	0.0000000E+000	0.0000000E+000	0.0000000E+000	88.0514	0.0000000E+000	0.0000000E+000	0.0000000E+000	-88.0514	0.0000000E+000	0.0000000E+000	0.0000000E+000	-1.94863	0.0000000E+000	0.0000000E+000	0.0000000E+000	1.94863	29.3918	88.0514	3.64928e-06
14.9093	12.6953	0.610437	12.71	-2.75287	213.183	0.449589	0.0399897	17487.2	40.3377	1	10	0.0103946	0.000817826	0	0.000686244	0.0785874	0.00377877	0.0786782	2.75287	40337.8	838908	839878	-87.2471	0.0000000E+000	0.0000000E+000	0.0000000E+000	87.2471	0.0000000E+000	0.0000000E+000	0.0000000E+000	-87.2471	0.0000000E+000	0.0000000E+000	0.0000000E+000	-2.75287	0.0000000E+000	0.0000000E+000	0.0000000E+000	2.75287	20.7971	87.2471	6.15658e-06
10.1329	12.6362	0.893058	12.6677	-4.04264	213.893	0.449582	0.0236899	17587.5	87.4115	1	11	0.0103906	0.000820242	0	0.000689912	0.0787445	0.00556524	0.0789409	4.04264	87411.6	1.23682e+06	1.2399e+06	-85.9574	0.0000000E+000	0.0000000E+000	0.0000000E+000	85.9574	0.0000000E+000	0.0000000E+000	0.0000000E+000	-85.9574	0.0000000E+000	0.0000000E+000	0.0000000E+000	-4.04264	0.0000000E+000	0.0000000E+000	0.0000000E+000	4.04264	14.1493	85.9574	3.66785e-06
6.88933	12.5892	1.33904	12.6602	-6.07141	214.246	0.449577	0.0171609	17252.4	193	1	11	0.0103941	0.000821009	0	0.000700101	0.0785448	0.00835439	0.0789879	6.07141	193000	1.81452e+06	1.82475e+06	-83.9286	0.0000000E+000	0.0000000E+000	0.0000000E+000	83.9286	0.0000000E+000	0.0000000E+000	0.0000000E+000	-83.9286	0.0000000E+000	0.0000000E+000	0.0000000E+000	-6.07141	0.0000000E+000	0.0000000E+000	0.0000000E+000	6.07141	9.40163	83.9286	1.01894e-05
4.68375	12.6184	1.95317	12.7686	-8.79887	214.743	0.449589	0.0286671	17397.4	407.078	1	11	0.0103926	0.000813919	0	0.00069317	0.0773952	0.0119798	0.0783169	8.79887	407078	2.6299e+06	2.66122e+06	-81.2011	0.0000000E+000	0.0000000E+000	0.0000000E+000	81.2011	0.0000000E+000	0.0000000E+000	0.0000000E+000	-81.2011	0.0000000E+000	0.0000000E+000	0.0000000E+000	-8.79887	0.0000000E+000	0.0000000E+000	0.0000000E+000	8.79887	6.46045	81.2011	-6.93169e-06
3.18099	12.7491	2.82614	13.0586	-12.4988	215.445	0.44959	0.0191224	17703.8	829.2	1	11	0.010396	0.000796101	0	0.000697191	0.0747631	0.016573	0.076578	12.4988	829200	3.74064e+06	3.83144e+06	-77.5012	0.0000000E+000	0.0000000E+000	0.0000000E+000	77.5012	0.0000000E+000	0.0000000E+000	0.0000000E+000	-77.5012	0.0000000E+000	0.0000000E+000	0.0000000E+000	-12.4988	0.0000000E+000	0.0000000E+000	0.0000000E+000	12.4988	4.51114	77.5012	4.02184e-06
2.16533	12.7135	4.09015	13.3552	-17.8338	216.456	0.449602	0.023438	17970.4	1685.51	1	11	0.0103987	0.000778625	0	0.000718991	0.071279	0.0229316	0.074877	17.8338	1.68551e+06	5.23912e+06	5.50357e+06	-72.1662	0.0000000E+000	0.0000000E+000	0.0000000E+000	72.1662	0.0000000E+000	0.0000000E+000	0.0000000E+000	-72.1662	0.0000000E+000	0.0000000E+000	0.0000000E+000	-17.8338	0.0000000E+000	0.0000000E+000	0.0000000E+000	17.8338	3.10833	72.1662	2.17997e-05
1.46962	13.0266	5.93102	14.3133	-24.4798	217.926	0.449603	0.0250765	18259.4	3135.21	1	11	0.0103972	0.000726406	0	0.000739121	0.0635849	0.0289502	0.0698653	24.4798	3.13521e+06	6.88603e+06	7.56617e+06	-65.5202	0.0000000E+000	0.0000000E+000	0.0000000E+000	65.5202	0.0000000E+000	0.0000000E+000	0.0000000E+000	-65.5202	0.0000000E+000	0.0000000E+000	0.0000000E+000	-24.4798	0.0000000E+000	0.0000000E+000	0.0000000E+000	24.4798	2.19635	65.5202	2.01298e-05
1.00006	13.0599	8.75414	15.7224	-33.8343	220.066	0.449603	0.0235574	18179.4	5635.94	1	11	0.0103973	0.000661302	0	0.000739758	0.0528322	0.0354139	0.0636034	33.8343	5.63594e+06	8.40798e+06	1.01221e+07	-56.1657	0.0000000E+000	0.0000000E+000	0.0000000E+000	56.1657	0.0000000E+000	0.0000000E+000	0.0000000E+000	-56.1657	0.0000000E+000	0.0000000E+000	0.0000000E+000	-33.8343	0.0000000E+000	0.0000000E+000	0.0000000E+000	33.8343	1.49185	56.1657	6.37282e-07