File: ACS_Catal_2026/Figures_Na_K/main_figures/data/EC/20240527_2-145_re-addition/20240527_2-145_inK_01_CVA_C02.mpt
EC-Lab ASCII FILE
Nb header lines : 66

Cyclic Voltammetry Advanced

Run on channel : 2 (SN 68855)
User :
CE vs. WE compliance from -10 V to 10 V
Electrode connection : standard
Potential control : Ewe
Ewe ctrl range : min = -1.00 V, max = 1.00 V
Safety Limits :
	Do not start on E overload
Acquisition started on : 05/28/2024 11:18:57.125
Loaded Setting File :  C:\Users\HZ-7000\Documents\EC-Lab\Data\Yatsuzuka\20240502_2-136_UPS_preparation\20240502_2-136_UPS_preparation_K-1.mps
Saved on :
	File : 20240527_2-145_inK_01_CVA_C02.mpr
	Directory : C:\Users\HZ-7000\Documents\EC-Lab\Data\Yatsuzuka\20240527_2-145_re-addition\
	Host : 192.109.209.100
Device : SP-150e (SN .003466)
Address : 192.109.209.128
EC-Lab for windows v11.50 (software)
Internet server v11.50 (firmware)
Command interpretor v11.50 (firmware)
Electrode material :
Initial state :
Electrolyte :
Comments :
Electrode surface area : 0.001 cm2
Characteristic mass : 0.001 g
Equivalent Weight : 0.000 g/eq.
Density : 0.000 g/cm3
Volume (V) : 0.001 cm3
Cycle Definition : Charge/Discharge alternance
Ei (V)              0.350
vs.                 Ref
ti (h:m:s)          0:00:10.0000
dti (s)             0.0000
dE/dt               10.000
dE/dt unit          mV/s
E1 (V)              0.450
vs.                 Ref
t1 (h:m:s)          0:00:0.0000
dt1 (s)             0.1000
Step percent        50
N                   10
E range min (V)     -1.000
E range max (V)     1.000
I Range             Auto
I Range min         Unset
I Range max         Unset
I Range init        Unset
Bandwidth           5
E2 (V)              0.350
vs.                 Ref
t2 (h:m:s)          0:00:0.0000
dt2 (s)             0.1000
nc cycles           9
nr                  1
Reverse Scan        0
Ef (V)              0.000
vs.                 Eoc
tf (h:m:s)          0:00:0.0000
dtf (s)             0.1000

mode	ox/red	error	control changes	Ns changes	counter inc.	time/s	control/V	Ewe/V	<I>/mA	cycle number	(Q-Qo)/C	I Range	Ns	step time/s	P/W
2	1	0	0	0	0	0.000000000000000E+000	0.349933	0.349325	0.0238689	1	0.0000000E+000	13	0	0.000000000000000E+000	8.33802e-06
2	1	0	1	0	0	0.3569	0.353503	0.352953	0.130998	1	3.658e-05	12	0	0.3296	4.6236e-05
2	1	0	1	0	0	0.7065	0.356998	0.356411	0.146853	1	8.72461e-05	12	0	0.6792	5.23401e-05
2	1	0	1	0	0	1.056	0.360494	0.359904	0.155147	1	0.000139974	12	0	1.0287	5.58382e-05
2	1	0	1	0	0	1.4055	0.363989	0.363414	0.158434	1	0.000193276	12	0	1.3782	5.75771e-05
2	1	0	1	0	0	1.7551	0.367484	0.366901	0.156662	1	0.000246804	12	0	1.7278	5.74794e-05
2	1	0	1	0	0	2.1046	0.37098	0.370366	0.151988	1	0.000300435	12	0	2.0773	5.62913e-05
2	1	0	1	0	0	2.4541	0.374475	0.373862	0.14761	1	0.000354076	12	0	2.4268	5.51859e-05
2	1	0	1	0	0	2.8037	0.37797	0.377375	0.148716	1	0.000407646	12	0	2.7764	5.61218e-05
2	1	0	1	0	0	3.1531	0.381465	0.380889	0.153977	1	0.000461221	12	0	3.1258	5.86483e-05
2	1	0	1	0	0	3.5027	0.384961	0.38435	0.158216	1	0.000514772	12	0	3.4754	6.08104e-05
2	1	0	1	0	0	3.8522	0.388455	0.387819	0.158385	1	0.000568264	12	0	3.8249	6.14247e-05
2	1	0	1	0	0	4.2017	0.391951	0.391367	0.153532	1	0.000621589	12	0	4.1744	6.00872e-05
2	1	0	1	0	0	4.5513	0.395447	0.394884	0.14799	1	0.000674757	12	0	4.524	5.84391e-05
2	1	0	1	0	0	4.9008	0.398941	0.398353	0.1451	1	0.000727701	12	0	4.8735	5.78012e-05
2	1	0	1	0	0	5.2503	0.402437	0.401831	0.146737	1	0.000780386	12	0	5.223	5.89636e-05
2	1	0	1	0	0	5.5999	0.405933	0.405386	0.151756	1	0.000832871	12	0	5.5726	6.15197e-05
2	1	0	1	0	0	5.9494	0.409427	0.408807	0.154602	1	0.000885099	12	0	5.9221	6.32025e-05
2	1	0	1	0	0	6.2989	0.412923	0.412329	0.15328	1	0.000937109	12	0	6.2716	6.32019e-05
2	1	0	1	0	0	6.6485	0.416418	0.415805	0.147878	1	0.000988836	12	0	6.6212	6.14885e-05
2	1	0	1	0	0	6.998	0.419914	0.419317	0.141842	1	0.00104023	12	0	6.9707	5.94767e-05
2	1	0	1	0	0	7.3475	0.423409	0.422816	0.140147	1	0.00109135	12	0	7.3202	5.92565e-05
2	1	0	1	0	0	7.6971	0.426904	0.426318	0.142657	1	0.00114218	12	0	7.6698	6.08172e-05
2	1	0	1	0	0	8.0466	0.4304	0.429828	0.14673	1	0.00119266	12	0	8.0193	6.30687e-05
2	1	0	1	0	0	8.3961	0.433895	0.433299	0.149126	1	0.00124289	12	0	8.3688	6.4616e-05
2	1	0	1	0	0	8.7457	0.43739	0.436817	0.146539	1	0.00129284	12	0	8.7184	6.40106e-05
2	1	0	1	0	0	9.0952	0.440886	0.440313	0.140752	1	0.00134246	12	0	9.0679	6.1975e-05
2	1	0	1	0	0	9.4447	0.444381	0.443772	0.135925	1	0.00139174	12	0	9.4174	6.03198e-05
2	1	0	1	0	0	9.7943	0.447876	0.447268	0.134398	1	0.00144078	12	0	9.767	6.01119e-05
2	1	0	1	0	0	10.0817	0.449224	0.448618	0.0566139	1	0.00147723	12	0	10.0544	2.5398e-05
2	0	0	1	0	0	10.4612	0.44543	0.4448	-0.0197613	1	0.00148004	13	0	0.0999	-8.78983e-06
2	0	0	1	0	0	10.8107	0.441934	0.441325	-0.0349277	1	0.00147169	13	0	0.4494	-1.54145e-05
2	0	0	1	0	0	11.1603	0.438439	0.437857	-0.0413457	1	0.00146008	13	0	0.799	-1.81035e-05
2	0	0	1	0	0	11.5098	0.434944	0.434323	-0.0426933	1	0.00144609	13	0	1.1485	-1.85427e-05
2	0	0	1	0	0	11.8593	0.431448	0.430848	-0.0431099	1	0.0014302	13	0	1.498	-1.85738e-05
2	0	0	1	0	0	12.2089	0.427953	0.427331	-0.046976	1	0.00141266	13	0	1.8476	-2.00743e-05
2	0	0	1	0	0	12.5584	0.424458	0.423848	-0.0540717	1	0.00139368	13	0	2.1971	-2.29182e-05
2	0	0	1	0	0	12.9079	0.420962	0.42035	-0.0630923	1	0.0013733	13	0	2.5466	-2.65208e-05
2	0	0	1	0	0	13.2575	0.417467	0.416866	-0.0692416	1	0.00135165	13	0	2.8962	-2.88645e-05
2	0	0	1	0	0	13.607	0.413972	0.413382	-0.070526	1	0.00132889	13	0	3.2457	-2.91542e-05
2	0	0	1	0	0	13.9565	0.410476	0.409843	-0.0691385	1	0.0013051	13	0	3.5952	-2.83359e-05
2	0	0	1	0	0	14.3061	0.406981	0.406407	-0.0669981	1	0.0012804	13	0	3.9448	-2.72285e-05
2	0	0	1	0	0	14.6556	0.403485	0.402907	-0.0691408	1	0.00125476	13	0	4.2943	-2.78573e-05
2	0	0	1	0	0	15.0051	0.399991	0.399394	-0.0754412	1	0.0012282	13	0	4.6438	-3.01307e-05
2	0	0	1	0	0	15.3547	0.396495	0.395859	-0.0830053	1	0.00120069	13	0	4.9934	-3.28585e-05
2	0	0	1	0	0	15.7042	0.392999	0.39237	-0.0887057	1	0.00117223	13	0	5.3429	-3.48054e-05
2	0	0	1	0	0	16.0537	0.389505	0.388914	-0.089118	1	0.00114293	13	0	5.6924	-3.46592e-05
2	0	0	1	0	0	16.4033	0.386009	0.385372	-0.0861364	1	0.00111287	13	0	6.042	-3.31946e-05
2	0	0	1	0	0	16.7527	0.382514	0.381918	-0.0842075	1	0.00108201	13	0	6.3914	-3.21604e-05
2	0	0	1	0	0	17.1023	0.379019	0.3784	-0.0860731	1	0.00105037	13	0	6.741	-3.257e-05
2	0	0	1	0	0	17.4518	0.375524	0.374922	-0.092381	1	0.00101794	13	0	7.0905	-3.46357e-05
2	0	0	1	0	0	17.8163	0.371878	0.371326	-0.0955995	1	0.000983109	13	0	7.455	-3.54986e-05
2	0	0	1	0	0	18.1809	0.368233	0.367632	-0.0929671	1	0.000947366	12	0	7.8196	-3.41777e-05
2	0	0	1	0	0	18.5304	0.364737	0.364199	-0.0990825	1	0.000912556	12	0	8.1691	-3.60858e-05
2	0	0	1	0	0	18.8799	0.361243	0.360639	-0.106311	1	0.000876961	12	0	8.5186	-3.834e-05
2	0	0	1	0	0	19.2295	0.357747	0.357135	-0.111412	1	0.000840543	12	0	8.8682	-3.9789e-05
2	0	0	1	0	0	19.579	0.354251	0.353627	-0.111518	1	0.000803366	12	0	9.2177	-3.94359e-05
2	0	0	1	0	0	19.9285	0.350757	0.350164	-0.108234	1	0.00076545	12	0	9.5672	-3.78997e-05
2	1	0	1	0	1	20.1841	0.351805	0.351216	0.0410085	2	0.000754252	12	0	0.000000000000000E+000	1.44028e-05
2	1	0	1	0	1	20.5337	0.355301	0.354674	0.0976741	2	0.000782661	12	0	0.3496	3.46424e-05
2	1	0	1	0	1	20.8832	0.358795	0.358181	0.104755	2	0.000820235	12	0	0.6991	3.75213e-05
2	1	0	1	0	1	21.2327	0.362291	0.361668	0.109611	2	0.000859387	12	0	1.0486	3.96429e-05
2	1	0	1	0	1	21.5823	0.365786	0.365189	0.115251	2	0.000898935	12	0	1.3982	4.20882e-05
2	1	0	1	0	1	21.9318	0.369282	0.368728	0.119354	2	0.000938573	12	0	1.7477	4.40092e-05
2	1	0	1	0	1	22.2813	0.372777	0.372217	0.117875	2	0.000978169	12	0	2.0972	4.38752e-05
2	1	0	1	0	1	22.6309	0.376272	0.375716	0.112612	2	0.00101754	12	0	2.4468	4.23103e-05
2	1	0	1	0	1	22.9804	0.379768	0.379177	0.106876	2	0.00105657	12	0	2.7963	4.05247e-05
2	1	0	1	0	1	23.3299	0.383263	0.382633	0.10425	2	0.00109531	12	0	3.1458	3.98896e-05
2	1	0	1	0	1	23.6795	0.386758	0.386158	0.106817	2	0.00113377	12	0	3.4954	4.12483e-05
2	1	0	1	0	1	24.029	0.390254	0.38965	0.111042	2	0.00117198	12	0	3.8449	4.32674e-05
2	1	0	1	0	1	24.3785	0.393749	0.393158	0.113937	2	0.00120996	12	0	4.1944	4.47954e-05
2	1	0	1	0	1	24.7281	0.397244	0.396631	0.112716	2	0.00124774	12	0	4.544	4.47065e-05
2	1	0	1	0	1	25.0776	0.40074	0.400175	0.107401	2	0.0012852	12	0	4.8935	4.29791e-05
2	1	0	1	0	1	25.4271	0.404235	0.403693	0.102072	2	0.00132233	12	0	5.243	4.12056e-05
2	1	0	1	0	1	25.7767	0.40773	0.407169	0.0996233	2	0.00135924	12	0	5.5926	4.05635e-05
2	1	0	1	0	1	26.1261	0.411225	0.410618	0.101075	2	0.00139583	12	0	5.942	4.15032e-05
2	1	0	1	0	1	26.4757	0.414721	0.414125	0.105454	2	0.00143235	12	0	6.2916	4.36711e-05
2	1	0	1	0	1	26.8252	0.418215	0.417611	0.108968	2	0.00146872	12	0	6.6411	4.55062e-05
2	1	0	1	0	1	27.1747	0.421711	0.421119	0.109223	2	0.00150503	12	0	6.9906	4.59959e-05
2	1	0	1	0	1	27.5243	0.425207	0.424609	0.105274	2	0.00154122	12	0	7.3402	4.47003e-05
2	1	0	1	0	1	27.8738	0.428701	0.428074	0.0997361	2	0.00157724	12	0	7.6897	4.26944e-05
2	1	0	1	0	1	28.2233	0.432197	0.431526	0.0970541	2	0.00161321	12	0	8.0392	4.18813e-05
2	1	0	1	0	1	28.5729	0.435693	0.435091	0.096634	2	0.00164895	12	0	8.3888	4.20446e-05
2	1	0	1	0	1	28.9224	0.439187	0.438576	0.102803	2	0.00168455	12	0	8.7383	4.50871e-05
2	1	0	1	0	1	29.2719	0.442683	0.442074	0.105092	2	0.00172012	12	0	9.0878	4.64585e-05
2	1	0	1	0	1	29.6215	0.446178	0.445562	0.106964	2	0.00175574	12	0	9.4374	4.7659e-05
2	1	0	1	0	1	29.9884	0.449849	0.449198	0.263455	2	0.00182709	11	0	9.8043	0.000118343
2	1	0	1	0	1	30.3084	0.446928	0.446435	-0.0270573	2	0.00183122	12	0	0.000000000000000E+000	-1.20793e-05
2	0	0	1	0	1	30.6579	0.443432	0.442836	-0.0371128	2	0.00181696	12	0	0.3495	-1.64349e-05
2	0	0	1	0	1	31.0075	0.439937	0.439561	-0.0494153	2	0.00179892	12	0	0.6991	-2.1721e-05
2	0	0	1	0	1	31.357	0.436442	0.435776	-0.0571854	2	0.00177927	12	0	1.0486	-2.492e-05
2	0	0	1	0	1	31.7065	0.432946	0.43246	-0.0600831	2	0.00175864	12	0	1.3981	-2.59836e-05
2	0	0	1	0	1	32.0561	0.429451	0.428805	-0.0578641	2	0.00173703	12	0	1.7477	-2.48124e-05
2	0	0	1	0	1	32.4056	0.425956	0.425385	-0.0634973	2	0.00171423	12	0	2.0972	-2.70108e-05
2	0	0	1	0	1	32.7551	0.42246	0.421847	-0.0749751	2	0.00169054	12	0	2.4467	-3.1628e-05
2	0	0	1	0	1	33.1047	0.418965	0.418283	-0.0717368	2	0.00166645	12	0	2.7963	-3.00063e-05
2	0	0	1	0	1	33.4542	0.41547	0.414849	-0.0754665	2	0.00164135	12	0	3.1458	-3.13072e-05
2	0	0	1	0	1	33.8037	0.411974	0.411326	-0.0724846	2	0.00161604	12	0	3.4953	-2.98148e-05
2	0	0	1	0	1	34.1533	0.408479	0.407885	-0.0678986	2	0.00158959	12	0	3.8449	-2.76948e-05
2	0	0	1	0	1	34.5028	0.404983	0.404364	-0.0780694	2	0.00156256	12	0	4.1944	-3.15685e-05
2	0	0	1	0	1	34.8523	0.401489	0.400862	-0.0815343	2	0.00153387	12	0	4.5439	-3.2684e-05
2	0	0	1	0	1	35.2019	0.397993	0.397426	-0.0865696	2	0.00150503	12	0	4.8935	-3.4405e-05
2	0	0	1	0	1	35.5514	0.394497	0.393872	-0.0904689	2	0.00147551	12	0	5.243	-3.56331e-05
2	0	0	1	0	1	35.9009	0.391003	0.390443	-0.0901381	2	0.00144525	12	0	5.5925	-3.51938e-05
2	0	0	1	0	1	36.2505	0.387507	0.38689	-0.0877036	2	0.00141447	12	0	5.9421	-3.39317e-05
2	0	0	1	0	1	36.5999	0.384012	0.383423	-0.0867732	2	0.00138306	12	0	6.2915	-3.32708e-05
2	0	0	1	0	1	36.9495	0.380517	0.379927	-0.0884169	2	0.00135093	12	0	6.6411	-3.35919e-05
2	0	0	1	0	1	37.299	0.377022	0.37645	-0.0940297	2	0.00131805	12	0	6.9906	-3.53974e-05
2	0	0	1	0	1	37.6485	0.373526	0.372903	-0.100072	2	0.00128445	12	0	7.3401	-3.73171e-05
2	0	0	1	0	1	37.9981	0.370031	0.36944	-0.103876	2	0.00125011	12	0	7.6897	-3.83758e-05
2	0	0	1	0	1	38.3476	0.366536	0.365873	-0.104836	2	0.00121503	12	0	8.0392	-3.83567e-05
2	0	0	1	0	1	38.6971	0.36304	0.362472	-0.10275	2	0.00117931	12	0	8.3887	-3.72441e-05
2	0	0	1	0	1	39.0467	0.359545	0.358927	-0.101456	2	0.00114293	12	0	8.7383	-3.64152e-05
2	0	0	1	0	1	39.3962	0.35605	0.355436	-0.102545	2	0.00110584	12	0	9.0878	-3.64482e-05
2	0	0	1	0	1	39.7457	0.352554	0.351982	-0.106684	2	0.00106805	12	0	9.4373	-3.75509e-05
2	0	0	1	0	0	40.0038	0.350033	0.34944	-0.115861	3	0.00103968	12	0	9.6954	-4.04863e-05
2	1	0	1	0	0	40.3309	0.353303	0.35266	0.0755153	3	0.0010429	12	0	0.1498	2.66312e-05
2	1	0	1	0	0	40.6805	0.356799	0.356209	0.103292	3	0.00107434	12	0	0.4994	3.67934e-05
2	1	0	1	0	0	41.03	0.360294	0.359713	0.104989	3	0.00111067	12	0	0.8489	3.7766e-05
2	1	0	1	0	0	41.3795	0.363789	0.363165	0.102893	3	0.00114804	12	0	1.1984	3.7367e-05
2	1	0	1	0	0	41.7291	0.367285	0.366672	0.102787	3	0.00118559	12	0	1.548	3.7689e-05
2	1	0	1	0	0	42.0786	0.37078	0.370176	0.10589	3	0.00122311	12	0	1.8975	3.9198e-05
2	1	0	1	0	0	42.4281	0.374275	0.373689	0.10908	3	0.0012605	12	0	2.247	4.07619e-05
2	1	0	1	0	0	42.7777	0.37777	0.377183	0.110329	3	0.00129764	12	0	2.5966	4.1614e-05
2	1	0	1	0	0	43.1272	0.381266	0.380632	0.108851	3	0.0013345	12	0	2.9461	4.14323e-05
2	1	0	1	0	0	43.4767	0.384761	0.384126	0.103967	3	0.00137101	12	0	3.2956	3.99363e-05
2	1	0	1	0	0	43.8263	0.388256	0.38764	0.0997701	3	0.00140718	12	0	3.6452	3.86748e-05
2	1	0	1	0	0	44.1758	0.391752	0.391166	0.0975272	3	0.00144299	12	0	3.9947	3.81493e-05
2	1	0	1	0	0	44.5253	0.395247	0.394672	0.0983221	3	0.0014785	12	0	4.3442	3.8805e-05
2	1	0	1	0	0	44.8749	0.398742	0.398106	0.101241	3	0.00151376	12	0	4.6938	4.03046e-05
2	1	0	1	0	0	45.2244	0.402238	0.401606	0.103311	3	0.0015487	12	0	5.0433	4.14902e-05
2	1	0	1	0	0	45.5739	0.405733	0.405119	0.103089	3	0.00158336	12	0	5.3928	4.17632e-05
2	1	0	1	0	0	45.9235	0.409228	0.408635	0.099554	3	0.00161772	12	0	5.7424	4.06812e-05
2	1	0	1	0	0	46.2729	0.412723	0.41213	0.0949852	3	0.00165179	12	0	6.0918	3.91462e-05
2	1	0	1	0	0	46.6225	0.416219	0.415629	0.0918164	3	0.0016856	12	0	6.4414	3.81616e-05
2	1	0	1	0	0	46.972	0.419713	0.419126	0.0920029	3	0.00171917	12	0	6.7909	3.85608e-05
2	1	0	1	0	0	47.3215	0.423209	0.422639	0.0948851	3	0.00175259	12	0	7.1404	4.01022e-05
2	1	0	1	0	0	47.6711	0.426705	0.426095	0.0984157	3	0.00178585	12	0	7.49	4.19344e-05
2	1	0	1	0	0	48.0206	0.430199	0.42964	0.0985584	3	0.00181895	12	0	7.8395	4.23446e-05
2	1	0	1	0	0	48.3701	0.433695	0.433088	0.0934512	3	0.00185203	12	0	8.189	4.04725e-05
2	1	0	1	0	0	48.7197	0.437191	0.436549	0.094109	3	0.00188483	12	0	8.5386	4.10832e-05
2	1	0	1	0	0	49.0692	0.440685	0.440087	0.0936084	3	0.0019177	12	0	8.8881	4.11958e-05
2	1	0	1	0	0	49.4187	0.444181	0.443564	0.094059	3	0.00195054	12	0	9.2376	4.17212e-05
2	1	0	1	0	0	49.7683	0.447676	0.447064	0.094439	3	0.00198346	12	0	9.5872	4.22202e-05
2	1	0	1	0	0	50.0258	0.449724	0.449178	0.0655183	3	0.00200702	12	0	9.8447	2.94294e-05
2	0	0	1	0	0	50.4053	0.445929	0.445295	-0.0453516	3	0.00200161	13	0	0.2147	-2.01948e-05
2	0	0	1	0	0	50.7548	0.442434	0.441814	-0.0547646	3	0.00198368	13	0	0.5642	-2.41958e-05
2	0	0	1	0	0	51.1043	0.438938	0.438304	-0.0582945	3	0.00196381	13	0	0.9137	-2.55507e-05
2	0	0	1	0	0	51.4539	0.435443	0.434827	-0.0592293	3	0.00194252	13	0	1.2633	-2.57545e-05
2	0	0	1	0	0	51.8034	0.431948	0.431304	-0.065093	3	0.00192018	13	0	1.6128	-2.80749e-05
2	0	0	1	0	0	52.1529	0.428452	0.427848	-0.0621337	3	0.00189707	13	0	1.9623	-2.65838e-05
2	0	0	1	0	0	52.5025	0.424957	0.424374	-0.0716939	3	0.00187313	13	0	2.3119	-3.0425e-05
2	0	0	1	0	0	52.852	0.421462	0.420859	-0.0743221	3	0.00184845	13	0	2.6614	-3.12791e-05
2	0	0	1	0	0	53.2015	0.417966	0.417339	-0.0735869	3	0.001823	13	0	3.0109	-3.07107e-05
2	0	0	1	0	0	53.5511	0.414471	0.413861	-0.0710149	3	0.00179688	13	0	3.3605	-2.93903e-05
2	0	0	1	0	0	53.9006	0.410976	0.410378	-0.0735351	3	0.00177012	13	0	3.71	-3.01772e-05
2	0	0	1	0	0	54.2501	0.407481	0.406877	-0.0813122	3	0.00174272	13	0	4.0595	-3.30841e-05
2	0	0	1	0	0	54.5997	0.403985	0.403352	-0.0861014	3	0.00171471	13	0	4.4091	-3.47291e-05
2	0	0	1	0	0	54.9492	0.400489	0.399867	-0.0779184	3	0.00168602	13	0	4.7586	-3.1157e-05
2	0	0	1	0	0	55.2987	0.396995	0.396368	-0.0898157	3	0.00165672	13	0	5.1081	-3.56e-05
2	0	0	1	0	0	55.6483	0.393499	0.392902	-0.0831217	3	0.00162669	13	0	5.4577	-3.26587e-05
2	0	0	1	0	0	55.9978	0.390003	0.389348	-0.0875887	3	0.00159615	13	0	5.8072	-3.41025e-05
2	0	0	1	0	0	56.3473	0.386509	0.385905	-0.0950015	3	0.00156487	13	0	6.1567	-3.66615e-05
2	0	0	1	0	0	56.6969	0.383013	0.382407	-0.0876708	3	0.00153296	13	0	6.5063	-3.3526e-05
2	0	0	1	0	0	57.0463	0.379518	0.378924	-0.0951119	3	0.00150052	13	0	6.8557	-3.60402e-05
2	0	0	1	0	0	57.3959	0.376023	0.375458	-0.0989388	3	0.00146729	13	0	7.2053	-3.71473e-05
2	0	0	1	0	0	57.7454	0.372528	0.371902	-0.0925336	3	0.00143351	13	0	7.5548	-3.44134e-05
2	0	0	1	0	0	58.1099	0.368882	0.368277	-0.0981765	3	0.00139744	13	0	7.9193	-3.61561e-05
2	0	0	1	0	0	58.4745	0.365237	0.364604	-0.102138	3	0.00136065	12	0	8.2839	-3.724e-05
2	0	0	1	0	0	58.824	0.361741	0.361152	-0.107544	3	0.00132467	12	0	8.6334	-3.88399e-05
2	0	0	1	0	0	59.1735	0.358247	0.357653	-0.100783	3	0.00128801	12	0	8.9829	-3.60453e-05
2	0	0	1	0	0	59.5231	0.354751	0.354167	-0.109774	3	0.00125073	12	0	9.3325	-3.88784e-05
2	0	0	1	0	0	59.8725	0.351256	0.350599	-0.112675	3	0.00121259	12	0	9.6819	-3.95038e-05
2	0	0	1	0	1	60.1282	0.351305	0.350677	2.58765e-05	4	0.00119305	12	0	9.9376	9.07428e-09
2	1	0	1	0	1	60.4777	0.354801	0.354198	0.0836984	4	0.00121307	12	0	0.2996	2.96458e-05
2	1	0	1	0	1	60.8273	0.358297	0.357674	0.106315	4	0.00124676	12	0	0.6492	3.80262e-05
2	1	0	1	0	1	61.1768	0.361792	0.361181	0.10289	4	0.00128294	12	0	0.9987	3.71618e-05
2	1	0	1	0	1	61.5263	0.365287	0.364691	0.102238	4	0.00131954	12	0	1.3482	3.72854e-05
2	1	0	1	0	1	61.8759	0.368783	0.368177	0.109597	4	0.00135627	12	0	1.6978	4.03509e-05
2	1	0	1	0	1	62.2254	0.372278	0.371713	0.101348	4	0.00139291	12	0	2.0473	3.76722e-05
2	1	0	1	0	1	62.5749	0.375773	0.375191	0.102495	4	0.00142918	12	0	2.3968	3.84553e-05
2	1	0	1	0	1	62.9245	0.379268	0.378685	0.107089	4	0.00146523	12	0	2.7464	4.05528e-05
2	1	0	1	0	1	63.274	0.382764	0.382132	0.0974813	4	0.00150097	12	0	3.0959	3.72508e-05
2	1	0	1	0	1	63.6235	0.386259	0.385636	0.100963	4	0.00153626	12	0	3.4454	3.89348e-05
2	1	0	1	0	1	63.9731	0.389754	0.389146	0.102957	4	0.00157133	12	0	3.795	4.00655e-05
2	1	0	1	0	1	64.3226	0.39325	0.39264	0.0938523	4	0.00160593	12	0	4.1445	3.68502e-05
2	1	0	1	0	1	64.6721	0.396745	0.396137	0.100155	4	0.0016402	12	0	4.494	3.96751e-05
2	1	0	1	0	1	65.0217	0.40024	0.399626	0.098883	4	0.00167429	12	0	4.8436	3.95162e-05
2	1	0	1	0	1	65.3712	0.403736	0.403151	0.0907745	4	0.00170788	12	0	5.1931	3.65958e-05
2	1	0	1	0	1	65.7207	0.407231	0.406622	0.09819	4	0.00174115	12	0	5.5426	3.99262e-05
2	1	0	1	0	1	66.0703	0.410726	0.410111	0.0947238	4	0.00177419	12	0	5.8922	3.88473e-05
2	1	0	1	0	1	66.4197	0.414221	0.413641	0.0889407	4	0.00180684	12	0	6.2416	3.67895e-05
2	1	0	1	0	1	66.7693	0.417717	0.417121	0.0968675	4	0.00183926	12	0	6.5912	4.04055e-05
2	1	0	1	0	1	67.1188	0.421211	0.420635	0.0911555	4	0.00187153	12	0	6.9407	3.83432e-05
2	1	0	1	0	1	67.4683	0.424707	0.424096	0.0875457	4	0.00190349	12	0	7.2902	3.71278e-05
2	1	0	1	0	1	67.8179	0.428203	0.427594	0.0955874	4	0.0019353	12	0	7.6398	4.08726e-05
2	1	0	1	0	1	68.1674	0.431697	0.431097	0.088243	4	0.00196697	12	0	7.9893	3.80413e-05
2	1	0	1	0	1	68.5169	0.435193	0.434606	0.0873717	4	0.00199838	12	0	8.3388	3.79723e-05
2	1	0	1	0	1	68.8665	0.438688	0.438089	0.0944033	4	0.00202978	12	0	8.6884	4.13571e-05
2	1	0	1	0	1	69.216	0.442183	0.441597	0.086134	4	0.00206108	12	0	9.0379	3.80365e-05
2	1	0	1	0	1	69.5655	0.445679	0.445048	0.0879437	4	0.00209224	12	0	9.3874	3.91391e-05
2	1	0	1	0	1	69.9151	0.449174	0.448561	0.0944484	4	0.00212356	12	0	9.737	4.23659e-05
2	0	0	1	0	1	70.2025	0.447926	0.447313	-0.0266591	4	0.00213384	13	0	0.000000000000000E+000	-1.19249e-05
2	0	0	1	0	1	70.5521	0.444431	0.443851	-0.0577379	4	0.00211803	13	0	0.3496	-2.5627e-05
2	0	0	1	0	1	70.9016	0.440936	0.440321	-0.0546276	4	0.00209814	13	0	0.6991	-2.40537e-05
2	0	0	1	0	1	71.2511	0.43744	0.436811	-0.0638825	4	0.00207688	13	0	1.0486	-2.79046e-05
2	0	0	1	0	1	71.6007	0.433945	0.433342	-0.0687724	4	0.00205445	13	0	1.3982	-2.9802e-05
2	0	0	1	0	1	71.9502	0.43045	0.42984	-0.0626095	4	0.00203125	13	0	1.7477	-2.69121e-05
2	0	0	1	0	1	72.2997	0.426954	0.426329	-0.0712354	4	0.00200732	13	0	2.0972	-3.03697e-05
2	0	0	1	0	1	72.6493	0.423459	0.422844	-0.0743664	4	0.00198259	13	0	2.4468	-3.14454e-05
2	0	0	1	0	1	72.9988	0.419964	0.419315	-0.0688807	4	0.00195722	13	0	2.7963	-2.88827e-05
2	0	0	1	0	1	73.3483	0.416468	0.415846	-0.0781497	4	0.00193122	13	0	3.1458	-3.24983e-05
2	0	0	1	0	1	73.6979	0.412973	0.412368	-0.0787609	4	0.00190453	13	0	3.4954	-3.24785e-05
2	0	0	1	0	1	74.0474	0.409477	0.40887	-0.0739008	4	0.00187734	13	0	3.8449	-3.02158e-05
2	0	0	1	0	1	74.3969	0.405982	0.40534	-0.0839738	4	0.00184955	13	0	4.1944	-3.40379e-05
2	0	0	1	0	1	74.7465	0.402487	0.401895	-0.0833127	4	0.00182105	13	0	4.544	-3.3483e-05
2	0	0	1	0	1	75.096	0.398991	0.398392	-0.0795434	4	0.00179206	13	0	4.8935	-3.16894e-05
2	0	0	1	0	1	75.4455	0.395497	0.394878	-0.0901237	4	0.00176242	13	0	5.243	-3.55879e-05
2	0	0	1	0	1	75.7951	0.392001	0.39137	-0.0873593	4	0.00173204	13	0	5.5926	-3.41898e-05
2	0	0	1	0	1	76.1446	0.388505	0.387889	-0.0848852	4	0.00170122	13	0	5.9421	-3.2926e-05
2	0	0	1	0	1	76.4941	0.385011	0.384368	-0.0958865	4	0.00166972	13	0	6.2916	-3.68557e-05
2	0	0	1	0	1	76.8437	0.381515	0.380889	-0.0917785	4	0.00163752	13	0	6.6412	-3.49574e-05
2	0	0	1	0	1	77.1931	0.37802	0.377359	-0.0916223	4	0.00160479	13	0	6.9906	-3.45745e-05
2	0	0	1	0	1	77.5427	0.374525	0.37393	-0.101516	4	0.00157135	13	0	7.3402	-3.79599e-05
2	0	0	1	0	1	77.8922	0.37103	0.370463	-0.0959096	4	0.00153724	13	0	7.6897	-3.5531e-05
2	0	0	1	0	1	78.2717	0.367235	0.366612	-0.10021	4	0.00149934	12	0	8.0692	-3.67381e-05
2	0	0	1	0	1	78.6213	0.363739	0.363135	-0.0982886	4	0.00146396	12	0	8.4188	-3.5692e-05
2	0	0	1	0	1	78.9708	0.360243	0.35963	-0.108973	4	0.00142789	12	0	8.7683	-3.919e-05
2	0	0	1	0	1	79.3203	0.356749	0.356175	-0.104895	4	0.00139103	12	0	9.1178	-3.73611e-05
2	0	0	1	0	1	79.6699	0.353253	0.352648	-0.104693	4	0.00135358	12	0	9.4674	-3.69198e-05
2	0	0	0	0	1	79.9928	0.349983	0.349421	-0.108759	4	0.00131835	12	0	9.7903	-3.80026e-05
2	1	0	1	0	0	80.275	0.352803	0.352213	0.0614052	5	0.00131731	12	0	0.0999	2.16277e-05
2	1	0	1	0	0	80.6245	0.356299	0.355681	0.0908007	5	0.00134588	12	0	0.4494	3.2296e-05
2	1	0	1	0	0	80.9741	0.359795	0.359163	0.102159	5	0.00138048	12	0	0.799	3.66919e-05
2	1	0	1	0	0	81.3236	0.36329	0.362666	0.107245	5	0.00141645	12	0	1.1485	3.88943e-05
2	1	0	1	0	0	81.6731	0.366785	0.36618	0.098694	5	0.00145256	12	0	1.498	3.61397e-05
2	1	0	1	0	0	82.0227	0.37028	0.369694	0.103873	5	0.00148858	12	0	1.8476	3.84012e-05
2	1	0	1	0	0	82.3722	0.373776	0.373173	0.105591	5	0.00152452	12	0	2.1971	3.94036e-05
2	1	0	1	0	0	82.7217	0.377271	0.376664	0.0965189	5	0.00156005	12	0	2.5466	3.63552e-05
2	1	0	1	0	0	83.0713	0.380766	0.380178	0.102126	5	0.00159523	12	0	2.8962	3.88263e-05
2	1	0	1	0	0	83.4208	0.384262	0.383642	0.101863	5	0.00163015	12	0	3.2457	3.90788e-05
2	1	0	1	0	0	83.7703	0.387757	0.387122	0.0931545	5	0.00166462	12	0	3.5952	3.60621e-05
2	1	0	1	0	0	84.1199	0.391252	0.390672	0.0997309	5	0.00169874	12	0	3.9448	3.89621e-05
2	1	0	1	0	0	84.4694	0.394748	0.394161	0.0981547	5	0.0017326	12	0	4.2943	3.86888e-05
2	1	0	1	0	0	84.8189	0.398243	0.397636	0.0904262	5	0.00176603	12	0	4.6438	3.59567e-05
2	1	0	1	0	0	85.1685	0.401738	0.401153	0.0976579	5	0.00179908	12	0	4.9934	3.91758e-05
2	1	0	1	0	0	85.518	0.405234	0.404631	0.0939653	5	0.00183185	12	0	5.3429	3.80213e-05
2	1	0	1	0	0	85.8675	0.408729	0.408066	0.0871499	5	0.00186419	12	0	5.6924	3.55629e-05
2	1	0	1	0	0	86.2171	0.412224	0.411638	0.0956463	5	0.00189625	12	0	6.042	3.93717e-05
2	1	0	1	0	0	86.5665	0.415719	0.41512	0.0906593	5	0.00192806	12	0	6.3914	3.76345e-05
2	1	0	1	0	0	86.9161	0.419215	0.418604	0.0856777	5	0.00195953	12	0	6.741	3.5865e-05
2	1	0	1	0	0	87.2656	0.422709	0.422122	0.0937673	5	0.00199084	12	0	7.0905	3.95813e-05
2	1	0	1	0	0	87.6151	0.426205	0.42563	0.0878117	5	0.00202198	12	0	7.44	3.73753e-05
2	1	0	1	0	0	87.9647	0.429701	0.429112	0.0843179	5	0.00205279	12	0	7.7896	3.61818e-05
2	1	0	1	0	0	88.3142	0.433195	0.432615	0.0928376	5	0.00208351	12	0	8.1391	4.01629e-05
2	1	0	1	0	0	88.6637	0.436691	0.436092	0.0853811	5	0.00211409	12	0	8.4886	3.72341e-05
2	1	0	1	0	0	89.0133	0.440187	0.439614	0.0837393	5	0.00214442	12	0	8.8382	3.6813e-05
2	1	0	1	0	0	89.3628	0.443682	0.443124	0.0914651	5	0.00217471	12	0	9.1877	4.05304e-05
2	1	0	1	0	0	89.7123	0.447177	0.446572	0.0838478	5	0.00220499	12	0	9.5372	3.74441e-05
2	1	0	0	0	0	89.9924	0.449999	0.449403	0.0774871	5	0.00222926	12	0	9.8173	3.4823e-05
2	0	0	1	0	0	90.3493	0.446428	0.445812	-0.0442689	5	0.00222577	13	0	0.1797	-1.97356e-05
2	0	0	1	0	0	90.6989	0.442933	0.442326	-0.0566711	5	0.00220689	13	0	0.5293	-2.50671e-05
2	0	0	1	0	0	91.0484	0.439438	0.438837	-0.0665201	5	0.00218585	13	0	0.8788	-2.91915e-05
2	0	0	1	0	0	91.3979	0.435942	0.435305	-0.0612701	5	0.00216368	13	0	1.2283	-2.66712e-05
2	0	0	1	0	0	91.7475	0.432447	0.431797	-0.0665681	5	0.0021407	13	0	1.5779	-2.87439e-05
2	0	0	1	0	0	92.097	0.428952	0.428331	-0.0734852	5	0.00211685	13	0	1.9274	-3.1476e-05
2	0	0	1	0	0	92.4465	0.425456	0.424863	-0.0666794	5	0.00209237	13	0	2.2769	-2.83296e-05
2	0	0	1	0	0	92.7961	0.421961	0.421355	-0.0731689	5	0.00206728	13	0	2.6265	-3.08301e-05
2	0	0	1	0	0	93.1456	0.418466	0.41785	-0.0786982	5	0.00204142	13	0	2.976	-3.2884e-05
2	0	0	1	0	0	93.4951	0.41497	0.414347	-0.0716194	5	0.00201504	13	0	3.3255	-2.96753e-05
2	0	0	1	0	0	93.8447	0.411475	0.410844	-0.0795411	5	0.00198814	13	0	3.6751	-3.2679e-05
2	0	0	1	0	0	94.1942	0.407979	0.40739	-0.0822773	5	0.00196053	13	0	4.0246	-3.3519e-05
2	0	0	1	0	0	94.5437	0.404484	0.403894	-0.0761339	5	0.00193246	13	0	4.3741	-3.075e-05
2	0	0	1	0	0	94.8933	0.400989	0.400372	-0.0853915	5	0.00190379	13	0	4.7237	-3.41884e-05
2	0	0	1	0	0	95.2428	0.397493	0.396857	-0.0870305	5	0.00187443	13	0	5.0732	-3.45387e-05
2	0	0	1	0	0	95.5923	0.393999	0.393394	-0.081524	5	0.00184453	13	0	5.4227	-3.2071e-05
2	0	0	1	0	0	95.9419	0.390503	0.389904	-0.0914374	5	0.00181405	13	0	5.7723	-3.56518e-05
2	0	0	1	0	0	96.2914	0.387007	0.3864	-0.0906016	5	0.00178291	13	0	6.1218	-3.50085e-05
2	0	0	1	0	0	96.6409	0.383513	0.382869	-0.0870097	5	0.00175124	13	0	6.4713	-3.33133e-05
2	0	0	1	0	0	96.9905	0.380017	0.379382	-0.0979099	5	0.00171895	13	0	6.8209	-3.71453e-05
2	0	0	1	0	0	97.3399	0.376522	0.375926	-0.0949773	5	0.00168594	13	0	7.1703	-3.57044e-05
2	0	0	1	0	0	97.6895	0.373027	0.372402	-0.092958	5	0.00165246	13	0	7.5199	-3.46177e-05
2	0	0	1	0	0	98.039	0.369532	0.368937	-0.103756	5	0.00161825	13	0	7.8694	-3.82794e-05
2	0	0	1	0	0	98.4185	0.365737	0.365114	-0.104667	5	0.00158024	12	0	8.2489	-3.82154e-05
2	0	0	1	0	0	98.7681	0.362241	0.361607	-0.103775	5	0.00154455	12	0	8.5985	-3.75259e-05
2	0	0	1	0	0	99.1176	0.358745	0.358107	-0.100105	5	0.00150832	12	0	8.948	-3.58483e-05
2	0	0	1	0	0	99.4671	0.355251	0.354643	-0.110974	5	0.00147137	12	0	9.2975	-3.93563e-05
2	0	0	1	0	0	99.8167	0.351755	0.351141	-0.108168	5	0.00143362	12	0	9.6471	-3.79822e-05
2	0	0	1	0	1	100.072	0.350807	0.350231	-0.0343649	6	0.00140955	12	0	9.9027	-1.20356e-05
2	1	0	1	0	1	100.422	0.354301	0.353684	0.0793579	6	0.00142446	12	0	0.2497	2.80676e-05
2	1	0	1	0	1	100.771	0.357797	0.357184	0.102589	6	0.00145661	12	0	0.5992	3.66431e-05
2	1	0	1	0	1	101.121	0.361293	0.360733	0.0977331	6	0.00149164	12	0	0.9488	3.52556e-05
2	1	0	1	0	1	101.47	0.364788	0.36419	0.101404	6	0.00152716	12	0	1.2983	3.69305e-05
2	1	0	1	0	1	101.82	0.368283	0.367651	0.106343	6	0.00156286	12	0	1.6478	3.90972e-05
2	1	0	1	0	1	102.169	0.371778	0.371226	0.096857	6	0.00159841	12	0	1.9974	3.59558e-05
2	1	0	1	0	1	102.519	0.375274	0.374651	0.100512	6	0.00163359	12	0	2.3469	3.7657e-05
2	1	0	1	0	1	102.868	0.378769	0.378188	0.103663	6	0.00166855	12	0	2.6964	3.92042e-05
2	1	0	1	0	1	103.218	0.382264	0.381666	0.0940805	6	0.0017032	12	0	3.046	3.59073e-05
2	1	0	1	0	1	103.568	0.38576	0.38509	0.09849	6	0.00173737	12	0	3.3955	3.79276e-05
2	1	0	1	0	1	103.917	0.389255	0.388629	0.0993135	6	0.00177127	12	0	3.745	3.85961e-05
2	1	0	1	0	1	104.267	0.39275	0.392169	0.0901479	6	0.00180473	12	0	4.0946	3.53532e-05
2	1	0	1	0	1	104.616	0.396246	0.395629	0.0967621	6	0.00183787	12	0	4.4441	3.82819e-05
2	1	0	1	0	1	104.966	0.399741	0.399151	0.0957153	6	0.00187072	12	0	4.7936	3.82048e-05
2	1	0	1	0	1	105.315	0.403236	0.402631	0.0871614	6	0.00190309	12	0	5.1432	3.50939e-05
2	1	0	1	0	1	105.665	0.406732	0.406128	0.0943669	6	0.00193512	12	0	5.4927	3.8325e-05
2	1	0	1	0	1	106.014	0.410227	0.409656	0.0912488	6	0.00196685	12	0	5.8422	3.73807e-05
2	1	0	1	0	1	106.364	0.413722	0.41311	0.0846009	6	0.0019982	12	0	6.1918	3.49495e-05
2	1	0	1	0	1	106.713	0.417217	0.416641	0.0927862	6	0.00202927	12	0	6.5412	3.86585e-05
2	1	0	1	0	1	107.063	0.420713	0.420082	0.0881816	6	0.00206019	12	0	6.8908	3.70435e-05
2	1	0	1	0	1	107.412	0.424207	0.423609	0.0829261	6	0.00209078	12	0	7.2403	3.51282e-05
2	1	0	1	0	1	107.762	0.427703	0.427086	0.0906974	6	0.00212115	12	0	7.5898	3.87356e-05
2	1	0	1	0	1	108.111	0.431199	0.430564	0.0849007	6	0.00215134	12	0	7.9394	3.65552e-05
2	1	0	1	0	1	108.461	0.434693	0.434114	0.0819604	6	0.00218124	12	0	8.2889	3.55802e-05
2	1	0	1	0	1	108.81	0.438189	0.437592	0.0901026	6	0.00221105	12	0	8.6384	3.94281e-05
2	1	0	1	0	1	109.16	0.441685	0.441057	0.0829974	6	0.00224078	12	0	8.988	3.66066e-05
2	1	0	1	0	1	109.51	0.44518	0.444594	0.0817153	6	0.00227031	12	0	9.3375	3.63301e-05
2	1	0	1	0	1	109.859	0.448675	0.44805	0.0891487	6	0.00229989	12	0	9.687	3.99431e-05
2	1	0	1	0	1	110.117	0.448725	0.448125	-0.0128931	6	0.00231432	12	0	9.9446	-5.77774e-06
2	0	0	1	0	1	110.496	0.44493	0.4443	-0.0598871	6	0.0022991	13	0	0.3145	-2.66078e-05
2	0	0	1	0	1	110.846	0.441435	0.440816	-0.0570151	6	0.00227869	13	0	0.6641	-2.51332e-05
2	0	0	1	0	1	111.195	0.43794	0.437326	-0.0627561	6	0.00225699	13	0	1.0136	-2.74449e-05
2	0	0	1	0	1	111.545	0.434444	0.433842	-0.0710204	6	0.00223421	13	0	1.3631	-3.08116e-05
2	0	0	1	0	1	111.894	0.430949	0.430362	-0.0643091	6	0.00221068	13	0	1.7127	-2.76762e-05
2	0	0	1	0	1	112.244	0.427454	0.426774	-0.0700337	6	0.00218654	13	0	2.0622	-2.98886e-05
2	0	0	1	0	1	112.593	0.423958	0.423307	-0.0760474	6	0.00216164	13	0	2.4117	-3.21914e-05
2	0	0	1	0	1	112.943	0.420463	0.419855	-0.0690523	6	0.00213615	13	0	2.7613	-2.8992e-05
2	0	0	1	0	1	113.292	0.416968	0.416332	-0.0764666	6	0.00211012	13	0	3.1108	-3.18355e-05
2	0	0	1	0	1	113.642	0.413472	0.41287	-0.0806115	6	0.00208344	13	0	3.4603	-3.32821e-05
2	0	0	1	0	1	113.991	0.409977	0.409385	-0.073744	6	0.00205626	13	0	3.8099	-3.01897e-05
2	0	0	1	0	1	114.341	0.406481	0.405861	-0.0822704	6	0.00202859	13	0	4.1594	-3.33903e-05
2	0	0	1	0	1	114.69	0.402986	0.402383	-0.0842915	6	0.00200021	13	0	4.5089	-3.39175e-05
2	0	0	1	0	1	115.04	0.399491	0.398908	-0.0784078	6	0.00197138	13	0	4.8585	-3.12775e-05
2	0	0	1	0	1	115.39	0.395995	0.395306	-0.0886362	6	0.00194194	13	0	5.208	-3.50384e-05
2	0	0	1	0	1	115.739	0.392501	0.391895	-0.0886399	6	0.00191174	13	0	5.5575	-3.47376e-05
2	0	0	1	0	1	116.089	0.389005	0.388413	-0.0835873	6	0.00188109	13	0	5.9071	-3.24664e-05
2	0	0	1	0	1	116.438	0.385509	0.384894	-0.0940549	6	0.0018499	13	0	6.2566	-3.62012e-05
2	0	0	1	0	1	116.788	0.382015	0.381415	-0.0922365	6	0.00181797	13	0	6.6061	-3.51804e-05
2	0	0	1	0	1	117.137	0.378519	0.377887	-0.0895932	6	0.00178556	13	0	6.9557	-3.38562e-05
2	0	0	1	0	1	117.487	0.375024	0.374424	-0.100061	6	0.0017525	13	0	7.3051	-3.74651e-05
2	0	0	1	0	1	117.836	0.371529	0.370953	-0.096694	6	0.00171872	13	0	7.6547	-3.5869e-05
2	0	0	1	0	1	118.186	0.368034	0.367418	-0.0957922	6	0.00168437	13	0	8.0042	-3.51958e-05
2	0	0	1	0	1	118.565	0.364239	0.363618	-0.0961617	6	0.00164618	12	0	8.3837	-3.49662e-05
2	0	0	1	0	1	118.915	0.360743	0.360173	-0.107226	6	0.00161054	12	0	8.7333	-3.862e-05
2	0	0	1	0	1	119.264	0.357247	0.356625	-0.105366	6	0.00157406	12	0	9.0828	-3.75762e-05
2	0	0	1	0	1	119.614	0.353753	0.35315	-0.103041	6	0.00153701	12	0	9.4323	-3.63889e-05
2	0	0	1	0	1	119.963	0.350257	0.349664	-0.113398	6	0.00149918	12	0	9.7819	-3.96512e-05
2	1	0	1	0	0	120.249	0.352604	0.352017	0.0490109	7	0.00149419	13	0	0.065	1.72527e-05
2	1	0	1	0	0	120.599	0.3561	0.355479	0.0973191	7	0.00152159	13	0	0.4145	3.45948e-05
2	1	0	1	0	0	120.948	0.359595	0.359003	0.0966078	7	0.00155544	13	0	0.764	3.46825e-05
2	1	0	1	0	0	121.328	0.36339	0.362766	0.0999118	7	0.00159368	12	0	1.1435	3.62446e-05
2	1	0	1	0	0	121.677	0.366885	0.36627	0.0974337	7	0.00162889	12	0	1.493	3.5687e-05
2	1	0	1	0	0	122.027	0.37038	0.369757	0.105364	7	0.00166412	12	0	1.8426	3.89592e-05
2	1	0	1	0	0	122.376	0.373876	0.37327	0.0975282	7	0.00169918	12	0	2.1921	3.64044e-05
2	1	0	1	0	0	122.726	0.377371	0.376781	0.0966372	7	0.00173382	12	0	2.5416	3.6411e-05
2	1	0	1	0	0	123.075	0.380866	0.380251	0.102517	7	0.00176819	12	0	2.8912	3.89823e-05
2	1	0	1	0	0	123.425	0.384362	0.383738	0.0933091	7	0.00180218	12	0	3.2407	3.58063e-05
2	1	0	1	0	0	123.774	0.387857	0.387225	0.0945879	7	0.00183575	12	0	3.5902	3.66268e-05
2	1	0	1	0	0	124.124	0.391352	0.390756	0.0987862	7	0.00186902	12	0	3.9398	3.86013e-05
2	1	0	1	0	0	124.473	0.394847	0.394258	0.0894497	7	0.00190188	12	0	4.2892	3.52663e-05
2	1	0	1	0	0	124.823	0.398343	0.397732	0.09294	7	0.00193432	12	0	4.6388	3.69652e-05
2	1	0	1	0	0	125.172	0.401837	0.401208	0.0948999	7	0.00196649	12	0	4.9883	3.80746e-05
2	1	0	1	0	0	125.522	0.405333	0.40477	0.0854783	7	0.00199826	12	0	5.3378	3.45991e-05
2	1	0	1	0	0	125.871	0.408829	0.408192	0.0905104	7	0.00202961	12	0	5.6874	3.69456e-05
2	1	0	1	0	0	126.221	0.412323	0.411701	0.09135	7	0.00206073	12	0	6.0369	3.76089e-05
2	1	0	1	0	0	126.57	0.415819	0.415251	0.0827403	7	0.00209149	12	0	6.3864	3.4358e-05
2	1	0	1	0	0	126.92	0.419315	0.41873	0.0898006	7	0.00212197	12	0	6.736	3.76022e-05
2	1	0	1	0	0	127.27	0.422809	0.422184	0.0879094	7	0.00215234	12	0	7.0855	3.71139e-05
2	1	0	1	0	0	127.619	0.426305	0.425704	0.0807024	7	0.00218237	12	0	7.435	3.43553e-05
2	1	0	1	0	0	127.969	0.4298	0.429184	0.0885982	7	0.00221214	12	0	7.7846	3.80249e-05
2	1	0	1	0	0	128.318	0.433296	0.432667	0.0847816	7	0.00224175	12	0	8.1341	3.66822e-05
2	1	0	1	0	0	128.668	0.436791	0.43617	0.0798115	7	0.00227112	12	0	8.4836	3.48114e-05
2	1	0	1	0	0	129.017	0.440286	0.439686	0.0878006	7	0.00230038	12	0	8.8332	3.86047e-05
2	1	0	1	0	0	129.367	0.443782	0.443223	0.0820246	7	0.00232956	12	0	9.1827	3.63552e-05
2	1	0	1	0	0	129.716	0.447277	0.446654	0.0795051	7	0.00235853	12	0	9.5322	3.55113e-05
2	1	0	1	0	0	130.014	0.449724	0.44914	0.0516276	7	0.00238248	12	0	9.8297	2.3188e-05
2	0	0	1	0	0	130.393	0.445929	0.445302	-0.0553595	7	0.00237335	13	0	0.2297	-2.46517e-05
2	0	0	1	0	0	130.743	0.442434	0.441847	-0.0551825	7	0.00235345	13	0	0.5792	-2.43822e-05
2	0	0	1	0	0	131.092	0.438938	0.438342	-0.0658999	7	0.00233193	13	0	0.9287	-2.88867e-05
2	0	0	1	0	0	131.442	0.435443	0.434801	-0.0677963	7	0.00230928	13	0	1.2783	-2.94779e-05
2	0	0	1	0	0	131.791	0.431948	0.431319	-0.062988	7	0.00228596	13	0	1.6278	-2.71679e-05
2	0	0	1	0	0	132.141	0.428452	0.427803	-0.0734959	7	0.00226192	13	0	1.9773	-3.14418e-05
2	0	0	1	0	0	132.49	0.424957	0.424377	-0.0721026	7	0.00223717	13	0	2.3269	-3.05987e-05
2	0	0	1	0	0	132.84	0.421462	0.420828	-0.0691419	7	0.00221192	13	0	2.6764	-2.90969e-05
2	0	0	1	0	0	133.189	0.417966	0.417353	-0.0794658	7	0.00218599	13	0	3.0259	-3.31653e-05
2	0	0	1	0	0	133.539	0.414471	0.413891	-0.0754128	7	0.00215947	13	0	3.3755	-3.12127e-05
2	0	0	1	0	0	133.889	0.410976	0.410322	-0.0742795	7	0.00213255	13	0	3.725	-3.04785e-05
2	0	0	1	0	0	134.238	0.407481	0.406873	-0.0843187	7	0.00210503	13	0	4.0745	-3.4307e-05
2	0	0	1	0	0	134.588	0.403985	0.403336	-0.0794975	7	0.00207689	13	0	4.4241	-3.20642e-05
2	0	0	1	0	0	134.937	0.400489	0.399833	-0.0802159	7	0.00204829	13	0	4.7736	-3.20729e-05
2	0	0	1	0	0	135.287	0.396995	0.396417	-0.089399	7	0.00201906	13	0	5.1231	-3.54392e-05
2	0	0	1	0	0	135.636	0.393499	0.39291	-0.0831358	7	0.00198918	13	0	5.4727	-3.26649e-05
2	0	0	1	0	0	135.986	0.390003	0.389333	-0.0861971	7	0.00195883	13	0	5.8222	-3.35594e-05
2	0	0	1	0	0	136.335	0.386509	0.385886	-0.0944316	7	0.00192785	13	0	6.1717	-3.64398e-05
2	0	0	1	0	0	136.685	0.383013	0.38238	-0.0874092	7	0.00189629	13	0	6.5213	-3.34235e-05
2	0	0	1	0	0	137.034	0.379518	0.378926	-0.0923618	7	0.00186425	13	0	6.8707	-3.49983e-05
2	0	0	1	0	0	137.384	0.376023	0.375402	-0.0987259	7	0.00183146	13	0	7.2203	-3.70619e-05
2	0	0	1	0	0	137.733	0.372528	0.371931	-0.0918176	7	0.00179809	13	0	7.5698	-3.41498e-05
2	0	0	1	0	0	138.083	0.369032	0.36836	-0.0991957	7	0.00176406	13	0	7.9193	-3.65398e-05
2	0	0	1	0	0	138.447	0.365387	0.364817	-0.0970179	7	0.00172779	13	0	8.2839	-3.53938e-05
2	0	0	1	0	0	138.812	0.361741	0.361126	-0.1072	7	0.00169081	12	0	8.6484	-3.87128e-05
2	0	0	1	0	0	139.161	0.358247	0.357678	-0.100583	7	0.00165465	12	0	8.9979	-3.59761e-05
2	0	0	1	0	0	139.511	0.354751	0.354127	-0.105291	7	0.00161794	12	0	9.3475	-3.72864e-05
2	0	0	1	0	0	139.86	0.351256	0.350629	-0.113146	7	0.00158042	12	0	9.6969	-3.96723e-05
2	0	0	1	0	1	140.116	0.351305	0.35072	0.00390741	8	0.00156128	12	0	9.9526	1.37041e-06
2	1	0	1	0	1	140.496	0.355101	0.354482	0.0902115	8	0.00158296	13	0	0.3146	3.19783e-05
2	1	0	1	0	1	140.845	0.358596	0.357961	0.0926665	8	0.00161571	13	0	0.6642	3.3171e-05
2	1	0	1	0	1	141.225	0.362391	0.361774	0.0952813	8	0.00165349	12	0	1.0436	3.44703e-05
2	1	0	1	0	1	141.574	0.365886	0.365262	0.100118	8	0.00168836	12	0	1.3932	3.65693e-05
2	1	0	1	0	1	141.924	0.369382	0.368767	0.104128	8	0.00172336	12	0	1.7427	3.8399e-05
2	1	0	1	0	1	142.273	0.372877	0.372255	0.0944105	8	0.00175817	12	0	2.0922	3.51448e-05
2	1	0	1	0	1	142.623	0.376372	0.375767	0.0990005	8	0.0017926	12	0	2.4418	3.72011e-05
2	1	0	1	0	1	142.972	0.379868	0.379266	0.100241	8	0.00182675	12	0	2.7913	3.80181e-05
2	1	0	1	0	1	143.322	0.383363	0.382757	0.0908624	8	0.00186048	12	0	3.1408	3.47782e-05
2	1	0	1	0	1	143.671	0.386858	0.386236	0.0977884	8	0.00189383	12	0	3.4904	3.77694e-05
2	1	0	1	0	1	144.021	0.390354	0.389737	0.0961788	8	0.00192694	12	0	3.8399	3.74844e-05
2	1	0	1	0	1	144.37	0.393849	0.393259	0.0879093	8	0.00195955	12	0	4.1894	3.45711e-05
2	1	0	1	0	1	144.72	0.397344	0.396792	0.0951011	8	0.00199182	12	0	4.539	3.77354e-05
2	1	0	1	0	1	145.069	0.400839	0.400196	0.0915197	8	0.00202381	12	0	4.8884	3.66258e-05
2	1	0	1	0	1	145.419	0.404335	0.403736	0.0852558	8	0.0020553	12	0	5.238	3.44208e-05
2	1	0	1	0	1	145.769	0.407829	0.407225	0.0932472	8	0.0020865	12	0	5.5875	3.79726e-05
2	1	0	1	0	1	146.118	0.411325	0.410725	0.0874986	8	0.00211737	12	0	5.937	3.59378e-05
2	1	0	1	0	1	146.468	0.414821	0.414238	0.0829292	8	0.0021479	12	0	6.2866	3.43524e-05
2	1	0	1	0	1	146.817	0.418315	0.417701	0.0906743	8	0.00217814	12	0	6.6361	3.78747e-05
2	1	0	1	0	1	147.167	0.421811	0.421204	0.0842694	8	0.0022082	12	0	6.9856	3.54946e-05
2	1	0	1	0	1	147.516	0.425306	0.424697	0.0816669	8	0.00223791	12	0	7.3352	3.46837e-05
2	1	0	1	0	1	147.866	0.428802	0.428193	0.0889363	8	0.00226739	12	0	7.6847	3.80819e-05
2	1	0	1	0	1	148.215	0.432297	0.431729	0.0811514	8	0.00229671	12	0	8.0342	3.50354e-05
2	1	0	1	0	1	148.565	0.435792	0.435181	0.0801681	8	0.00232569	12	0	8.3838	3.48876e-05
2	1	0	1	0	1	148.914	0.439288	0.438684	0.0873215	8	0.00235459	12	0	8.7333	3.83065e-05
2	1	0	1	0	1	149.264	0.442783	0.442202	0.0796062	8	0.00238335	12	0	9.0828	3.5202e-05
2	1	0	1	0	1	149.613	0.446278	0.445699	0.0799368	8	0.00241195	12	0	9.4324	3.56278e-05
2	1	0	1	0	1	149.96	0.449749	0.449183	0.0870364	8	0.00244037	12	0	9.7794	3.90952e-05
2	0	0	1	0	1	150.275	0.447078	0.446493	-0.0469796	8	0.00244001	12	0	0.1148	-2.0976e-05
2	0	0	1	0	1	150.64	0.443432	0.442822	-0.0540786	8	0.00242038	13	0	0.4793	-2.39472e-05
2	0	0	1	0	1	150.989	0.439937	0.439313	-0.0659073	8	0.0023991	13	0	0.8289	-2.89539e-05
2	0	0	1	0	1	151.339	0.436442	0.435833	-0.0660497	8	0.00237669	13	0	1.1784	-2.87866e-05
2	0	0	1	0	1	151.688	0.432946	0.432273	-0.0628647	8	0.00235354	13	0	1.5279	-2.71747e-05
2	0	0	1	0	1	152.038	0.429451	0.428825	-0.0734694	8	0.00232967	13	0	1.8775	-3.15056e-05
2	0	0	1	0	1	152.388	0.425956	0.425317	-0.0713332	8	0.00230509	13	0	2.227	-3.03392e-05
2	0	0	1	0	1	152.737	0.42246	0.421876	-0.0683282	8	0.00228003	13	0	2.5765	-2.8826e-05
2	0	0	1	0	1	153.087	0.418965	0.41837	-0.0784675	8	0.00225433	13	0	2.9261	-3.28284e-05
2	0	0	1	0	1	153.436	0.41547	0.414902	-0.0755469	8	0.00222802	13	0	3.2756	-3.13446e-05
2	0	0	1	0	1	153.786	0.411974	0.411337	-0.0737078	8	0.00220131	13	0	3.6251	-3.03187e-05
2	0	0	1	0	1	154.135	0.408479	0.407855	-0.083723	8	0.00217398	13	0	3.9747	-3.41468e-05
2	0	0	1	0	1	154.485	0.404983	0.404386	-0.0793665	8	0.00214609	13	0	4.3242	-3.20947e-05
2	0	0	1	0	1	154.834	0.401489	0.400912	-0.0783602	8	0.00211775	13	0	4.6737	-3.14156e-05
2	0	0	1	0	1	155.184	0.397993	0.397398	-0.0883875	8	0.00208881	13	0	5.0233	-3.5125e-05
2	0	0	1	0	1	155.533	0.394497	0.393898	-0.0835966	8	0.00205924	13	0	5.3728	-3.29286e-05
2	0	0	1	0	1	155.883	0.391003	0.390376	-0.0844277	8	0.00202918	13	0	5.7223	-3.29586e-05
2	0	0	1	0	1	156.232	0.387507	0.386867	-0.0935162	8	0.00199848	13	0	6.0719	-3.61783e-05
2	0	0	1	0	1	156.582	0.384012	0.383359	-0.0875008	8	0.0019672	13	0	6.4213	-3.35442e-05
2	0	0	1	0	1	156.931	0.380517	0.3799	-0.089838	8	0.00193543	13	0	6.7709	-3.41295e-05
2	0	0	1	0	1	157.281	0.377022	0.37644	-0.0990445	8	0.00190287	13	0	7.1204	-3.72843e-05
2	0	0	1	0	1	157.63	0.373526	0.37294	-0.0927015	8	0.00186971	13	0	7.4699	-3.45721e-05
2	0	0	1	0	1	157.98	0.370031	0.369399	-0.0961366	8	0.00183602	13	0	7.8195	-3.55128e-05
2	0	0	1	0	1	158.33	0.366536	0.365881	-0.104034	8	0.00180157	13	0	8.169	-3.80641e-05
2	0	0	1	0	1	158.709	0.362741	0.362135	-0.105662	8	0.00176349	12	0	8.5485	-3.82638e-05
2	0	0	1	0	1	159.059	0.359245	0.358609	-0.10165	8	0.00172775	12	0	8.8981	-3.64525e-05
2	0	0	1	0	1	159.408	0.355749	0.355184	-0.101917	8	0.00169143	12	0	9.2476	-3.61992e-05
2	0	0	1	0	1	159.758	0.352255	0.351657	-0.11206	8	0.00165436	12	0	9.5971	-3.94066e-05
2	0	0	1	0	0	160.013	0.350307	0.349669	-0.0696405	9	0.00162769	12	0	9.8527	-2.43511e-05
2	1	0	1	0	0	160.393	0.354102	0.353522	0.0824652	9	0.00163796	13	0	0.2298	2.91533e-05
2	1	0	1	0	0	160.742	0.357598	0.356982	0.091347	9	0.00166911	13	0	0.5793	3.26092e-05
2	1	0	1	0	0	161.092	0.361093	0.360499	0.0978005	9	0.0017031	13	0	0.9288	3.5257e-05
2	1	0	1	0	0	161.456	0.364738	0.364146	0.0985113	9	0.00173929	13	0	1.2933	3.58725e-05
2	1	0	1	0	0	161.821	0.368383	0.36779	0.103957	9	0.00177568	12	0	1.6578	3.82343e-05
2	1	0	1	0	0	162.17	0.371878	0.371263	0.0966973	9	0.00181031	12	0	2.0074	3.59001e-05
2	1	0	1	0	0	162.52	0.375374	0.374799	0.0945255	9	0.00184453	12	0	2.3569	3.54281e-05
2	1	0	1	0	0	162.869	0.378869	0.378266	0.102007	9	0.00187853	12	0	2.7064	3.85857e-05
2	1	0	1	0	0	163.219	0.382364	0.381771	0.093444	9	0.00191218	12	0	3.056	3.56742e-05
2	1	0	1	0	0	163.569	0.38586	0.385221	0.0916677	9	0.0019453	12	0	3.4055	3.53123e-05
2	1	0	1	0	0	163.918	0.389355	0.388728	0.0979754	9	0.00197813	12	0	3.755	3.80858e-05
2	1	0	1	0	0	164.268	0.39285	0.392173	0.0898398	9	0.00201064	12	0	4.1046	3.52328e-05
2	1	0	1	0	0	164.617	0.396345	0.395749	0.0893299	9	0.00204273	12	0	4.454	3.53522e-05
2	1	0	1	0	0	164.967	0.399841	0.399227	0.0953129	9	0.00207453	12	0	4.8036	3.80515e-05
2	1	0	1	0	0	165.316	0.403335	0.402736	0.0862219	9	0.00210591	12	0	5.1531	3.47246e-05
2	1	0	1	0	0	165.666	0.406831	0.406238	0.0863715	9	0.00213683	12	0	5.5026	3.50873e-05
2	1	0	1	0	0	166.015	0.410327	0.409711	0.0919286	9	0.00216747	12	0	5.8522	3.76642e-05
2	1	0	1	0	0	166.365	0.413821	0.413251	0.0832579	9	0.00219787	12	0	6.2017	3.44064e-05
2	1	0	1	0	0	166.714	0.417317	0.416709	0.0843063	9	0.00222782	12	0	6.5512	3.51312e-05
2	1	0	1	0	0	167.064	0.420813	0.420202	0.0895385	9	0.00225766	12	0	6.9008	3.76243e-05
2	1	0	1	0	0	167.413	0.424307	0.423721	0.0803361	9	0.0022872	12	0	7.2503	3.40401e-05
2	1	0	1	0	0	167.763	0.427803	0.427207	0.0820278	9	0.00231635	12	0	7.5998	3.50428e-05
2	1	0	1	0	0	168.112	0.431298	0.430674	0.0872127	9	0.00234538	12	0	7.9494	3.75602e-05
2	1	0	1	0	0	168.462	0.434793	0.434173	0.0784924	9	0.00237421	12	0	8.2989	3.40793e-05
2	1	0	1	0	0	168.811	0.438289	0.43766	0.0814185	9	0.00240276	12	0	8.6484	3.56336e-05
2	1	0	1	0	0	169.161	0.441784	0.441217	0.0855827	9	0.00243131	12	0	8.998	3.77606e-05
2	1	0	1	0	0	169.511	0.44528	0.444684	0.0765165	9	0.00245964	12	0	9.3475	3.40256e-05
2	1	0	1	0	0	169.86	0.448775	0.448167	0.0807782	9	0.00248786	12	0	9.697	3.62021e-05
2	0	0	1	0	0	170.158	0.448225	0.447641	-0.0251815	9	0.00249958	12	0	0.0499	-1.12723e-05
2	0	0	1	0	0	170.537	0.444431	0.443832	-0.0570943	9	0.00248104	13	0	0.4294	-2.53403e-05
2	0	0	1	0	0	170.887	0.440936	0.440333	-0.0578335	9	0.00246014	13	0	0.7789	-2.5466e-05
2	0	0	1	0	0	171.236	0.43744	0.436806	-0.0694019	9	0.00243803	13	0	1.1284	-3.03152e-05
2	0	0	1	0	0	171.586	0.433945	0.433363	-0.0663731	9	0.00241498	13	0	1.478	-2.87637e-05
2	0	0	1	0	0	171.935	0.43045	0.429849	-0.0647895	9	0.00239136	13	0	1.8275	-2.78497e-05
2	0	0	1	0	0	172.285	0.426954	0.426326	-0.0747643	9	0.00236703	13	0	2.177	-3.1874e-05
2	0	0	1	0	0	172.634	0.423459	0.422853	-0.0714099	9	0.00234206	13	0	2.5266	-3.01959e-05
2	0	0	1	0	0	172.984	0.419964	0.419337	-0.0702863	9	0.00231659	13	0	2.8761	-2.94737e-05
2	0	0	1	0	0	173.333	0.416468	0.415854	-0.0800948	9	0.00229055	13	0	3.2256	-3.33077e-05
2	0	0	1	0	0	173.683	0.412973	0.412374	-0.0758228	9	0.00226393	13	0	3.5752	-3.12673e-05
2	0	0	1	0	0	174.032	0.409477	0.408819	-0.0745809	9	0.00223687	13	0	3.9247	-3.04901e-05
2	0	0	1	0	0	174.382	0.405982	0.405344	-0.084489	9	0.00220926	13	0	4.2742	-3.42471e-05
2	0	0	1	0	0	174.731	0.402487	0.401921	-0.0802543	9	0.00218102	13	0	4.6238	-3.22559e-05
2	0	0	1	0	0	175.081	0.398991	0.398349	-0.0797975	9	0.00215237	13	0	4.9733	-3.17873e-05
2	0	0	1	0	0	175.43	0.395497	0.394893	-0.0895543	9	0.00212309	13	0	5.3228	-3.53643e-05
2	0	0	1	0	0	175.78	0.392001	0.391353	-0.0842711	9	0.00209319	13	0	5.6724	-3.29798e-05
2	0	0	1	0	0	176.13	0.388505	0.38787	-0.0845209	9	0.00206284	13	0	6.0219	-3.27831e-05
2	0	0	1	0	0	176.479	0.385011	0.384361	-0.0946077	9	0.00203188	13	0	6.3714	-3.63635e-05
2	0	0	1	0	0	176.829	0.381515	0.380907	-0.0888965	9	0.00200027	13	0	6.721	-3.38613e-05
2	0	0	1	0	0	177.178	0.37802	0.377394	-0.0905135	9	0.00196818	13	0	7.0704	-3.41592e-05
2	0	0	1	0	0	177.528	0.374525	0.373915	-0.0995239	9	0.0019354	13	0	7.42	-3.72134e-05
2	0	0	1	0	0	177.877	0.37103	0.370421	-0.0934186	9	0.00190198	13	0	7.7695	-3.46042e-05
2	0	0	1	0	0	178.227	0.367534	0.366939	-0.0966535	9	0.00186797	13	0	8.119	-3.5466e-05
2	0	0	1	0	0	178.591	0.363889	0.363295	-0.0972404	9	0.00183177	13	0	8.4836	-3.5327e-05
2	0	0	1	0	0	178.956	0.360243	0.359628	-0.106895	9	0.00179486	12	0	8.8481	-3.84424e-05
2	0	0	1	0	0	179.305	0.356749	0.356149	-0.102724	9	0.00175872	12	0	9.1976	-3.65849e-05
2	0	0	1	0	0	179.655	0.353253	0.352678	-0.10245	9	0.00172201	12	0	9.5472	-3.61317e-05
2	0	0	1	0	0	179.978	0.349983	0.349363	-0.106918	9	0.00168755	12	0	9.8701	-3.73531e-05
2	1	0	1	0	1	180.29	0.353104	0.352523	0.0608476	10	0.00168871	13	0	0.1299	2.14502e-05
2	1	0	1	0	1	180.639	0.356599	0.356042	0.0977108	10	0.00171744	13	0	0.4794	3.47892e-05
2	1	0	1	0	1	180.989	0.360094	0.359487	0.0944051	10	0.00175091	13	0	0.829	3.39374e-05
2	1	0	1	0	1	181.338	0.363589	0.363002	0.0969131	10	0.00178517	13	0	1.1784	3.51796e-05
2	1	0	1	0	1	181.688	0.367085	0.366498	0.103325	10	0.00181964	13	0	1.528	3.78685e-05
2	1	0	1	0	1	182.038	0.370579	0.369966	0.0942342	10	0.00185401	13	0	1.8775	3.48635e-05
2	1	0	1	0	1	182.387	0.374075	0.373507	0.0965035	10	0.00188804	13	0	2.227	3.60448e-05
2	1	0	1	0	1	182.737	0.377571	0.377002	0.100838	10	0.00192187	13	0	2.5766	3.80161e-05
2	1	0	1	0	1	183.086	0.381065	0.380449	0.0911895	10	0.00195531	13	0	2.9261	3.4693e-05
2	1	0	1	0	1	183.436	0.384561	0.38398	0.09379	10	0.00198833	13	0	3.2756	3.60135e-05
2	1	0	1	0	1	183.785	0.388057	0.387437	0.0974138	10	0.00202114	13	0	3.6252	3.77417e-05
2	1	0	1	0	1	184.135	0.391551	0.390973	0.0877795	10	0.00205347	13	0	3.9747	3.43194e-05
2	1	0	1	0	1	184.484	0.395047	0.394469	0.0910404	10	0.00208534	13	0	4.3242	3.59127e-05
2	1	0	1	0	1	184.834	0.398542	0.397952	0.094107	10	0.00211701	13	0	4.6738	3.745e-05
2	1	0	1	0	1	185.183	0.402038	0.401444	0.084213	10	0.00214824	13	0	5.0233	3.38068e-05
2	1	0	1	0	1	185.533	0.405533	0.404955	0.0876532	10	0.00217899	13	0	5.3728	3.54956e-05
2	1	0	1	0	1	185.882	0.409028	0.408423	0.0906533	10	0.00220949	13	0	5.7224	3.70249e-05
2	1	0	1	0	1	186.232	0.412524	0.411942	0.0816516	10	0.00223963	13	0	6.0719	3.36358e-05
2	1	0	1	0	1	186.581	0.416019	0.415425	0.0855868	10	0.00226942	13	0	6.4214	3.55549e-05
2	1	0	1	0	1	186.931	0.419514	0.418925	0.0881031	10	0.00229905	13	0	6.771	3.69086e-05
2	1	0	1	0	1	187.281	0.42301	0.422407	0.0786976	10	0.00232836	13	0	7.1205	3.32425e-05
2	1	0	1	0	1	187.63	0.426505	0.425878	0.0834715	10	0.00235734	13	0	7.47	3.55487e-05
2	1	0	1	0	1	187.98	0.43	0.429439	0.0860887	10	0.00238618	13	0	7.8196	3.69698e-05
2	1	0	1	0	1	188.329	0.433496	0.432932	0.0768337	10	0.00241477	13	0	8.1691	3.32638e-05
2	1	0	1	0	1	188.679	0.436991	0.436438	0.0819367	10	0.00244308	13	0	8.5186	3.57603e-05
2	1	0	1	0	1	189.028	0.440486	0.439856	0.0839114	10	0.00247134	13	0	8.8682	3.69089e-05
2	1	0	1	0	1	189.378	0.443981	0.443385	0.0751286	10	0.00249937	13	0	9.2176	3.33109e-05
2	1	0	1	0	1	189.727	0.447477	0.446891	0.0810391	10	0.00252726	13	0	9.5672	3.62156e-05
2	1	0	1	0	1	190.005	0.449724	0.449144	0.0565156	10	0.00254875	13	0	9.8447	2.53837e-05
2	0	0	1	0	1	190.414	0.445629	0.445017	-0.0581873	10	0.00253743	13	0	0.2797	-2.58944e-05
2	0	0	1	0	1	190.764	0.442133	0.441538	-0.056111	10	0.00251709	13	0	0.6292	-2.47752e-05
2	0	0	1	0	1	191.113	0.438639	0.437992	-0.0649176	10	0.00249536	13	0	0.9787	-2.84334e-05
2	0	0	1	0	1	191.463	0.435143	0.43455	-0.0695832	10	0.00247258	13	0	1.3283	-3.02373e-05
2	0	0	1	0	1	191.812	0.431648	0.431036	-0.0630055	10	0.00244917	13	0	1.6777	-2.71577e-05
2	0	0	1	0	1	192.162	0.428153	0.427516	-0.0714532	10	0.00242512	13	0	2.0273	-3.05474e-05
2	0	0	1	0	1	192.511	0.424658	0.424064	-0.0746821	10	0.00240041	13	0	2.3768	-3.167e-05
2	0	0	1	0	1	192.861	0.421162	0.420553	-0.0681255	10	0.00237518	13	0	2.7263	-2.86504e-05
2	0	0	1	0	1	193.21	0.417667	0.41703	-0.0765347	10	0.0023494	13	0	3.0759	-3.19172e-05
2	0	0	1	0	1	193.56	0.414172	0.413584	-0.0786014	10	0.00232303	13	0	3.4254	-3.25083e-05
2	0	0	1	0	1	193.909	0.410676	0.410084	-0.072772	10	0.00229618	13	0	3.7749	-2.98426e-05
2	0	0	1	0	1	194.259	0.407181	0.406539	-0.0812805	10	0.00226884	13	0	4.1245	-3.30437e-05
2	0	0	1	0	1	194.609	0.403686	0.403093	-0.0834582	10	0.00224087	13	0	4.474	-3.36414e-05
2	0	0	1	0	1	194.958	0.40019	0.399603	-0.0771943	10	0.00221245	13	0	4.8235	-3.08471e-05
2	0	0	1	0	1	195.308	0.396695	0.396051	-0.0859364	10	0.00218352	13	0	5.1731	-3.40353e-05
2	0	0	1	0	1	195.657	0.3932	0.392597	-0.0875923	10	0.00215392	13	0	5.5226	-3.43885e-05
2	0	0	1	0	1	196.007	0.389704	0.389077	-0.0821237	10	0.00212387	13	0	5.8721	-3.19525e-05
2	0	0	1	0	1	196.356	0.386209	0.385547	-0.0910408	10	0.00209328	13	0	6.2217	-3.51005e-05
2	0	0	1	0	1	196.706	0.382714	0.382094	-0.0924839	10	0.00206198	13	0	6.5712	-3.53376e-05
2	0	0	1	0	1	197.055	0.379218	0.378598	-0.0869265	10	0.00203021	13	0	6.9207	-3.29102e-05
2	0	0	1	0	1	197.405	0.375723	0.37509	-0.0960615	10	0.00199781	13	0	7.2703	-3.60317e-05
2	0	0	1	0	1	197.754	0.372227	0.371634	-0.0980773	10	0.00196469	13	0	7.6198	-3.64489e-05
2	0	0	1	0	1	198.104	0.368733	0.368102	-0.092651	10	0.001931	13	0	7.9693	-3.41051e-05
2	0	0	1	0	1	198.453	0.365237	0.364619	-0.101581	10	0.00189668	13	0	8.3189	-3.70382e-05
2	0	0	1	0	1	198.833	0.361442	0.360827	-0.100502	10	0.00185856	12	0	8.6983	-3.62639e-05
2	0	0	1	0	1	199.182	0.357947	0.357332	-0.107432	10	0.00182289	12	0	9.0479	-3.83889e-05
2	0	0	1	0	1	199.532	0.354452	0.353838	-0.10096	10	0.00178656	12	0	9.3974	-3.57234e-05
2	0	0	1	0	1	199.881	0.350956	0.350327	-0.106923	10	0.00174958	12	0	9.7469	-3.74581e-05
2	0	0	1	0	1	199.975	0.349983	0.349287	-0.0987728	10	0.00173958	12	0	9.8402	-3.45e-05