File: ACS_Catal_2026/Figures_Na_K/main_figures/data/EC/20240527_2-145_re-addition/20240527_2-145_Na_added_C02.mpt
EC-Lab ASCII FILE
Nb header lines : 66

Cyclic Voltammetry Advanced

Run on channel : 2 (SN 68855)
User :
CE vs. WE compliance from -10 V to 10 V
Electrode connection : standard
Potential control : Ewe
Ewe ctrl range : min = -1.00 V, max = 1.00 V
Safety Limits :
	Do not start on E overload
Acquisition started on : 05/28/2024 11:52:02.544
Loaded Setting File :  C:\Users\HZ-7000\Documents\EC-Lab\Data\Yatsuzuka\20240502_2-136_UPS_preparation\20240502_2-136_UPS_preparation_K-1.mps
Saved on :
	File : 20240527_2-145_Na_added_C02.mpr
	Directory : C:\Users\HZ-7000\Documents\EC-Lab\Data\Yatsuzuka\20240527_2-145_re-addition\
	Host : 192.109.209.100
Device : SP-150e (SN .003466)
Address : 192.109.209.128
EC-Lab for windows v11.50 (software)
Internet server v11.50 (firmware)
Command interpretor v11.50 (firmware)
Electrode material :
Initial state :
Electrolyte :
Comments :
Electrode surface area : 0.001 cm2
Characteristic mass : 0.001 g
Equivalent Weight : 0.000 g/eq.
Density : 0.000 g/cm3
Volume (V) : 0.001 cm3
Cycle Definition : Charge/Discharge alternance
Ei (V)              0.450
vs.                 Ref
ti (h:m:s)          0:00:10.0000
dti (s)             0.0000
dE/dt               5.000
dE/dt unit          mV/s
E1 (V)              0.700
vs.                 Ref
t1 (h:m:s)          0:00:0.0000
dt1 (s)             0.1000
Step percent        50
N                   10
E range min (V)     -1.000
E range max (V)     1.000
I Range             10 mA
I Range min         Unset
I Range max         Unset
I Range init        Unset
Bandwidth           5
E2 (V)              0.450
vs.                 Ref
t2 (h:m:s)          0:00:0.0000
dt2 (s)             0.1000
nc cycles           0
nr                  1
Reverse Scan        0
Ef (V)              0.000
vs.                 Eoc
tf (h:m:s)          0:00:0.0000
dtf (s)             0.1000

mode	ox/red	error	control changes	Ns changes	counter inc.	time/s	control/V	Ewe/V	<I>/mA	cycle number	(Q-Qo)/C	I Range	Ns	step time/s	P/W
2	1	0	1	0	0	0.000000000000000E+000	0.449949	0.449384	0.00293901	1	0.0000000E+000	11	0	0.000000000000000E+000	1.32074e-06
2	1	0	1	0	0	0.1547	0.450722	0.450083	0.0227848	1	2.58541e-06	11	0	0.0999	1.02551e-05
2	1	0	0	0	0	0.3544	0.451721	0.45112	0.0294426	1	7.77889e-06	11	0	0.2996	1.32822e-05
2	1	0	1	0	0	0.5541	0.452719	0.452094	0.0284155	1	1.35398e-05	11	0	0.4993	1.28465e-05
2	1	0	1	0	0	0.7539	0.453718	0.45309	0.0302135	1	1.96556e-05	11	0	0.6991	1.36895e-05
2	1	0	0	0	0	0.9536	0.454717	0.454126	0.0313594	1	2.55912e-05	11	0	0.8988	1.42411e-05
2	1	0	1	0	0	1.1533	0.455715	0.455093	0.0294559	1	3.16659e-05	11	0	1.0985	1.34052e-05
2	1	0	1	0	0	1.3531	0.456714	0.456063	0.030926	1	3.79372e-05	11	0	1.2983	1.41042e-05
2	1	0	0	0	0	1.5528	0.457713	0.457101	0.0315806	1	4.39748e-05	11	0	1.498	1.44356e-05
2	1	0	1	0	0	1.7525	0.458711	0.458129	0.0298371	1	5.01429e-05	11	0	1.6977	1.36692e-05
2	1	0	1	0	0	1.9523	0.45971	0.459091	0.0313624	1	5.64421e-05	11	0	1.8975	1.43982e-05
2	1	0	0	0	0	2.152	0.460709	0.460094	0.0314123	1	6.2471e-05	11	0	2.0972	1.44526e-05
2	1	0	1	0	0	2.3517	0.461707	0.461042	0.0297482	1	6.86976e-05	11	0	2.2969	1.37151e-05
2	1	0	1	0	0	2.5515	0.462706	0.462105	0.0319014	1	7.50075e-05	11	0	2.4967	1.47418e-05
2	1	0	0	0	0	2.7512	0.463705	0.463099	0.0312837	1	8.10468e-05	11	0	2.6964	1.44874e-05
2	1	0	1	0	0	2.9509	0.464703	0.464089	0.0296586	1	8.732e-05	11	0	2.8961	1.37642e-05
2	1	0	1	0	0	3.1507	0.465702	0.465078	0.0319927	1	9.35995e-05	11	0	3.0959	1.48791e-05
2	1	0	0	0	0	3.3504	0.466701	0.466104	0.0311211	1	9.96298e-05	11	0	3.2956	1.45057e-05
2	1	0	1	0	0	3.5501	0.467699	0.467079	0.0300375	1	0.000105964	11	0	3.4953	1.40299e-05
2	1	0	1	0	0	3.7499	0.468698	0.468027	0.0322215	1	0.000112226	11	0	3.6951	1.50805e-05
2	1	0	0	0	0	3.9496	0.469697	0.469066	0.0307468	1	0.000118294	11	0	3.8948	1.44223e-05
2	1	0	1	0	0	4.1493	0.470695	0.470078	0.0302946	1	0.000124656	11	0	4.0945	1.42408e-05
2	1	0	1	0	0	4.3491	0.471694	0.471078	0.0325064	1	0.000130869	11	0	4.2943	1.53131e-05
2	1	0	0	0	0	4.5488	0.472693	0.472079	0.0303183	1	0.000136979	11	0	4.494	1.43126e-05
2	1	0	1	0	0	4.7485	0.473691	0.473116	0.0306658	1	0.000143379	11	0	4.6937	1.45085e-05
2	1	0	1	0	0	4.9483	0.47469	0.474065	0.032589	1	0.000149556	11	0	4.8935	1.54493e-05
2	1	0	0	0	0	5.148	0.475689	0.475076	0.0300674	1	0.000155688	11	0	5.0932	1.42843e-05
2	1	0	1	0	0	5.3477	0.476687	0.476062	0.0308787	1	0.000162073	11	0	5.2929	1.47002e-05
2	1	0	1	0	0	5.5475	0.477686	0.477087	0.0321997	1	0.000168208	11	0	5.4927	1.53621e-05
2	1	0	0	0	0	5.7472	0.478685	0.478043	0.0298692	1	0.000174365	11	0	5.6924	1.42787e-05
2	1	0	1	0	0	5.9469	0.479683	0.47907	0.0312485	1	0.000180725	11	0	5.8921	1.49702e-05
2	1	0	1	0	0	6.1467	0.480682	0.480065	0.0318253	1	0.000186819	11	0	6.0919	1.52782e-05
2	1	0	0	0	0	6.3464	0.481681	0.481082	0.0297119	1	0.000193009	11	0	6.2916	1.42939e-05
2	1	0	1	0	0	6.5461	0.482679	0.482072	0.0316221	1	0.000199344	11	0	6.4913	1.52441e-05
2	1	0	1	0	0	6.7459	0.483678	0.483071	0.031707	1	0.000205415	11	0	6.6911	1.53167e-05
2	1	0	0	0	0	6.9456	0.484677	0.484068	0.0296104	1	0.000211622	11	0	6.8908	1.43335e-05
2	1	0	1	0	0	7.1453	0.485675	0.4851	0.0316471	1	0.000217929	11	0	7.0905	1.5352e-05
2	1	0	1	0	0	7.345	0.486674	0.486067	0.0315229	1	0.000223973	11	0	7.2902	1.53223e-05
2	1	0	0	0	0	7.5448	0.487673	0.487066	0.0297587	1	0.00023021	11	0	7.49	1.44945e-05
2	1	0	1	0	0	7.7445	0.488671	0.488032	0.0315673	1	0.000236484	11	0	7.6897	1.54058e-05
2	1	0	1	0	0	7.9442	0.48967	0.489066	0.03112	1	0.000242524	11	0	7.8894	1.52198e-05
2	1	0	0	0	0	8.144	0.490669	0.490072	0.0298666	1	0.000248769	11	0	8.0892	1.46368e-05
2	1	0	1	0	0	8.3437	0.491667	0.491057	0.0317064	1	0.000255004	11	0	8.2889	1.55696e-05
2	1	0	1	0	0	8.5434	0.492666	0.492071	0.0307842	1	0.000261019	11	0	8.4886	1.5148e-05
2	1	0	1	0	0	8.7431	0.493664	0.493058	0.0298119	1	0.000267285	11	0	8.6883	1.4699e-05
2	1	0	1	0	0	8.9429	0.494663	0.494086	0.0318877	1	0.000273487	11	0	8.8881	1.57553e-05
2	1	0	1	0	0	9.1426	0.495662	0.495049	0.0306053	1	0.000279509	11	0	9.0878	1.51511e-05
2	1	0	1	0	0	9.3423	0.49666	0.49602	0.0298525	1	0.000285804	11	0	9.2875	1.48074e-05
2	1	0	1	0	0	9.5421	0.497659	0.497018	0.0321113	1	0.000291983	11	0	9.4873	1.59599e-05
2	1	0	1	0	0	9.7418	0.498658	0.498042	0.0303723	1	0.000298028	11	0	9.687	1.51267e-05
2	1	0	1	0	0	9.9415	0.499656	0.499057	0.0302574	1	0.000304354	11	0	9.8867	1.51002e-05
2	1	0	1	0	0	10.1413	0.500655	0.500048	0.0320675	1	0.000310497	11	0	10.0865	1.60353e-05
2	1	0	1	0	0	10.341	0.501654	0.501057	0.0300532	1	0.000316581	11	0	10.2862	1.50584e-05
2	1	0	1	0	0	10.5407	0.502652	0.502024	0.0306759	1	0.000322919	11	0	10.4859	1.54e-05
2	1	0	1	0	0	10.7405	0.503651	0.503035	0.032173	1	0.000329036	11	0	10.6857	1.61842e-05
2	1	0	1	0	0	10.9402	0.50465	0.503994	0.0296454	1	0.000335138	11	0	10.8854	1.49411e-05
2	1	0	1	0	0	11.1399	0.505648	0.505033	0.0309458	1	0.000341496	11	0	11.0851	1.56286e-05
2	1	0	1	0	0	11.3397	0.506648	0.506027	0.0321808	1	0.000347577	11	0	11.2849	1.62843e-05
2	1	0	1	0	0	11.5394	0.507646	0.507007	0.0296534	1	0.000353742	11	0	11.4846	1.50344e-05
2	1	0	1	0	0	11.7391	0.508644	0.508069	0.0313692	1	0.000360088	11	0	11.6843	1.59377e-05
2	1	0	1	0	0	11.9389	0.509643	0.509026	0.0317853	1	0.000366156	11	0	11.8841	1.61795e-05
2	1	0	1	0	0	12.1386	0.510642	0.510042	0.0296857	1	0.000372371	11	0	12.0838	1.5141e-05
2	1	0	1	0	0	12.3383	0.51164	0.511001	0.0318671	1	0.0003787	11	0	12.2835	1.62842e-05
2	1	0	1	0	0	12.5381	0.51264	0.512016	0.0314441	1	0.000384768	11	0	12.4833	1.60999e-05
2	1	0	1	0	0	12.7378	0.513638	0.513027	0.0299522	1	0.000391055	11	0	12.683	1.53663e-05
2	1	0	1	0	0	12.9375	0.514636	0.514036	0.0323964	1	0.000397387	11	0	12.8827	1.66529e-05
2	1	0	1	0	0	13.1373	0.515635	0.515025	0.0313851	1	0.000403502	11	0	13.0825	1.61641e-05
2	1	0	1	0	0	13.337	0.516634	0.516035	0.0301638	1	0.000409866	11	0	13.2822	1.55656e-05
2	1	0	1	0	0	13.5367	0.517632	0.516984	0.0325365	1	0.000416186	11	0	13.4819	1.68208e-05
2	1	0	1	0	0	13.7365	0.518632	0.518033	0.0312816	1	0.000422326	11	0	13.6817	1.62049e-05
2	1	0	1	0	0	13.9362	0.51963	0.519044	0.0306764	1	0.000428738	11	0	13.8814	1.59224e-05
2	1	0	1	0	0	14.1359	0.520628	0.519985	0.032596	1	0.000435056	11	0	14.0811	1.69494e-05
2	1	0	1	0	0	14.3357	0.521627	0.520989	0.0311068	1	0.000441243	11	0	14.2809	1.62063e-05
2	1	0	1	0	0	14.5354	0.522626	0.522029	0.0311399	1	0.000447699	11	0	14.4806	1.62559e-05
2	1	0	1	0	0	14.7351	0.523624	0.52301	0.0330354	1	0.000454047	11	0	14.6803	1.72778e-05
2	1	0	1	0	0	14.9349	0.524623	0.524003	0.031077	1	0.000460299	11	0	14.8801	1.62844e-05
2	1	0	1	0	0	15.1346	0.525622	0.525	0.0315297	1	0.000466819	11	0	15.0798	1.65531e-05
2	1	0	1	0	0	15.3343	0.52662	0.526038	0.033203	1	0.000473164	11	0	15.2795	1.7466e-05
2	1	0	0	0	0	15.534	0.527619	0.527017	0.0312449	1	0.000479481	11	0	15.4792	1.64666e-05
2	1	0	1	0	0	15.7338	0.528618	0.528018	0.0319712	1	0.000486067	11	0	15.679	1.68813e-05
2	1	0	1	0	0	15.9335	0.529616	0.528992	0.0333147	1	0.00049244	11	0	15.8787	1.76232e-05
2	1	0	0	0	0	16.1332	0.530615	0.53001	0.0314595	1	0.000498845	11	0	16.0784	1.66739e-05
2	1	0	1	0	0	16.3329	0.531613	0.531023	0.0327291	1	0.000505502	11	0	16.2781	1.73799e-05
2	1	0	1	0	0	16.5327	0.532612	0.531992	0.0335604	1	0.00051192	11	0	16.4779	1.78539e-05
2	1	0	0	0	0	16.7324	0.533611	0.533026	0.0316761	1	0.000518458	11	0	16.6776	1.68842e-05
2	1	0	1	0	0	16.9321	0.534609	0.533991	0.033551	1	0.000525192	11	0	16.8773	1.79159e-05
2	1	0	1	0	0	17.1319	0.535608	0.535009	0.0339232	1	0.000531682	11	0	17.0771	1.81492e-05
2	1	0	0	0	0	17.3316	0.536607	0.536021	0.0318813	1	0.000538352	11	0	17.2768	1.70891e-05
2	1	0	1	0	0	17.5313	0.537605	0.53701	0.0342402	1	0.000545154	11	0	17.4765	1.83873e-05
2	1	0	1	0	0	17.7311	0.538604	0.538005	0.0341173	1	0.000551706	11	0	17.6763	1.83553e-05
2	1	0	0	0	0	17.9308	0.539603	0.538987	0.0325507	1	0.000558525	11	0	17.876	1.75444e-05
2	1	0	1	0	0	18.1305	0.540601	0.539969	0.0350611	1	0.000565384	11	0	18.0757	1.89319e-05
2	1	0	1	0	0	18.3303	0.5416	0.541024	0.0341393	1	0.000572052	11	0	18.2755	1.84702e-05
2	1	0	0	0	0	18.53	0.542599	0.541981	0.0332475	1	0.000579019	11	0	18.4752	1.80195e-05
2	1	0	1	0	0	18.7297	0.543597	0.542971	0.0359078	1	0.000585936	11	0	18.6749	1.94969e-05
2	1	0	1	0	0	18.9295	0.544596	0.544001	0.0342937	1	0.00059275	11	0	18.8747	1.86558e-05
2	1	0	0	0	0	19.1292	0.545595	0.544984	0.0344152	1	0.000599905	11	0	19.0744	1.87557e-05
2	1	0	1	0	0	19.3289	0.546593	0.545973	0.036887	1	0.000606942	11	0	19.2741	2.01393e-05
2	1	0	1	0	0	19.5287	0.547592	0.547029	0.0348677	1	0.000613943	11	0	19.4739	1.90737e-05
2	1	0	0	0	0	19.7284	0.548591	0.547965	0.0353965	1	0.000621266	11	0	19.6736	1.9396e-05
2	1	0	1	0	0	19.9281	0.549589	0.548983	0.0375802	1	0.000628451	11	0	19.8733	2.06309e-05
2	1	0	1	0	0	20.1279	0.550588	0.549975	0.0356999	1	0.000635655	11	0	20.0731	1.96341e-05
2	1	0	0	0	0	20.3276	0.551587	0.550967	0.0368341	1	0.000643165	11	0	20.2728	2.02944e-05
2	1	0	1	0	0	20.5273	0.552585	0.551984	0.0381795	1	0.000650488	11	0	20.4725	2.10745e-05
2	1	0	1	0	0	20.7271	0.553584	0.552979	0.0364466	1	0.000657925	11	0	20.6723	2.01542e-05
2	1	0	0	0	0	20.9268	0.554583	0.553953	0.0383625	1	0.000665624	11	0	20.872	2.1251e-05
2	1	0	1	0	0	21.1265	0.555581	0.554966	0.0390579	1	0.000673129	11	0	21.0717	2.16758e-05
2	1	0	1	0	0	21.3263	0.55658	0.55601	0.0374233	1	0.000680821	11	0	21.2715	2.08077e-05
2	1	0	0	0	0	21.526	0.557579	0.556991	0.0397196	1	0.000688743	11	0	21.4712	2.21234e-05
2	1	0	1	0	0	21.7257	0.558577	0.557983	0.0402536	1	0.00069649	11	0	21.6709	2.24608e-05
2	1	0	1	0	0	21.9255	0.559577	0.558971	0.0389834	1	0.000704499	11	0	21.8707	2.17906e-05
2	1	0	0	0	0	22.1252	0.560575	0.55996	0.0413647	1	0.000712686	11	0	22.0704	2.31626e-05
2	1	0	1	0	0	22.3249	0.561573	0.560939	0.0412594	1	0.000720718	11	0	22.2701	2.3144e-05
2	1	0	1	0	0	22.5246	0.562572	0.561969	0.0406827	1	0.000729043	11	0	22.4698	2.28624e-05
2	1	0	0	0	0	22.7244	0.563571	0.562919	0.0432992	1	0.000737524	11	0	22.6696	2.43739e-05
2	1	0	1	0	0	22.9241	0.564569	0.563987	0.0429235	1	0.000745911	11	0	22.8693	2.42083e-05
2	1	0	1	0	0	23.1239	0.565568	0.564989	0.0427056	1	0.000754677	11	0	23.0691	2.41282e-05
2	1	0	0	0	0	23.3236	0.566567	0.565985	0.0455015	1	0.000763512	11	0	23.2688	2.57532e-05
2	1	0	1	0	0	23.5233	0.567565	0.566992	0.0447259	1	0.000772304	11	0	23.4685	2.53592e-05
2	1	0	1	0	0	23.723	0.568564	0.567985	0.0446497	1	0.000781478	11	0	23.6682	2.53604e-05
2	1	0	0	0	0	23.9228	0.569563	0.568972	0.0476056	1	0.000790692	11	0	23.868	2.70862e-05
2	1	0	1	0	0	24.1225	0.570561	0.569977	0.0467121	1	0.000799922	11	0	24.0677	2.66248e-05
2	1	0	1	0	0	24.3222	0.57156	0.570938	0.0475043	1	0.000809597	11	0	24.2674	2.7122e-05
2	1	0	1	0	0	24.5219	0.572558	0.571933	0.0500326	1	0.000819246	11	0	24.4671	2.86153e-05
2	1	0	1	0	0	24.7217	0.573557	0.57297	0.0487881	1	0.000829008	11	0	24.6669	2.79541e-05
2	1	0	1	0	0	24.9214	0.574556	0.573955	0.0506011	1	0.0008392	11	0	24.8666	2.90427e-05
2	1	0	1	0	0	25.1211	0.575554	0.574954	0.0527937	1	0.000849352	11	0	25.0663	3.03539e-05
2	1	0	1	0	0	25.3209	0.576553	0.575957	0.0512599	1	0.000859703	11	0	25.2661	2.95235e-05
2	1	0	1	0	0	25.5206	0.577552	0.576934	0.053887	1	0.000870486	11	0	25.4658	3.10893e-05
2	1	0	1	0	0	25.7203	0.57855	0.577923	0.0557867	1	0.000881194	11	0	25.6655	3.22404e-05
2	1	0	1	0	0	25.9201	0.579549	0.57894	0.0546888	1	0.000892267	11	0	25.8653	3.16615e-05
2	1	0	1	0	0	26.1198	0.580548	0.579939	0.0576748	1	0.000903713	11	0	26.065	3.34479e-05
2	1	0	1	0	0	26.3195	0.581546	0.58097	0.058928	1	0.000915086	11	0	26.2647	3.42354e-05
2	1	0	1	0	0	26.5193	0.582545	0.581932	0.0584962	1	0.000926933	11	0	26.4645	3.40408e-05
2	1	0	1	0	0	26.719	0.583544	0.582983	0.0619442	1	0.000939115	11	0	26.6642	3.61124e-05
2	1	0	1	0	0	26.9187	0.584542	0.583965	0.0626479	1	0.000951303	11	0	26.8639	3.65842e-05
2	1	0	1	0	0	27.1185	0.585541	0.584934	0.0627843	1	0.00096403	11	0	27.0637	3.67247e-05
2	1	0	1	0	0	27.3182	0.58654	0.585905	0.066758	1	0.000977047	11	0	27.2634	3.91138e-05
2	1	0	1	0	0	27.5179	0.587538	0.586913	0.0669627	1	0.000990155	11	0	27.4631	3.93013e-05
2	1	0	1	0	0	27.7177	0.588537	0.587954	0.0677709	1	0.00100386	11	0	27.6629	3.98462e-05
2	1	0	1	0	0	27.9174	0.589536	0.588926	0.0718153	1	0.00101784	11	0	27.8626	4.22939e-05
2	1	0	1	0	0	28.1171	0.590534	0.589934	0.0720294	1	0.00103199	11	0	28.0623	4.24926e-05
2	1	0	1	0	0	28.3169	0.591534	0.590918	0.0738107	1	0.00104682	11	0	28.2621	4.36161e-05
2	1	0	1	0	0	28.5166	0.592532	0.591923	0.0776434	1	0.0010619	11	0	28.4618	4.59589e-05
2	1	0	1	0	0	28.7163	0.59353	0.592928	0.0778158	1	0.00107732	11	0	28.6615	4.61392e-05
2	1	0	1	0	0	28.9161	0.594529	0.593931	0.0806864	1	0.00109341	11	0	28.8613	4.79222e-05
2	1	0	1	0	0	29.1158	0.595528	0.5949	0.0842618	1	0.00110976	11	0	29.061	5.01273e-05
2	1	0	1	0	0	29.3155	0.596526	0.595917	0.0844445	1	0.00112655	11	0	29.2607	5.0322e-05
2	1	0	1	0	0	29.5153	0.597525	0.596964	0.0879242	1	0.00114404	11	0	29.4605	5.24876e-05
2	1	0	1	0	0	29.715	0.598524	0.597894	0.0915401	1	0.00116179	11	0	29.6602	5.47313e-05
2	1	0	1	0	0	29.9147	0.599522	0.598962	0.0921812	1	0.00118011	11	0	29.8599	5.5213e-05
2	1	0	1	0	0	30.1145	0.600521	0.599903	0.0962216	1	0.0011992	11	0	30.0597	5.77237e-05
2	1	0	1	0	0	30.3142	0.60152	0.600928	0.0997037	1	0.00121858	11	0	30.2594	5.99147e-05
2	1	0	1	0	0	30.5139	0.602518	0.601932	0.100879	1	0.00123864	11	0	30.4591	6.0722e-05
2	1	0	0	0	0	30.7136	0.603517	0.602924	0.105583	1	0.00125946	11	0	30.6588	6.36585e-05
2	1	0	1	0	0	30.9134	0.604516	0.603913	0.108902	1	0.00128067	11	0	30.8586	6.57677e-05
2	1	0	1	0	0	31.1131	0.605514	0.60489	0.110681	1	0.00130272	11	0	31.0583	6.69495e-05
2	1	0	0	0	0	31.3128	0.606513	0.605911	0.116118	1	0.00132552	11	0	31.258	7.03571e-05
2	1	0	1	0	0	31.5126	0.607512	0.606935	0.119232	1	0.0013488	11	0	31.4578	7.23664e-05
2	1	0	1	0	0	31.7123	0.60851	0.607949	0.121571	1	0.00137305	11	0	31.6575	7.39092e-05
2	1	0	0	0	0	31.912	0.609509	0.608959	0.127824	1	0.00139807	11	0	31.8572	7.78397e-05
2	1	0	1	0	0	32.1118	0.610508	0.60992	0.130896	1	0.00142368	11	0	32.057	7.9836e-05
2	1	0	1	0	0	32.3115	0.611506	0.610937	0.134237	1	0.00145039	11	0	32.2567	8.20105e-05
2	1	0	0	0	0	32.5112	0.612505	0.611912	0.140749	1	0.00147788	11	0	32.4564	8.61261e-05
2	1	0	1	0	0	32.7109	0.613503	0.612937	0.143661	1	0.0015061	11	0	32.6561	8.8055e-05
2	1	0	1	0	0	32.9107	0.614502	0.613916	0.148415	1	0.00153556	11	0	32.8559	9.11145e-05
2	1	0	0	0	0	33.1104	0.615501	0.614933	0.155328	1	0.00156582	11	0	33.0556	9.55162e-05
2	1	0	1	0	0	33.3101	0.616499	0.615869	0.158087	1	0.001597	11	0	33.2553	9.73607e-05
2	1	0	1	0	0	33.5099	0.617498	0.616845	0.164086	1	0.00162951	11	0	33.4551	0.000101215
2	1	0	0	0	0	33.7096	0.618497	0.617919	0.171412	1	0.00166286	11	0	33.6548	0.000105919
2	1	0	1	0	0	33.9093	0.619495	0.6189	0.17442	1	0.00169733	11	0	33.8545	0.000107949
2	1	0	1	0	0	34.1091	0.620494	0.619893	0.181784	1	0.00173323	11	0	34.0543	0.000112686
2	1	0	0	0	0	34.3088	0.621493	0.620856	0.188946	1	0.00177007	11	0	34.254	0.000117308
2	1	0	1	0	0	34.5085	0.622491	0.62189	0.19307	1	0.00180825	11	0	34.4537	0.000120068
2	1	0	1	0	0	34.7083	0.62349	0.6229	0.20153	1	0.00184792	11	0	34.6535	0.000125533
2	1	0	0	0	0	34.908	0.624489	0.623834	0.208409	1	0.00188864	11	0	34.8532	0.000130013
2	1	0	1	0	0	35.1077	0.625487	0.624869	0.213813	1	0.00193095	11	0	35.0529	0.000133605
2	1	0	1	0	0	35.3075	0.626486	0.625901	0.223392	1	0.00197482	11	0	35.2527	0.000139821
2	1	0	0	0	0	35.5072	0.627485	0.626879	0.23023	1	0.00201988	11	0	35.4524	0.000144326
2	1	0	1	0	0	35.7069	0.628483	0.627885	0.236548	1	0.0020667	11	0	35.6521	0.000148525
2	1	0	1	0	0	35.9067	0.629482	0.628855	0.24692	1	0.00211513	11	0	35.8519	0.000155277
2	1	0	0	0	0	36.1064	0.630481	0.629863	0.254151	1	0.00216495	11	0	36.0516	0.00016008
2	1	0	1	0	0	36.3061	0.631479	0.630882	0.261875	1	0.00221673	11	0	36.2513	0.000165212
2	1	0	1	0	0	36.5059	0.632478	0.631884	0.272638	1	0.00227018	11	0	36.4511	0.000172276
2	1	0	0	0	0	36.7056	0.633477	0.632941	0.280397	1	0.00232527	11	0	36.6508	0.000177475
2	1	0	1	0	0	36.9053	0.634475	0.633879	0.28992	1	0.00238249	11	0	36.8505	0.000183774
2	1	0	1	0	0	37.1051	0.635475	0.634864	0.301405	1	0.00244153	11	0	37.0503	0.000191351
2	1	0	0	0	0	37.3048	0.636473	0.635881	0.309622	1	0.00250246	11	0	37.25	0.000196883
2	1	0	1	0	0	37.5045	0.637471	0.636878	0.320601	1	0.0025657	11	0	37.4497	0.000204184
2	1	0	1	0	0	37.7043	0.63847	0.637893	0.332622	1	0.00263087	11	0	37.6495	0.000212177
2	1	0	0	0	0	37.904	0.639469	0.638847	0.341479	1	0.00269815	11	0	37.8492	0.000218153
2	1	0	1	0	0	38.1037	0.640467	0.639887	0.35361	1	0.00276787	11	0	38.0489	0.00022627
2	1	0	1	0	0	38.3035	0.641466	0.640848	0.366078	1	0.00283964	11	0	38.2487	0.0002346
2	1	0	0	0	0	38.5032	0.642465	0.641876	0.376124	1	0.00291379	11	0	38.4484	0.000241425
2	1	0	1	0	0	38.7029	0.643463	0.642873	0.389822	1	0.00299053	11	0	38.6481	0.000250606
2	1	0	1	0	0	38.9026	0.644462	0.643898	0.402697	1	0.0030695	11	0	38.8478	0.000259296
2	1	0	0	0	0	39.1024	0.645461	0.644894	0.413764	1	0.00315121	11	0	39.0476	0.000266834
2	1	0	1	0	0	39.3021	0.646459	0.645889	0.428955	1	0.00323558	11	0	39.2473	0.000277057
2	1	0	1	0	0	39.5018	0.647458	0.646885	0.441977	1	0.00332234	11	0	39.447	0.000285908
2	1	0	0	0	0	39.7016	0.648457	0.647861	0.454246	1	0.0034121	11	0	39.6468	0.000294288
2	1	0	1	0	0	39.9013	0.649455	0.64885	0.470774	1	0.00350465	11	0	39.8465	0.000305462
2	1	0	1	0	0	40.101	0.650454	0.649853	0.484355	1	0.00359983	11	0	40.0462	0.000314759
2	1	0	0	0	0	40.3008	0.651453	0.650866	0.498506	1	0.00369831	11	0	40.246	0.000324461
2	1	0	1	0	0	40.5005	0.652451	0.651853	0.515781	1	0.00379966	11	0	40.4457	0.000336214
2	1	0	1	0	0	40.7002	0.65345	0.65287	0.529667	1	0.00390393	11	0	40.6454	0.000345804
2	1	0	1	0	0	40.8999	0.654448	0.653847	0.545554	1	0.00401164	11	0	40.8451	0.000356709
2	1	0	1	0	0	41.0997	0.655447	0.654817	0.563619	1	0.00412243	11	0	41.0449	0.000369067
2	1	0	1	0	0	41.2994	0.656446	0.655841	0.577957	1	0.00423637	11	0	41.2446	0.000379048
2	1	0	1	0	0	41.4991	0.657444	0.656856	0.595801	1	0.00435395	11	0	41.4443	0.000391356
2	1	0	1	0	0	41.6989	0.658443	0.657844	0.614639	1	0.00447476	11	0	41.6441	0.000404336
2	1	0	1	0	0	41.8986	0.659442	0.658848	0.629932	1	0.00459906	11	0	41.8438	0.00041503
2	1	0	1	0	0	42.0983	0.66044	0.659796	0.649335	1	0.00472715	11	0	42.0435	0.000428428
2	1	0	1	0	0	42.2981	0.661439	0.660849	0.668313	1	0.00485864	11	0	42.2433	0.000441654
2	1	0	1	0	0	42.4978	0.662438	0.661836	0.684786	1	0.00499387	11	0	42.443	0.000453216
2	1	0	1	0	0	42.6975	0.663436	0.662842	0.705386	1	0.00513296	11	0	42.6427	0.000467559
2	1	0	1	0	0	42.8973	0.664435	0.663831	0.724244	1	0.00527562	11	0	42.8425	0.000480776
2	1	0	1	0	0	43.097	0.665434	0.664825	0.742146	1	0.00542228	11	0	43.0422	0.000493397
2	1	0	1	0	0	43.2967	0.666432	0.665849	0.764413	1	0.00557291	11	0	43.2419	0.000508984
2	1	0	1	0	0	43.4965	0.667431	0.666862	0.783405	1	0.00572737	11	0	43.4417	0.000522423
2	1	0	1	0	0	43.6962	0.66843	0.667843	0.802812	1	0.00588607	11	0	43.6414	0.000536153
2	1	0	1	0	0	43.8959	0.669428	0.668885	0.825864	1	0.00604884	11	0	43.8411	0.000552408
2	1	0	1	0	0	44.0957	0.670427	0.669863	0.845269	1	0.00621567	11	0	44.0409	0.000566214
2	1	0	1	0	0	44.2954	0.671426	0.670848	0.866494	1	0.00638694	11	0	44.2406	0.000581286
2	1	0	1	0	0	44.4951	0.672424	0.671834	0.890052	1	0.00656239	11	0	44.4403	0.000597967
2	1	0	1	0	0	44.6949	0.673423	0.672825	0.91057	1	0.00674225	11	0	44.6401	0.000612654
2	1	0	1	0	0	44.8946	0.674422	0.673807	0.933658	1	0.00692675	11	0	44.8398	0.000629105
2	1	0	1	0	0	45.0943	0.67542	0.674833	0.957909	1	0.00711559	11	0	45.0395	0.000646429
2	1	0	1	0	0	45.2941	0.676419	0.67582	0.979506	1	0.00730917	11	0	45.2393	0.00066197
2	1	0	1	0	0	45.4938	0.677418	0.676796	1.0065	1	0.00750784	11	0	45.439	0.000681193
2	1	0	1	0	0	45.6935	0.678416	0.677806	1.0338	1	0.00771151	11	0	45.6387	0.000700716
2	1	0	1	0	0	45.8933	0.679415	0.678824	1.05758	1	0.00792057	11	0	45.8385	0.000717909
2	1	0	1	0	0	46.093	0.680414	0.67983	1.08393	1	0.00813474	11	0	46.0382	0.000736886
2	1	0	1	0	0	46.2927	0.681412	0.680831	1.10948	1	0.00835367	11	0	46.2379	0.000755371
2	1	0	0	0	0	46.4924	0.682411	0.681806	1.13322	1	0.0085778	11	0	46.4376	0.000772637
2	1	0	1	0	0	46.6922	0.68341	0.682789	1.16034	1	0.0088072	11	0	46.6374	0.000792267
2	1	0	1	0	0	46.8919	0.684408	0.683831	1.1856	1	0.00904133	11	0	46.8371	0.00081075
2	1	0	0	0	0	47.0916	0.685407	0.68482	1.21051	1	0.00928087	11	0	47.0368	0.00082898
2	1	0	1	0	0	47.2913	0.686405	0.685827	1.23958	1	0.00952572	11	0	47.2365	0.000850136
2	1	0	1	0	0	47.4911	0.687404	0.686807	1.26609	1	0.00977593	11	0	47.4363	0.000869563
2	1	0	0	0	0	47.6908	0.688403	0.687807	1.29246	1	0.0100318	11	0	47.636	0.000888965
2	1	0	1	0	0	47.8906	0.689402	0.688796	1.32149	1	0.0102931	11	0	47.8358	0.000910235
2	1	0	1	0	0	48.0903	0.6904	0.689861	1.34681	1	0.0105594	11	0	48.0355	0.000929112
2	1	0	0	0	0	48.29	0.691399	0.690824	1.37396	1	0.0108314	11	0	48.2352	0.000949167
2	1	0	1	0	0	48.4897	0.692397	0.69181	1.40394	1	0.0111089	11	0	48.4349	0.000971257
2	1	0	1	0	0	48.6895	0.693396	0.692826	1.431	1	0.0113921	11	0	48.6347	0.000991436
2	1	0	0	0	0	48.8892	0.694395	0.693822	1.46111	1	0.0116813	11	0	48.8344	0.00101375
2	1	0	1	0	0	49.0889	0.695393	0.694765	1.49133	1	0.011976	11	0	49.0341	0.00103612
2	1	0	1	0	0	49.2887	0.696392	0.695781	1.5175	1	0.0122767	11	0	49.2339	0.00105585
2	1	0	0	0	0	49.4884	0.697391	0.696833	1.54782	1	0.0125832	11	0	49.4336	0.00107857
2	1	0	1	0	0	49.6881	0.698389	0.69779	1.57734	1	0.0128952	11	0	49.6333	0.00110065
2	1	0	1	0	0	49.8879	0.699388	0.698809	1.60444	1	0.0132132	11	0	49.8331	0.0011212
2	1	0	1	0	0	50.0052	0.700013	0.699447	1.61945	1	0.0134025	11	0	49.9504	0.00113272
2	1	0	1	0	0	50.0702	0.699688	0.699072	1.60823	1	0.0135072	11	0	50.0154	0.00112427
2	1	0	1	0	0	50.2699	0.698689	0.69808	1.57088	1	0.0138243	11	0	50.2151	0.0010966
2	1	0	1	0	0	50.4697	0.69769	0.6971	1.53864	1	0.014135	11	0	50.4149	0.00107259
2	1	0	1	0	0	50.6694	0.696692	0.696082	1.50658	1	0.0144387	11	0	50.6146	0.0010487
2	1	0	1	0	0	50.8691	0.695693	0.695095	1.47188	1	0.0147359	11	0	50.8143	0.0010231
2	1	0	1	0	0	51.0689	0.694694	0.694081	1.44088	1	0.0150269	11	0	51.0141	0.00100009
2	1	0	1	0	0	51.2686	0.693696	0.693086	1.40943	1	0.0153111	11	0	51.2138	0.000976858
2	1	0	1	0	0	51.4683	0.692697	0.6921	1.3758	1	0.0155891	11	0	51.4135	0.00095219
2	1	0	0	0	0	51.668	0.691699	0.691134	1.34634	1	0.0158609	11	0	51.6132	0.000930499
2	1	0	1	0	0	51.8678	0.6907	0.690135	1.31469	1	0.0161263	11	0	51.813	0.000907316
2	1	0	1	0	0	52.0675	0.689701	0.689092	1.28272	1	0.0163857	11	0	52.0127	0.000883911
2	1	0	0	0	0	52.2672	0.688703	0.688132	1.25498	1	0.016639	11	0	52.2124	0.000863594
2	1	0	1	0	0	52.467	0.687704	0.687107	1.22497	1	0.0168863	11	0	52.4122	0.000841684
2	1	0	1	0	0	52.6667	0.686705	0.686106	1.19676	1	0.0171282	11	0	52.6119	0.000821107
2	1	0	0	0	0	52.8664	0.685707	0.685112	1.17161	1	0.0173645	11	0	52.8116	0.000802682
2	1	0	1	0	0	53.0662	0.684708	0.684148	1.14229	1	0.0175953	11	0	53.0114	0.000781499
2	1	0	1	0	0	53.2659	0.683709	0.683085	1.11469	1	0.0178208	11	0	53.2111	0.000761427
2	1	0	0	0	0	53.4656	0.682711	0.682093	1.08975	1	0.0180406	11	0	53.4108	0.000743309
2	1	0	1	0	0	53.6653	0.681712	0.68114	1.06097	1	0.0182551	11	0	53.6105	0.00072267
2	1	0	1	0	0	53.8651	0.680713	0.680147	1.03577	1	0.0184647	11	0	53.8103	0.000704475
2	1	0	0	0	0	54.0648	0.679715	0.679129	1.0121	1	0.0186689	11	0	54.01	0.000687346
2	1	0	1	0	0	54.2645	0.678716	0.678139	0.984923	1	0.0188681	11	0	54.2097	0.000667914
2	1	0	1	0	0	54.4643	0.677717	0.677109	0.961626	1	0.0190626	11	0	54.4095	0.000651126
2	1	0	0	0	0	54.664	0.676719	0.676133	0.937479	1	0.0192519	11	0	54.6092	0.000633861
2	1	0	1	0	0	54.8637	0.67572	0.67513	0.911393	1	0.0194364	11	0	54.8089	0.000615308
2	1	0	1	0	0	55.0635	0.674721	0.674158	0.89029	1	0.0196165	11	0	55.0087	0.000600196
2	1	0	0	0	0	55.2632	0.673723	0.673105	0.866732	1	0.0197915	11	0	55.2084	0.000583401
2	1	0	1	0	0	55.4629	0.672725	0.672112	0.842281	1	0.0199622	11	0	55.4081	0.000566107
2	1	0	1	0	0	55.6627	0.671725	0.671134	0.821124	1	0.0201283	11	0	55.6079	0.000551085
2	1	0	0	0	0	55.8624	0.670727	0.670108	0.797685	1	0.0202896	11	0	55.8076	0.000534535
2	1	0	1	0	0	56.0621	0.669728	0.66911	0.774726	1	0.0204467	11	0	56.0073	0.000518377
2	1	0	1	0	0	56.2619	0.668729	0.668143	0.755459	1	0.0205994	11	0	56.2071	0.000504754
2	1	0	0	0	0	56.4616	0.667731	0.667132	0.732942	1	0.0207477	11	0	56.4068	0.000488969
2	1	0	1	0	0	56.6613	0.666732	0.666093	0.712055	1	0.0208921	11	0	56.6065	0.000474295
2	1	0	1	0	0	56.8611	0.665733	0.665162	0.69389	1	0.0210324	11	0	56.8063	0.00046155
2	1	0	0	0	0	57.0608	0.664735	0.664113	0.672299	1	0.0211686	11	0	57.006	0.000446483
2	1	0	1	0	0	57.2605	0.663736	0.663124	0.653135	1	0.0213011	11	0	57.2057	0.000433109
2	1	0	1	0	0	57.4603	0.662737	0.662125	0.635936	1	0.0214296	11	0	57.4055	0.000421069
2	1	0	0	0	0	57.66	0.661739	0.661124	0.615721	1	0.0215544	11	0	57.6052	0.000407068
2	1	0	1	0	0	57.8597	0.66074	0.660111	0.598107	1	0.0216757	11	0	57.8049	0.000394818
2	1	0	1	0	0	58.0595	0.659741	0.659156	0.581077	1	0.0217932	11	0	58.0047	0.00038302
2	1	0	0	0	0	58.2592	0.658743	0.65813	0.561748	1	0.0219072	11	0	58.2044	0.000369704
2	1	0	1	0	0	58.4589	0.657744	0.657165	0.545972	1	0.0220179	11	0	58.4041	0.000358793
2	1	0	1	0	0	58.6587	0.656745	0.656178	0.52981	1	0.0221251	11	0	58.6039	0.00034765
2	1	0	0	0	0	58.8584	0.655747	0.655131	0.511152	1	0.022229	11	0	58.8036	0.000334871
2	1	0	1	0	0	59.0581	0.654748	0.654143	0.496065	1	0.0223297	11	0	59.0033	0.000324497
2	1	0	1	0	0	59.2579	0.653749	0.653176	0.480175	1	0.0224268	11	0	59.2031	0.000313639
2	1	0	0	0	0	59.4576	0.652751	0.652149	0.462979	1	0.022521	11	0	59.4028	0.000301931
2	1	0	1	0	0	59.6573	0.651752	0.651154	0.449473	1	0.0226122	11	0	59.6025	0.000292676
2	1	0	1	0	0	59.857	0.650754	0.650157	0.433918	1	0.0227	11	0	59.8022	0.000282115
2	1	0	0	0	0	60.0568	0.649755	0.649163	0.418234	1	0.0227852	11	0	60.002	0.000271502
2	1	0	1	0	0	60.2565	0.648756	0.648205	0.406379	1	0.0228676	11	0	60.2017	0.000263417
2	1	0	1	0	0	60.4562	0.647758	0.647147	0.391564	1	0.0229469	11	0	60.4014	0.0002534
2	1	0	0	0	0	60.656	0.646759	0.646169	0.378004	1	0.023024	11	0	60.6012	0.000244255
2	1	0	1	0	0	60.8557	0.64576	0.645146	0.367257	1	0.0230983	11	0	60.8009	0.000236934
2	1	0	1	0	0	61.0554	0.644762	0.644145	0.352559	1	0.0231698	11	0	61.0006	0.000227099
2	1	0	0	0	0	61.2552	0.643763	0.643167	0.340173	1	0.0232392	11	0	61.2004	0.000218788
2	1	0	1	0	0	61.4549	0.642764	0.642155	0.330038	1	0.023306	11	0	61.4001	0.000211936
2	1	0	1	0	0	61.6546	0.641766	0.641164	0.316055	1	0.0233703	11	0	61.5998	0.000202643
2	1	0	1	0	0	61.8543	0.640767	0.640185	0.305277	1	0.0234325	11	0	61.7995	0.000195434
2	1	0	1	0	0	62.0541	0.639768	0.639179	0.295253	1	0.0234923	11	0	61.9993	0.000188719
2	1	0	1	0	0	62.2538	0.63877	0.63816	0.282203	1	0.0235498	11	0	62.199	0.000180091
2	1	0	1	0	0	62.4535	0.637771	0.637128	0.273145	1	0.0236055	11	0	62.3987	0.000174028
2	1	0	1	0	0	62.6533	0.636772	0.636158	0.263272	1	0.0236587	11	0	62.5985	0.000167483
2	1	0	1	0	0	62.853	0.635774	0.635132	0.250999	1	0.0237101	11	0	62.7982	0.000159417
2	1	0	1	0	0	63.0527	0.634775	0.634177	0.243743	1	0.0237596	11	0	62.9979	0.000154576
2	1	0	1	0	0	63.2525	0.633776	0.633177	0.234157	1	0.023807	11	0	63.1977	0.000148263
2	1	0	1	0	0	63.4522	0.632778	0.632142	0.223133	1	0.0238528	11	0	63.3974	0.000141052
2	1	0	1	0	0	63.6519	0.631779	0.631164	0.21661	1	0.0238967	11	0	63.5971	0.000136717
2	1	0	1	0	0	63.8517	0.63078	0.630176	0.206728	1	0.0239387	11	0	63.7969	0.000130275
2	1	0	1	0	0	64.0514	0.629782	0.629192	0.19772	1	0.0239793	11	0	63.9966	0.000124404
2	1	0	1	0	0	64.2511	0.628783	0.628153	0.191537	1	0.024018	11	0	64.1963	0.000120314
2	1	0	1	0	0	64.4509	0.627784	0.627175	0.181664	1	0.0240551	11	0	64.3961	0.000113935
2	1	0	1	0	0	64.6506	0.626786	0.626165	0.174269	1	0.0240908	11	0	64.5958	0.000109121
2	1	0	1	0	0	64.8503	0.625787	0.625197	0.1687	1	0.0241249	11	0	64.7955	0.000105471
2	1	0	1	0	0	65.0501	0.624788	0.624133	0.159378	1	0.0241575	11	0	64.9953	9.94731e-05
2	1	0	1	0	0	65.2498	0.62379	0.623153	0.153175	1	0.0241889	11	0	65.195	9.54514e-05
2	1	0	1	0	0	65.4495	0.622791	0.622192	0.147876	1	0.0242188	11	0	65.3947	9.20073e-05
2	1	0	1	0	0	65.6493	0.621792	0.62117	0.139594	1	0.0242474	11	0	65.5945	8.67119e-05
2	1	0	1	0	0	65.849	0.620794	0.620158	0.134429	1	0.0242749	11	0	65.7942	8.33675e-05
2	1	0	1	0	0	66.0487	0.619795	0.619136	0.129157	1	0.024301	11	0	65.9939	7.99656e-05
2	1	0	1	0	0	66.2485	0.618796	0.618192	0.12171	1	0.0243261	11	0	66.1937	7.52401e-05
2	1	0	1	0	0	66.4482	0.617798	0.617189	0.117898	1	0.0243501	11	0	66.3934	7.27657e-05
2	1	0	1	0	0	66.6479	0.616799	0.616142	0.112705	1	0.0243729	11	0	66.5931	6.94425e-05
2	1	0	1	0	0	66.8477	0.6158	0.615169	0.105561	1	0.0243947	11	0	66.7929	6.49379e-05
2	1	0	1	0	0	67.0474	0.614802	0.614215	0.10244	1	0.0244156	11	0	66.9926	6.292e-05
2	1	0	1	0	0	67.2471	0.613803	0.613214	0.0972159	1	0.0244353	11	0	67.1923	5.96141e-05
2	1	0	1	0	0	67.4469	0.612804	0.612231	0.0910401	1	0.0244542	11	0	67.3921	5.57375e-05
2	1	0	1	0	0	67.6466	0.611806	0.611234	0.088559	1	0.0244721	11	0	67.5918	5.41303e-05
2	1	0	1	0	0	67.8463	0.610807	0.610161	0.083329	1	0.024489	11	0	67.7915	5.08441e-05
2	1	0	0	0	0	68.046	0.609809	0.609187	0.078278	1	0.0245054	11	0	67.9912	4.7686e-05
2	1	0	1	0	0	68.2458	0.60881	0.608192	0.0763558	1	0.0245208	11	0	68.191	4.6439e-05
2	1	0	1	0	0	68.4455	0.607811	0.607218	0.0708843	1	0.0245352	11	0	68.3907	4.30422e-05
2	1	0	0	0	0	68.6452	0.606813	0.606211	0.0671333	1	0.0245492	11	0	68.5904	4.06969e-05
2	1	0	1	0	0	68.845	0.605814	0.60525	0.0656115	1	0.0245624	11	0	68.7902	3.97114e-05
2	1	0	1	0	0	69.0447	0.604815	0.604188	0.0597514	1	0.0245747	11	0	68.9899	3.61011e-05
2	1	0	0	0	0	69.2444	0.603817	0.603231	0.0571637	1	0.0245867	11	0	69.1896	3.44829e-05
2	1	0	1	0	0	69.4442	0.602818	0.602188	0.0551769	1	0.0245977	11	0	69.3894	3.32269e-05
2	1	0	1	0	0	69.6439	0.601819	0.601215	0.0499214	1	0.0246081	11	0	69.5891	3.00135e-05
2	1	0	0	0	0	69.8436	0.600821	0.60024	0.0484858	1	0.0246181	11	0	69.7888	2.91031e-05
2	1	0	1	0	0	70.0433	0.599822	0.599201	0.0458261	1	0.0246273	11	0	69.9885	2.7459e-05
2	1	0	1	0	0	70.2431	0.598823	0.59819	0.0410302	1	0.024636	11	0	70.1883	2.45439e-05
2	1	0	0	0	0	70.4428	0.597825	0.597201	0.0407349	1	0.0246443	11	0	70.388	2.4327e-05
2	1	0	1	0	0	70.6425	0.596826	0.596213	0.0376978	1	0.0246518	11	0	70.5877	2.24759e-05
2	1	0	1	0	0	70.8423	0.595827	0.595254	0.0334539	1	0.0246591	11	0	70.7875	1.99136e-05
2	1	0	0	0	0	71.042	0.594829	0.594212	0.0336026	1	0.0246658	11	0	70.9872	1.99671e-05
2	1	0	1	0	0	71.2417	0.59383	0.593167	0.030275	1	0.0246719	11	0	71.1869	1.79581e-05
2	1	0	1	0	0	71.4415	0.592831	0.592232	0.027028	1	0.0246778	11	0	71.3867	1.60069e-05
2	1	0	0	0	0	71.6412	0.591833	0.591215	0.0271125	1	0.0246833	11	0	71.5864	1.60293e-05
2	1	0	1	0	0	71.8409	0.590834	0.590203	0.0234772	1	0.0246881	11	0	71.7861	1.38563e-05
2	1	0	1	0	0	72.0407	0.589835	0.589231	0.0213967	1	0.0246928	11	0	71.9859	1.26076e-05
2	1	0	0	0	0	72.2404	0.588837	0.588213	0.0213812	1	0.0246969	11	0	72.1856	1.25767e-05
2	1	0	1	0	0	72.4401	0.587838	0.587223	0.0175188	1	0.0247006	11	0	72.3853	1.02874e-05
2	1	0	1	0	0	72.6399	0.586839	0.586212	0.0163055	1	0.0247043	11	0	72.5851	9.5585e-06
2	1	0	0	0	0	72.8396	0.585841	0.58522	0.016297	1	0.0247074	11	0	72.7848	9.53733e-06
2	1	0	1	0	0	73.0393	0.584842	0.584243	0.0124197	1	0.0247101	11	0	72.9845	7.25615e-06
2	1	0	1	0	0	73.2391	0.583843	0.583238	0.0118352	1	0.0247128	11	0	73.1843	6.90275e-06
2	1	0	0	0	0	73.4388	0.582845	0.582244	0.0116277	1	0.0247149	11	0	73.384	6.77017e-06
2	1	0	1	0	0	73.6385	0.581846	0.581224	0.00822401	1	0.0247168	11	0	73.5837	4.77999e-06
2	1	0	1	0	0	73.8383	0.580847	0.580213	0.00817444	1	0.0247187	11	0	73.7835	4.74292e-06
2	1	0	0	0	0	74.038	0.579849	0.57921	0.00724009	1	0.02472	11	0	73.9832	4.19353e-06
2	0	0	1	0	0	74.2377	0.57885	0.578207	0.00415834	1	0.0247212	11	0	74.1829	2.40438e-06
2	1	0	1	0	0	74.4375	0.577851	0.577226	0.0046944	1	0.0247222	11	0	74.3827	2.70973e-06
2	1	0	0	0	0	74.6372	0.576853	0.57624	0.00344706	1	0.0247227	11	0	74.5824	1.98634e-06
2	0	0	1	0	0	74.8369	0.575854	0.575226	0.000599875	1	0.0247232	11	0	74.7821	3.45064e-07
2	1	0	1	0	0	75.0367	0.574855	0.574264	0.00148149	1	0.0247236	11	0	74.9819	8.50765e-07
2	1	0	0	0	0	75.2364	0.573857	0.573218	3.92563e-05	1	0.0247234	11	0	0.0999	2.25024e-08
2	0	0	1	0	0	75.4361	0.572858	0.572248	-0.00232398	1	0.0247233	11	0	0.000000000000000E+000	-1.32989e-06
2	1	0	1	0	0	75.6359	0.571859	0.57121	-0.00131637	1	0.0247231	11	0	0.1998	-7.51922e-07
2	0	0	0	0	0	75.8356	0.570861	0.570242	-0.00304009	1	0.0247224	11	0	0.3995	-1.73359e-06
2	0	0	1	0	0	76.0353	0.569862	0.569272	-0.00478155	1	0.0247218	11	0	0.5992	-2.722e-06
2	1	0	1	0	0	76.235	0.568864	0.56821	-0.00361345	1	0.0247209	11	0	0.7989	-2.0532e-06
2	0	0	0	0	0	76.4348	0.567865	0.567289	-0.00583589	1	0.0247197	11	0	0.9987	-3.31064e-06
2	0	0	1	0	0	76.6345	0.566866	0.566288	-0.00703915	1	0.0247187	11	0	1.1984	-3.98618e-06
2	1	0	1	0	0	76.8342	0.565868	0.565243	-0.00559208	1	0.0247173	11	0	1.3981	-3.16089e-06
2	0	0	0	0	0	77.034	0.564869	0.564268	-0.00839901	1	0.0247157	11	0	1.5979	-4.73929e-06
2	0	0	1	0	0	77.2337	0.56387	0.563225	-0.00875947	1	0.0247143	11	0	1.7976	-4.93356e-06
2	1	0	1	0	0	77.4334	0.562872	0.562263	-0.00769764	1	0.0247125	11	0	1.9973	-4.3281e-06
2	0	0	0	0	0	77.6332	0.561873	0.561256	-0.0106441	1	0.0247105	11	0	2.1971	-5.97409e-06
2	0	0	1	0	0	77.8329	0.560874	0.560277	-0.0101384	1	0.0247087	11	0	2.3968	-5.68031e-06
2	0	0	1	0	0	78.0326	0.559876	0.559277	-0.00974858	1	0.0247065	11	0	2.5965	-5.45216e-06
2	0	0	1	0	0	78.2323	0.558877	0.558228	-0.0125089	1	0.0247043	11	0	2.7962	-6.98282e-06
2	0	0	1	0	0	78.4321	0.557878	0.557254	-0.0112836	1	0.0247021	11	0	2.996	-6.28782e-06
2	0	0	1	0	0	78.6318	0.55688	0.556238	-0.0114658	1	0.0246995	11	0	3.1957	-6.37769e-06
2	0	0	1	0	0	78.8315	0.555881	0.555256	-0.0142783	1	0.024697	11	0	3.3954	-7.92813e-06
2	0	0	1	0	0	79.0313	0.554882	0.554308	-0.0122501	1	0.0246945	11	0	3.5952	-6.79033e-06
2	0	0	1	0	0	79.231	0.553884	0.553286	-0.0133442	1	0.0246917	11	0	3.7949	-7.38313e-06
2	0	0	1	0	0	79.4307	0.552885	0.552247	-0.0153285	1	0.024689	11	0	3.9946	-8.46514e-06
2	0	0	1	0	0	79.6305	0.551886	0.551306	-0.0134175	1	0.0246862	11	0	4.1944	-7.39712e-06
2	0	0	1	0	0	79.8302	0.550888	0.550264	-0.0151577	1	0.0246831	11	0	4.3941	-8.34073e-06
2	0	0	1	0	0	80.0299	0.549889	0.549294	-0.0161124	1	0.0246802	11	0	4.5938	-8.85044e-06
2	0	0	1	0	0	80.2297	0.54889	0.548267	-0.0145462	1	0.0246771	11	0	4.7936	-7.97523e-06
2	0	0	1	0	0	80.4294	0.547892	0.547253	-0.016806	1	0.0246737	11	0	4.9933	-9.19715e-06
2	0	0	1	0	0	80.6291	0.546893	0.546251	-0.0170357	1	0.0246706	11	0	5.193	-9.30577e-06
2	0	0	1	0	0	80.8289	0.545894	0.545245	-0.0155037	1	0.0246672	11	0	5.3928	-8.4533e-06
2	0	0	1	0	0	81.0286	0.544896	0.544289	-0.0178028	1	0.0246637	11	0	5.5925	-9.68987e-06
2	0	0	1	0	0	81.2283	0.543897	0.543277	-0.0178129	1	0.0246604	11	0	5.7922	-9.67735e-06
2	0	0	1	0	0	81.4281	0.542898	0.542273	-0.0165731	1	0.0246569	11	0	5.992	-8.98712e-06
2	0	0	1	0	0	81.6278	0.5419	0.541292	-0.0186941	1	0.0246532	11	0	6.1917	-1.0119e-05
2	0	0	1	0	0	81.8275	0.540901	0.540279	-0.0182603	1	0.0246498	11	0	6.3914	-9.86568e-06
2	0	0	1	0	0	82.0273	0.539902	0.53927	-0.0176403	1	0.024646	11	0	6.5912	-9.51288e-06
2	0	0	1	0	0	82.227	0.538904	0.538245	-0.0198239	1	0.0246422	11	0	6.7909	-1.06701e-05
2	0	0	1	0	0	82.4267	0.537905	0.537302	-0.0186222	1	0.0246386	11	0	6.9906	-1.00057e-05
2	0	0	1	0	0	82.6265	0.536906	0.536304	-0.0184493	1	0.0246347	11	0	7.1904	-9.89446e-06
2	0	0	1	0	0	82.8262	0.535908	0.535291	-0.0206122	1	0.0246308	11	0	7.3901	-1.10335e-05
2	0	0	1	0	0	83.0259	0.534909	0.534301	-0.0192451	1	0.024627	11	0	7.5898	-1.02827e-05
2	0	0	1	0	0	83.2257	0.53391	0.533312	-0.0191307	1	0.0246229	11	0	7.7896	-1.02027e-05
2	0	0	1	0	0	83.4254	0.532912	0.532288	-0.0213704	1	0.0246189	11	0	7.9893	-1.13752e-05
2	0	0	1	0	0	83.6251	0.531913	0.531295	-0.0197624	1	0.024615	11	0	8.189	-1.04997e-05
2	0	0	1	0	0	83.8249	0.530914	0.530305	-0.0202048	1	0.0246107	11	0	8.3888	-1.07147e-05
2	0	0	1	0	0	84.0246	0.529916	0.529323	-0.0219297	1	0.0246066	11	0	8.5885	-1.16079e-05
2	0	0	1	0	0	84.2243	0.528917	0.528304	-0.0198961	1	0.0246025	11	0	8.7882	-1.05112e-05
2	0	0	0	0	0	84.424	0.527919	0.527315	-0.0211326	1	0.0245982	11	0	8.9879	-1.11435e-05
2	0	0	1	0	0	84.6238	0.52692	0.526303	-0.0223936	1	0.024594	11	0	9.1877	-1.17858e-05
2	0	0	1	0	0	84.8235	0.525921	0.525318	-0.0201485	1	0.0245898	11	0	9.3874	-1.05844e-05
2	0	0	0	0	0	85.0232	0.524923	0.524295	-0.0219844	1	0.0245853	11	0	9.5871	-1.15263e-05
2	0	0	1	0	0	85.2229	0.523924	0.523333	-0.0227756	1	0.0245811	11	0	9.7868	-1.19192e-05
2	0	0	1	0	0	85.4227	0.522925	0.522323	-0.0207252	1	0.0245767	11	0	9.9866	-1.08252e-05
2	0	0	0	0	0	85.6224	0.521927	0.521352	-0.0227778	1	0.0245721	11	0	10.1863	-1.18753e-05
2	0	0	1	0	0	85.8222	0.520928	0.520302	-0.0227109	1	0.0245679	11	0	10.3861	-1.18165e-05
2	0	0	1	0	0	86.0219	0.519929	0.519303	-0.0211126	1	0.0245633	11	0	10.5858	-1.09638e-05
2	0	0	0	0	0	86.2216	0.518931	0.518306	-0.0235551	1	0.0245588	11	0	10.7855	-1.22088e-05
2	0	0	1	0	0	86.4213	0.517932	0.517297	-0.0225591	1	0.0245544	11	0	10.9852	-1.16698e-05
2	0	0	1	0	0	86.6211	0.516933	0.516315	-0.021531	1	0.0245498	11	0	11.185	-1.11168e-05
2	0	0	0	0	0	86.8208	0.515935	0.515316	-0.0242267	1	0.0245452	11	0	11.3847	-1.24844e-05
2	0	0	1	0	0	87.0205	0.514936	0.514308	-0.0227169	1	0.0245407	11	0	11.5844	-1.16835e-05
2	0	0	1	0	0	87.2203	0.513937	0.513283	-0.022221	1	0.024536	11	0	11.7842	-1.14056e-05
2	0	0	0	0	0	87.42	0.512939	0.512299	-0.0246197	1	0.0245313	11	0	11.9839	-1.26127e-05
2	0	0	1	0	0	87.6197	0.51194	0.511288	-0.0229105	1	0.0245268	11	0	12.1836	-1.17139e-05
2	0	0	1	0	0	87.8195	0.510941	0.510315	-0.0228846	1	0.0245219	11	0	12.3834	-1.16783e-05
2	0	0	0	0	0	88.0192	0.509943	0.509307	-0.024755	1	0.0245172	11	0	12.5831	-1.26079e-05
2	0	0	1	0	0	88.2189	0.508944	0.508306	-0.0229736	1	0.0245126	11	0	12.7828	-1.16776e-05
2	0	0	1	0	0	88.4187	0.507945	0.507301	-0.0236718	1	0.0245077	11	0	12.9826	-1.20088e-05
2	0	0	0	0	0	88.6184	0.506947	0.506298	-0.0250534	1	0.0245029	11	0	13.1823	-1.26845e-05
2	0	0	1	0	0	88.8181	0.505948	0.505316	-0.0229858	1	0.0244982	11	0	13.382	-1.16151e-05
2	0	0	1	0	0	89.0179	0.504949	0.504302	-0.0241339	1	0.0244933	11	0	13.5818	-1.21708e-05
2	0	0	0	0	0	89.2176	0.503951	0.503311	-0.0250879	1	0.0244885	11	0	13.7815	-1.2627e-05
2	0	0	1	0	0	89.4173	0.502952	0.502327	-0.023155	1	0.0244837	11	0	13.9812	-1.16314e-05
2	0	0	1	0	0	89.6171	0.501953	0.501329	-0.0245489	1	0.0244787	11	0	14.181	-1.2307e-05
2	0	0	0	0	0	89.8168	0.500955	0.5003	-0.0252891	1	0.0244739	11	0	14.3807	-1.26521e-05
2	0	0	1	0	0	90.0165	0.499956	0.499351	-0.023527	1	0.024469	11	0	14.5804	-1.17482e-05
2	0	0	1	0	0	90.2163	0.498957	0.498352	-0.025282	1	0.0244639	11	0	14.7802	-1.25994e-05
2	0	0	0	0	0	90.416	0.497959	0.497357	-0.0252764	1	0.0244591	11	0	14.9799	-1.25714e-05
2	0	0	1	0	0	90.6157	0.49696	0.496353	-0.0237716	1	0.0244541	11	0	15.1796	-1.17991e-05
2	0	0	1	0	0	90.8155	0.495961	0.495291	-0.0259181	1	0.024449	11	0	15.3794	-1.2837e-05
2	0	0	0	0	0	91.0152	0.494963	0.494304	-0.025441	1	0.0244441	11	0	15.5791	-1.25756e-05
2	0	0	1	0	0	91.2149	0.493964	0.493346	-0.0238873	1	0.024439	11	0	15.7788	-1.17847e-05
2	0	0	1	0	0	91.4147	0.492965	0.492341	-0.0264678	1	0.0244339	11	0	15.9786	-1.30312e-05
2	0	0	0	0	0	91.6144	0.491967	0.491321	-0.0254607	1	0.024429	11	0	16.1783	-1.25094e-05
2	0	0	1	0	0	91.8141	0.490968	0.490374	-0.0243784	1	0.0244238	11	0	16.378	-1.19545e-05
2	0	0	1	0	0	92.0138	0.48997	0.489335	-0.0268091	1	0.0244186	11	0	16.5777	-1.31187e-05
2	0	0	0	0	0	92.2136	0.488971	0.48836	-0.025227	1	0.0244137	11	0	16.7775	-1.23199e-05
2	0	0	1	0	0	92.4133	0.487972	0.487306	-0.0250579	1	0.0244084	11	0	16.9772	-1.22109e-05
2	0	0	1	0	0	92.613	0.486974	0.486328	-0.0272926	1	0.0244032	11	0	17.1769	-1.32731e-05
2	0	0	0	0	0	92.8128	0.485975	0.485294	-0.0249954	1	0.0243982	11	0	17.3767	-1.21302e-05
2	0	0	1	0	0	93.0125	0.484976	0.484352	-0.0255581	1	0.0243928	11	0	17.5764	-1.23791e-05
2	0	0	1	0	0	93.2122	0.483978	0.483349	-0.0275961	1	0.0243876	11	0	17.7761	-1.33386e-05
2	0	0	1	0	0	93.4119	0.482979	0.482367	-0.0251333	1	0.0243825	11	0	17.9758	-1.21235e-05
2	0	0	1	0	0	93.6117	0.48198	0.481369	-0.0262049	1	0.0243771	11	0	18.1756	-1.26142e-05
2	0	0	1	0	0	93.8114	0.480982	0.480355	-0.0275179	1	0.0243719	11	0	18.3753	-1.32184e-05
2	0	0	1	0	0	94.0111	0.479983	0.479331	-0.0252947	1	0.0243667	11	0	18.575	-1.21245e-05
2	0	0	1	0	0	94.2109	0.478984	0.478326	-0.027053	1	0.0243612	11	0	18.7748	-1.29402e-05
2	0	0	1	0	0	94.4106	0.477986	0.477375	-0.0273177	1	0.024356	11	0	18.9745	-1.30408e-05
2	0	0	1	0	0	94.6103	0.476987	0.476299	-0.0255431	1	0.0243506	11	0	19.1742	-1.21661e-05
2	0	0	1	0	0	94.8101	0.475988	0.475332	-0.0277426	1	0.0243451	11	0	19.374	-1.31869e-05
2	0	0	1	0	0	95.0098	0.47499	0.474357	-0.0274681	1	0.0243399	11	0	19.5737	-1.30297e-05
2	0	0	1	0	0	95.2095	0.473991	0.47331	-0.0257211	1	0.0243344	11	0	19.7734	-1.21741e-05
2	0	0	1	0	0	95.4093	0.472992	0.472355	-0.0281061	1	0.0243289	11	0	19.9732	-1.3276e-05
2	0	0	1	0	0	95.609	0.471994	0.471384	-0.02759	1	0.0243236	11	0	20.1729	-1.30055e-05
2	0	0	1	0	0	95.8087	0.470995	0.470401	-0.0263099	1	0.0243181	11	0	20.3726	-1.23762e-05
2	0	0	1	0	0	96.0085	0.469996	0.469421	-0.0283474	1	0.0243125	11	0	20.5724	-1.33069e-05
2	0	0	1	0	0	96.2082	0.468998	0.468324	-0.0272907	1	0.0243072	11	0	20.7721	-1.27809e-05
2	0	0	1	0	0	96.4079	0.467999	0.467352	-0.0268083	1	0.0243016	11	0	20.9718	-1.25289e-05
2	0	0	1	0	0	96.6077	0.467	0.466372	-0.0288083	1	0.024296	11	0	21.1716	-1.34354e-05
2	0	0	1	0	0	96.8074	0.466002	0.465337	-0.0273153	1	0.0242906	11	0	21.3713	-1.27108e-05
2	0	0	1	0	0	97.0071	0.465003	0.464379	-0.0270717	1	0.0242849	11	0	21.571	-1.25715e-05
2	0	0	1	0	0	97.2069	0.464004	0.463328	-0.0292958	1	0.0242794	11	0	21.7708	-1.35736e-05
2	0	0	1	0	0	97.4066	0.463006	0.462379	-0.0274441	1	0.0242739	11	0	21.9705	-1.26896e-05
2	0	0	1	0	0	97.6063	0.462007	0.461412	-0.0275698	1	0.0242681	11	0	22.1702	-1.2721e-05
2	0	0	1	0	0	97.8061	0.461008	0.460339	-0.0294186	1	0.0242625	11	0	22.37	-1.35425e-05
2	0	0	1	0	0	98.0058	0.46001	0.459392	-0.0274451	1	0.0242569	11	0	22.5697	-1.26081e-05
2	0	0	1	0	0	98.2055	0.459011	0.458382	-0.0281097	1	0.0242511	11	0	22.7694	-1.2885e-05
2	0	0	1	0	0	98.4053	0.458012	0.457391	-0.0293748	1	0.0242456	11	0	22.9692	-1.34357e-05
2	0	0	1	0	0	98.605	0.457014	0.456403	-0.0273297	1	0.0242399	11	0	23.1689	-1.24734e-05
2	0	0	1	0	0	98.8047	0.456015	0.45539	-0.0289503	1	0.0242341	11	0	23.3686	-1.31837e-05
2	0	0	0	0	0	99.0044	0.455017	0.454399	-0.029675	1	0.0242285	11	0	23.5683	-1.34843e-05
2	0	0	1	0	0	99.2042	0.454018	0.453411	-0.0273942	1	0.0242227	11	0	23.7681	-1.24208e-05
2	0	0	1	0	0	99.4039	0.453019	0.452448	-0.0295731	1	0.0242168	11	0	23.9678	-1.33803e-05
2	0	0	0	0	0	99.6036	0.452021	0.451353	-0.0295868	1	0.0242112	11	0	24.1675	-1.33541e-05
2	0	0	1	0	0	99.8034	0.451022	0.45039	-0.027811	1	0.0242053	11	0	24.3673	-1.25258e-05
2	0	0	0	0	0	99.9782	0.450148	0.449554	-0.0288994	1	0.0242002	11	0	24.5421	-1.29918e-05
2	0	0	1	0	0	100.003	0.449999	0.449365	-0.0234116	1	0.0241995	11	0	24.5667	-1.05203e-05