File: ACS_Catal_2026/Figures_Na_K/main_figures/data/EC/20240527_2-145_re-addition/20240527_2-145_K_added_C02.mpt
EC-Lab ASCII FILE
Nb header lines : 66

Cyclic Voltammetry Advanced

Run on channel : 2 (SN 68855)
User :
CE vs. WE compliance from -10 V to 10 V
Electrode connection : standard
Potential control : Ewe
Ewe ctrl range : min = -1.00 V, max = 1.00 V
Safety Limits :
	Do not start on E overload
Acquisition started on : 05/28/2024 11:49:31.779
Loaded Setting File :  C:\Users\HZ-7000\Documents\EC-Lab\Data\Yatsuzuka\20240502_2-136_UPS_preparation\20240502_2-136_UPS_preparation_K-1.mps
Saved on :
	File : 20240527_2-145_K_added_C02.mpr
	Directory : C:\Users\HZ-7000\Documents\EC-Lab\Data\Yatsuzuka\20240527_2-145_re-addition\
	Host : 192.109.209.100
Device : SP-150e (SN .003466)
Address : 192.109.209.128
EC-Lab for windows v11.50 (software)
Internet server v11.50 (firmware)
Command interpretor v11.50 (firmware)
Electrode material :
Initial state :
Electrolyte :
Comments :
Electrode surface area : 0.001 cm2
Characteristic mass : 0.001 g
Equivalent Weight : 0.000 g/eq.
Density : 0.000 g/cm3
Volume (V) : 0.001 cm3
Cycle Definition : Charge/Discharge alternance
Ei (V)              0.450
vs.                 Ref
ti (h:m:s)          0:00:10.0000
dti (s)             0.0000
dE/dt               5.000
dE/dt unit          mV/s
E1 (V)              0.700
vs.                 Ref
t1 (h:m:s)          0:00:0.0000
dt1 (s)             0.1000
Step percent        50
N                   10
E range min (V)     -1.000
E range max (V)     1.000
I Range             10 mA
I Range min         Unset
I Range max         Unset
I Range init        Unset
Bandwidth           5
E2 (V)              0.450
vs.                 Ref
t2 (h:m:s)          0:00:0.0000
dt2 (s)             0.1000
nc cycles           0
nr                  1
Reverse Scan        0
Ef (V)              0.000
vs.                 Eoc
tf (h:m:s)          0:00:0.0000
dtf (s)             0.1000

mode	ox/red	error	control changes	Ns changes	counter inc.	time/s	control/V	Ewe/V	<I>/mA	cycle number	(Q-Qo)/C	I Range	Ns	step time/s	P/W
2	1	0	1	0	0	0.000000000000000E+000	0.449949	0.449251	0.000263607	1	0.0000000E+000	11	0	0.000000000000000E+000	1.18426e-07
2	1	0	1	0	0	0.1547	0.450722	0.450082	0.0244367	1	2.77852e-06	11	0	0.0999	1.09985e-05
2	1	0	0	0	0	0.3544	0.451721	0.451125	0.0302257	1	8.14144e-06	11	0	0.2996	1.36356e-05
2	1	0	1	0	0	0.5541	0.452719	0.452081	0.0292304	1	1.4159e-05	11	0	0.4993	1.32145e-05
2	1	0	1	0	0	0.7539	0.453718	0.453067	0.0315907	1	2.04434e-05	11	0	0.6991	1.43127e-05
2	1	0	0	0	0	0.9536	0.454717	0.454126	0.0317382	1	2.65135e-05	11	0	0.8988	1.44132e-05
2	1	0	1	0	0	1.1533	0.455715	0.455086	0.030108	1	3.2801e-05	11	0	1.0985	1.37017e-05
2	1	0	1	0	0	1.3531	0.456714	0.456084	0.0320748	1	3.91781e-05	11	0	1.2983	1.46288e-05
2	1	0	0	0	0	1.5528	0.457713	0.457097	0.0318102	1	4.53209e-05	11	0	1.498	1.45404e-05
2	1	0	1	0	0	1.7525	0.458711	0.458108	0.0304605	1	5.16798e-05	11	0	1.6977	1.39542e-05
2	1	0	1	0	0	1.9523	0.45971	0.459072	0.0324514	1	5.80758e-05	11	0	1.8975	1.48975e-05
2	1	0	0	0	0	2.152	0.460709	0.460115	0.0317167	1	6.42533e-05	11	0	2.0972	1.45933e-05
2	1	0	1	0	0	2.3517	0.461707	0.461057	0.0307583	1	7.06988e-05	11	0	2.2969	1.41813e-05
2	1	0	1	0	0	2.5515	0.462706	0.46208	0.0330459	1	7.71303e-05	11	0	2.4967	1.52699e-05
2	1	0	0	0	0	2.7512	0.463705	0.463061	0.0316682	1	8.33434e-05	11	0	2.6964	1.46643e-05
2	1	0	1	0	0	2.9509	0.464703	0.464076	0.0306657	1	8.98205e-05	11	0	2.8961	1.42312e-05
2	1	0	1	0	0	3.1507	0.465702	0.465071	0.0328387	1	9.61967e-05	11	0	3.0959	1.52723e-05
2	1	0	0	0	0	3.3504	0.466701	0.466097	0.0312931	1	0.000102374	11	0	3.2956	1.45856e-05
2	1	0	1	0	0	3.5501	0.467699	0.467077	0.031025	1	0.000108872	11	0	3.4953	1.44911e-05
2	1	0	1	0	0	3.7499	0.468698	0.468061	0.0329361	1	0.0001152	11	0	3.6951	1.54161e-05
2	1	0	0	0	0	3.9496	0.469697	0.469051	0.030878	1	0.000121421	11	0	3.8948	1.44833e-05
2	1	0	1	0	0	4.1493	0.470695	0.470048	0.0313747	1	0.000127927	11	0	4.0945	1.47476e-05
2	1	0	1	0	0	4.3491	0.471694	0.471078	0.0330213	1	0.000134194	11	0	4.2943	1.55556e-05
2	1	0	0	0	0	4.5488	0.472693	0.472115	0.0304848	1	0.000140461	11	0	4.494	1.43924e-05
2	1	0	1	0	0	4.7485	0.473691	0.473118	0.0317299	1	0.000146992	11	0	4.6937	1.5012e-05
2	1	0	1	0	0	4.9483	0.47469	0.474038	0.0330224	1	0.000153236	11	0	4.8935	1.56539e-05
2	1	0	0	0	0	5.148	0.475689	0.47504	0.030361	1	0.000159548	11	0	5.0932	1.44227e-05
2	1	0	1	0	0	5.3477	0.476687	0.476072	0.0319905	1	0.000166053	11	0	5.2929	1.52298e-05
2	1	0	1	0	0	5.5475	0.477686	0.477058	0.0325675	1	0.00017225	11	0	5.4927	1.55366e-05
2	1	0	0	0	0	5.7472	0.478685	0.478068	0.0301577	1	0.000178563	11	0	5.6924	1.44174e-05
2	1	0	1	0	0	5.9469	0.479683	0.479086	0.0323609	1	0.000185022	11	0	5.8921	1.55037e-05
2	1	0	1	0	0	6.1467	0.480682	0.480055	0.0320658	1	0.000191191	11	0	6.0919	1.53934e-05
2	1	0	0	0	0	6.3464	0.481681	0.481087	0.0302398	1	0.000197562	11	0	6.2916	1.4548e-05
2	1	0	1	0	0	6.5461	0.482679	0.482077	0.0327119	1	0.00020399	11	0	6.4913	1.57696e-05
2	1	0	1	0	0	6.7459	0.483678	0.483066	0.0318487	1	0.000210156	11	0	6.6911	1.5385e-05
2	1	0	0	0	0	6.9456	0.484677	0.484065	0.0303345	1	0.000216558	11	0	6.8908	1.46839e-05
2	1	0	1	0	0	7.1453	0.485675	0.485031	0.0326562	1	0.000222948	11	0	7.0905	1.58393e-05
2	1	0	1	0	0	7.345	0.486674	0.486067	0.0315278	1	0.000229094	11	0	7.2902	1.53246e-05
2	1	0	0	0	0	7.5448	0.487673	0.487036	0.0304998	1	0.000235503	11	0	7.49	1.48545e-05
2	1	0	1	0	0	7.7445	0.488671	0.488042	0.0323916	1	0.000241844	11	0	7.6897	1.58085e-05
2	1	0	1	0	0	7.9442	0.48967	0.489037	0.0311223	1	0.000247984	11	0	7.8894	1.52199e-05
2	1	0	0	0	0	8.144	0.490669	0.490033	0.0306385	1	0.000254389	11	0	8.0892	1.50139e-05
2	1	0	1	0	0	8.3437	0.491667	0.491041	0.032388	1	0.000260671	11	0	8.2889	1.59038e-05
2	1	0	1	0	0	8.5434	0.492666	0.492044	0.0307086	1	0.000266802	11	0	8.4886	1.511e-05
2	1	0	1	0	0	8.7431	0.493664	0.493078	0.0306505	1	0.000273214	11	0	8.6883	1.51131e-05
2	1	0	1	0	0	8.9429	0.494663	0.494045	0.0325854	1	0.000279475	11	0	8.8881	1.60986e-05
2	1	0	1	0	0	9.1426	0.495662	0.49505	0.030696	1	0.000285633	11	0	9.0878	1.5196e-05
2	1	0	1	0	0	9.3423	0.49666	0.495995	0.030753	1	0.000292057	11	0	9.2875	1.52533e-05
2	1	0	1	0	0	9.5421	0.497659	0.497019	0.0326255	1	0.000298283	11	0	9.4873	1.62155e-05
2	1	0	1	0	0	9.7418	0.498658	0.49805	0.0305729	1	0.000304469	11	0	9.687	1.52268e-05
2	1	0	1	0	0	9.9415	0.499656	0.499074	0.0311871	1	0.000310912	11	0	9.8867	1.55646e-05
2	1	0	1	0	0	10.1413	0.500655	0.500086	0.0325271	1	0.000317114	11	0	10.0865	1.62663e-05
2	1	0	1	0	0	10.341	0.501654	0.501004	0.0303935	1	0.000323325	11	0	10.2862	1.52273e-05
2	1	0	1	0	0	10.5407	0.502652	0.50199	0.0315845	1	0.000329786	11	0	10.4859	1.58551e-05
2	1	0	1	0	0	10.7405	0.503651	0.503019	0.0326225	1	0.000335988	11	0	10.6857	1.64097e-05
2	1	0	1	0	0	10.9402	0.50465	0.503999	0.0300204	1	0.00034224	11	0	10.8854	1.51302e-05
2	1	0	1	0	0	11.1399	0.505648	0.505039	0.0318836	1	0.000348716	11	0	11.0851	1.61025e-05
2	1	0	1	0	0	11.3397	0.506648	0.506029	0.0327117	1	0.000354899	11	0	11.2849	1.6553e-05
2	1	0	1	0	0	11.5394	0.507646	0.507002	0.0301389	1	0.000361206	11	0	11.4846	1.52805e-05
2	1	0	1	0	0	11.7391	0.508644	0.50802	0.0321208	1	0.000367678	11	0	11.6843	1.6318e-05
2	1	0	1	0	0	11.9389	0.509643	0.509024	0.0324079	1	0.00037386	11	0	11.8841	1.64964e-05
2	1	0	1	0	0	12.1386	0.510642	0.510021	0.0303007	1	0.00038022	11	0	12.0838	1.5454e-05
2	1	0	1	0	0	12.3383	0.51164	0.511063	0.0326636	1	0.000386687	11	0	12.2835	1.66931e-05
2	1	0	1	0	0	12.5381	0.51264	0.512012	0.0321308	1	0.000392882	11	0	12.4833	1.64514e-05
2	1	0	1	0	0	12.7378	0.513638	0.512968	0.0304921	1	0.000399315	11	0	12.683	1.56414e-05
2	1	0	1	0	0	12.9375	0.514636	0.514037	0.0330861	1	0.000405783	11	0	12.8827	1.70075e-05
2	1	0	1	0	0	13.1373	0.515635	0.514996	0.0320239	1	0.00041201	11	0	13.0825	1.64922e-05
2	1	0	1	0	0	13.337	0.516634	0.516029	0.0306065	1	0.000418482	11	0	13.2822	1.57938e-05
2	1	0	1	0	0	13.5367	0.517632	0.517027	0.033067	1	0.00042492	11	0	13.4819	1.70965e-05
2	1	0	1	0	0	13.7365	0.518632	0.51803	0.0320579	1	0.000431165	11	0	13.6817	1.6607e-05
2	1	0	1	0	0	13.9362	0.51963	0.519025	0.0310337	1	0.00043768	11	0	13.8814	1.61073e-05
2	1	0	1	0	0	14.1359	0.520628	0.519959	0.0331661	1	0.000444145	11	0	14.0811	1.7245e-05
2	1	0	1	0	0	14.3357	0.521627	0.521026	0.0319755	1	0.000450438	11	0	14.2809	1.66601e-05
2	1	0	1	0	0	14.5354	0.522626	0.522009	0.0314569	1	0.000457003	11	0	14.4806	1.64208e-05
2	1	0	1	0	0	14.7351	0.523624	0.523033	0.0336828	1	0.000463502	11	0	14.6803	1.76172e-05
2	1	0	1	0	0	14.9349	0.524623	0.524033	0.0319356	1	0.000469855	11	0	14.8801	1.67353e-05
2	1	0	1	0	0	15.1346	0.525622	0.525064	0.0318133	1	0.000476486	11	0	15.0798	1.6704e-05
2	1	0	1	0	0	15.3343	0.52662	0.525986	0.0338725	1	0.000483	11	0	15.2795	1.78165e-05
2	1	0	0	0	0	15.534	0.527619	0.527032	0.0321868	1	0.000489415	11	0	15.4792	1.69635e-05
2	1	0	1	0	0	15.7338	0.528618	0.528027	0.0322298	1	0.000496142	11	0	15.679	1.70182e-05
2	1	0	1	0	0	15.9335	0.529616	0.529014	0.0342193	1	0.000502715	11	0	15.8787	1.81025e-05
2	1	0	0	0	0	16.1332	0.530615	0.53002	0.0325283	1	0.000509222	11	0	16.0784	1.72407e-05
2	1	0	1	0	0	16.3329	0.531613	0.530985	0.0329451	1	0.000516039	11	0	16.2781	1.74934e-05
2	1	0	1	0	0	16.5327	0.532612	0.531987	0.034706	1	0.000522678	11	0	16.4779	1.84631e-05
2	1	0	0	0	0	16.7324	0.533611	0.533008	0.0327138	1	0.00052931	11	0	16.6776	1.74367e-05
2	1	0	1	0	0	16.9321	0.534609	0.534029	0.0338345	1	0.000536238	11	0	16.8773	1.80686e-05
2	1	0	1	0	0	17.1319	0.535608	0.535035	0.035406	1	0.000542958	11	0	17.0771	1.89434e-05
2	1	0	0	0	0	17.3316	0.536607	0.536008	0.0328381	1	0.000549717	11	0	17.2768	1.76015e-05
2	1	0	1	0	0	17.5313	0.537605	0.536995	0.0344827	1	0.00055675	11	0	17.4765	1.8517e-05
2	1	0	1	0	0	17.7311	0.538604	0.537972	0.0358504	1	0.000563549	11	0	17.6763	1.92865e-05
2	1	0	0	0	0	17.9308	0.539603	0.538967	0.0335062	1	0.000570468	11	0	17.876	1.80587e-05
2	1	0	1	0	0	18.1305	0.540601	0.539979	0.0353976	1	0.000577618	11	0	18.0757	1.9114e-05
2	1	0	1	0	0	18.3303	0.5416	0.541009	0.0361856	1	0.000584535	11	0	18.2755	1.95768e-05
2	1	0	0	0	0	18.53	0.542599	0.541993	0.0341035	1	0.000591621	11	0	18.4752	1.84839e-05
2	1	0	1	0	0	18.7297	0.543597	0.542966	0.0364888	1	0.000598889	11	0	18.6749	1.98122e-05
2	1	0	1	0	0	18.9295	0.544596	0.544001	0.0366231	1	0.000605937	11	0	18.8747	1.9923e-05
2	1	0	0	0	0	19.1292	0.545595	0.544953	0.035077	1	0.000613231	11	0	19.0744	1.91153e-05
2	1	0	1	0	0	19.3289	0.546593	0.545958	0.037799	1	0.000620659	11	0	19.2741	2.06367e-05
2	1	0	1	0	0	19.5287	0.547592	0.546954	0.037335	1	0.000627886	11	0	19.4739	2.04206e-05
2	1	0	0	0	0	19.7284	0.548591	0.547942	0.036079	1	0.000635399	11	0	19.6736	1.97692e-05
2	1	0	1	0	0	19.9281	0.549589	0.548997	0.0388899	1	0.000643019	11	0	19.8733	2.13505e-05
2	1	0	1	0	0	20.1279	0.550588	0.549938	0.0382574	1	0.00065046	11	0	20.0731	2.10392e-05
2	1	0	0	0	0	20.3276	0.551587	0.550985	0.0375181	1	0.000658228	11	0	20.2728	2.06719e-05
2	1	0	1	0	0	20.5273	0.552585	0.551937	0.0399944	1	0.000666037	11	0	20.4725	2.20744e-05
2	1	0	1	0	0	20.7271	0.553584	0.55299	0.0393117	1	0.000673755	11	0	20.6723	2.17389e-05
2	1	0	0	0	0	20.9268	0.554583	0.553983	0.0392815	1	0.000681822	11	0	20.872	2.17613e-05
2	1	0	1	0	0	21.1265	0.555581	0.554987	0.0415873	1	0.000689888	11	0	21.0717	2.30804e-05
2	1	0	1	0	0	21.3263	0.55658	0.555981	0.0404358	1	0.000697888	11	0	21.2715	2.24816e-05
2	1	0	0	0	0	21.526	0.557579	0.556975	0.0407214	1	0.000706259	11	0	21.4712	2.26808e-05
2	1	0	1	0	0	21.7257	0.558577	0.557991	0.0432538	1	0.000714587	11	0	21.6709	2.41352e-05
2	1	0	1	0	0	21.9255	0.559577	0.558977	0.0419274	1	0.000722916	11	0	21.8707	2.34364e-05
2	1	0	0	0	0	22.1252	0.560575	0.559965	0.0424997	1	0.000731633	11	0	22.0704	2.37983e-05
2	1	0	1	0	0	22.3249	0.561573	0.561034	0.0448931	1	0.00074028	11	0	22.2701	2.51866e-05
2	1	0	1	0	0	22.5246	0.562572	0.561947	0.043708	1	0.000748979	11	0	22.4698	2.45616e-05
2	1	0	0	0	0	22.7244	0.563571	0.562972	0.0448391	1	0.000758101	11	0	22.6696	2.52431e-05
2	1	0	1	0	0	22.9241	0.564569	0.563972	0.046956	1	0.000767131	11	0	22.8693	2.64819e-05
2	1	0	1	0	0	23.1239	0.565568	0.564933	0.0456248	1	0.000776306	11	0	23.0691	2.5775e-05
2	1	0	0	0	0	23.3236	0.566567	0.565958	0.0474274	1	0.000785866	11	0	23.2688	2.68419e-05
2	1	0	1	0	0	23.5233	0.567565	0.566964	0.0493873	1	0.000795319	11	0	23.4685	2.80008e-05
2	1	0	1	0	0	23.723	0.568564	0.567963	0.0477262	1	0.000805003	11	0	23.6682	2.71067e-05
2	1	0	0	0	0	23.9228	0.569563	0.568981	0.0504594	1	0.000815096	11	0	23.868	2.87104e-05
2	1	0	1	0	0	24.1225	0.570561	0.569952	0.0520387	1	0.000825069	11	0	24.0677	2.96596e-05
2	1	0	1	0	0	24.3222	0.57156	0.570947	0.0506312	1	0.000835381	11	0	24.2674	2.89077e-05
2	1	0	1	0	0	24.5219	0.572558	0.571975	0.0537915	1	0.000846032	11	0	24.4671	3.07674e-05
2	1	0	1	0	0	24.7217	0.573557	0.572961	0.0547692	1	0.00085662	11	0	24.6669	3.13806e-05
2	1	0	1	0	0	24.9214	0.574556	0.573964	0.0541597	1	0.000867628	11	0	24.8666	3.10858e-05
2	1	0	1	0	0	25.1211	0.575554	0.574947	0.0575192	1	0.000878928	11	0	25.0663	3.30705e-05
2	1	0	1	0	0	25.3209	0.576553	0.57594	0.0578747	1	0.000890191	11	0	25.2661	3.33324e-05
2	1	0	1	0	0	25.5206	0.577552	0.577011	0.0577704	1	0.000901963	11	0	25.4658	3.33341e-05
2	1	0	1	0	0	25.7203	0.57855	0.57794	0.0618055	1	0.000913977	11	0	25.6655	3.57199e-05
2	1	0	1	0	0	25.9201	0.579549	0.578929	0.0617279	1	0.00092606	11	0	25.8653	3.57361e-05
2	1	0	1	0	0	26.1198	0.580548	0.579978	0.0622413	1	0.000938697	11	0	26.065	3.60986e-05
2	1	0	1	0	0	26.3195	0.581546	0.580936	0.066137	1	0.000951524	11	0	26.2647	3.84214e-05
2	1	0	1	0	0	26.5193	0.582545	0.581905	0.0660289	1	0.000964516	11	0	26.4645	3.84226e-05
2	1	0	1	0	0	26.719	0.583544	0.582955	0.067477	1	0.000978116	11	0	26.6642	3.9336e-05
2	1	0	1	0	0	26.9187	0.584542	0.583943	0.0710794	1	0.00099191	11	0	26.8639	4.15063e-05
2	1	0	1	0	0	27.1185	0.585541	0.584936	0.0711406	1	0.00100598	11	0	27.0637	4.16127e-05
2	1	0	1	0	0	27.3182	0.58654	0.585979	0.0733713	1	0.00102068	11	0	27.2634	4.2994e-05
2	1	0	1	0	0	27.5179	0.587538	0.586937	0.0768922	1	0.00103559	11	0	27.4631	4.51308e-05
2	1	0	1	0	0	27.7177	0.588537	0.587956	0.0769198	1	0.00105086	11	0	27.6629	4.52254e-05
2	1	0	1	0	0	27.9174	0.589536	0.588929	0.0798409	1	0.0010668	11	0	27.8626	4.70207e-05
2	1	0	1	0	0	28.1171	0.590534	0.589904	0.0835228	1	0.00108297	11	0	28.0623	4.92704e-05
2	1	0	1	0	0	28.3169	0.591534	0.590916	0.0837573	1	0.00109961	11	0	28.2621	4.94935e-05
2	1	0	1	0	0	28.5166	0.592532	0.591893	0.0870522	1	0.00111695	11	0	28.4618	5.15256e-05
2	1	0	1	0	0	28.7163	0.59353	0.592926	0.0908217	1	0.00113456	11	0	28.6615	5.38506e-05
2	1	0	1	0	0	28.9161	0.594529	0.593943	0.0915199	1	0.00115273	11	0	28.8613	5.43577e-05
2	1	0	1	0	0	29.1158	0.595528	0.594927	0.095603	1	0.00117167	11	0	29.061	5.68769e-05
2	1	0	1	0	0	29.3155	0.596526	0.595899	0.0990823	1	0.0011909	11	0	29.2607	5.90431e-05
2	1	0	1	0	0	29.5153	0.597525	0.596948	0.100218	1	0.00121087	11	0	29.4605	5.9825e-05
2	1	0	1	0	0	29.715	0.598524	0.597928	0.105236	1	0.00123161	11	0	29.6602	6.29238e-05
2	1	0	1	0	0	29.9147	0.599522	0.598871	0.108751	1	0.00125272	11	0	29.8599	6.51276e-05
2	1	0	1	0	0	30.1145	0.600521	0.599929	0.110175	1	0.00127473	11	0	30.0597	6.60969e-05
2	1	0	1	0	0	30.3142	0.60152	0.600882	0.116073	1	0.00129752	11	0	30.2594	6.97461e-05
2	1	0	1	0	0	30.5139	0.602518	0.601892	0.119518	1	0.00132078	11	0	30.4591	7.19372e-05
2	1	0	0	0	0	30.7136	0.603517	0.602877	0.121705	1	0.00134505	11	0	30.6588	7.33734e-05
2	1	0	1	0	0	30.9134	0.604516	0.603902	0.128078	1	0.00137015	11	0	30.8586	7.73468e-05
2	1	0	1	0	0	31.1131	0.605514	0.604913	0.131415	1	0.00139583	11	0	31.0583	7.94948e-05
2	1	0	0	0	0	31.3128	0.606513	0.605926	0.134459	1	0.00142262	11	0	31.258	8.14724e-05
2	1	0	1	0	0	31.5126	0.607512	0.606893	0.141501	1	0.00145024	11	0	31.4578	8.58758e-05
2	1	0	1	0	0	31.7123	0.60851	0.607916	0.14455	1	0.0014786	11	0	31.6575	8.78744e-05
2	1	0	0	0	0	31.912	0.609509	0.608904	0.149103	1	0.00150823	11	0	31.8572	9.07892e-05
2	1	0	1	0	0	32.1118	0.610508	0.609922	0.156623	1	0.00153876	11	0	32.057	9.55276e-05
2	1	0	1	0	0	32.3115	0.611506	0.610937	0.159836	1	0.00157018	11	0	32.2567	9.76498e-05
2	1	0	0	0	0	32.5112	0.612505	0.611916	0.165404	1	0.00160298	11	0	32.4564	0.000101213
2	1	0	1	0	0	32.7109	0.613503	0.612917	0.173218	1	0.00163672	11	0	32.6561	0.000106168
2	1	0	1	0	0	32.9107	0.614502	0.613908	0.177016	1	0.00167159	11	0	32.8559	0.000108671
2	1	0	0	0	0	33.1104	0.615501	0.614883	0.183734	1	0.00170792	11	0	33.0556	0.000112975
2	1	0	1	0	0	33.3101	0.616499	0.615873	0.191673	1	0.0017453	11	0	33.2553	0.000118046
2	1	0	1	0	0	33.5099	0.617498	0.616906	0.196417	1	0.00178403	11	0	33.4551	0.000121171
2	1	0	0	0	0	33.7096	0.618497	0.61784	0.204577	1	0.00182436	11	0	33.6548	0.000126396
2	1	0	1	0	0	33.9093	0.619495	0.618879	0.212714	1	0.00186587	11	0	33.8545	0.000131644
2	1	0	1	0	0	34.1091	0.620494	0.61985	0.218043	1	0.00190892	11	0	34.0543	0.000135154
2	1	0	0	0	0	34.3088	0.621493	0.62091	0.227278	1	0.00195368	11	0	34.254	0.000141119
2	1	0	1	0	0	34.5085	0.622491	0.621869	0.236076	1	0.00199977	11	0	34.4537	0.000146808
2	1	0	1	0	0	34.7083	0.62349	0.622825	0.242202	1	0.0020476	11	0	34.6535	0.000150849
2	1	0	0	0	0	34.908	0.624489	0.623867	0.252185	1	0.00209723	11	0	34.8532	0.00015733
2	1	0	1	0	0	35.1077	0.625487	0.624875	0.261369	1	0.00214834	11	0	35.0529	0.000163323
2	1	0	1	0	0	35.3075	0.626486	0.625876	0.268618	1	0.00220138	11	0	35.2527	0.000168122
2	1	0	0	0	0	35.5072	0.627485	0.626894	0.279758	1	0.00225636	11	0	35.4524	0.000175379
2	1	0	1	0	0	35.7069	0.628483	0.627921	0.2892	1	0.00231297	11	0	35.6521	0.000181595
2	1	0	1	0	0	35.9067	0.629482	0.628924	0.297601	1	0.00237175	11	0	35.8519	0.000187169
2	1	0	0	0	0	36.1064	0.630481	0.629891	0.309984	1	0.00243262	11	0	36.0516	0.000195257
2	1	0	1	0	0	36.3061	0.631479	0.630881	0.32006	1	0.00249531	11	0	36.2513	0.00020192
2	1	0	1	0	0	36.5059	0.632478	0.631864	0.329298	1	0.00256039	11	0	36.4511	0.000208071
2	1	0	0	0	0	36.7056	0.633477	0.632898	0.34317	1	0.00262773	11	0	36.6508	0.000217192
2	1	0	1	0	0	36.9053	0.634475	0.633852	0.354243	1	0.00269714	11	0	36.8505	0.000224537
2	1	0	1	0	0	37.1051	0.635475	0.634897	0.364782	1	0.00276921	11	0	37.0503	0.000231599
2	1	0	0	0	0	37.3048	0.636473	0.635869	0.379345	1	0.00284365	11	0	37.25	0.000241214
2	1	0	1	0	0	37.5045	0.637471	0.636901	0.390969	1	0.00292038	11	0	37.4497	0.000249008
2	1	0	1	0	0	37.7043	0.63847	0.637879	0.402786	1	0.00299997	11	0	37.6495	0.000256929
2	1	0	0	0	0	37.904	0.639469	0.638929	0.418612	1	0.00308209	11	0	37.8492	0.000267463
2	1	0	1	0	0	38.1037	0.640467	0.639858	0.430555	1	0.0031667	11	0	38.0489	0.000275494
2	1	0	1	0	0	38.3035	0.641466	0.640829	0.443794	1	0.00325439	11	0	38.2487	0.000284396
2	1	0	0	0	0	38.5032	0.642465	0.641841	0.460425	1	0.00334473	11	0	38.4484	0.000295519
2	1	0	1	0	0	38.7029	0.643463	0.642869	0.473319	1	0.0034378	11	0	38.6481	0.000304282
2	1	0	1	0	0	38.9026	0.644462	0.643859	0.488037	1	0.00353416	11	0	38.8478	0.000314227
2	1	0	0	0	0	39.1024	0.645461	0.644812	0.505638	1	0.00363346	11	0	39.0476	0.000326041
2	1	0	1	0	0	39.3021	0.646459	0.64586	0.519951	1	0.00373575	11	0	39.2473	0.000335816
2	1	0	1	0	0	39.5018	0.647458	0.646889	0.536188	1	0.00384154	11	0	39.447	0.000346855
2	1	0	0	0	0	39.7016	0.648457	0.647863	0.554681	1	0.00395054	11	0	39.6468	0.000359358
2	1	0	1	0	0	39.9013	0.649455	0.648903	0.570057	1	0.00406278	11	0	39.8465	0.000369912
2	1	0	1	0	0	40.101	0.650454	0.649876	0.588371	1	0.00417879	11	0	40.0462	0.000382368
2	1	0	0	0	0	40.3008	0.651453	0.650857	0.608301	1	0.00429833	11	0	40.246	0.000395917
2	1	0	1	0	0	40.5005	0.652451	0.651856	0.624711	1	0.0044214	11	0	40.4457	0.000407222
2	1	0	1	0	0	40.7002	0.65345	0.652868	0.643777	1	0.00454843	11	0	40.6454	0.000420302
2	1	0	1	0	0	40.8999	0.654448	0.653824	0.664096	1	0.00467898	11	0	40.8451	0.000434202
2	1	0	1	0	0	41.0997	0.655447	0.654877	0.681094	1	0.00481333	11	0	41.0449	0.000446033
2	1	0	1	0	0	41.2994	0.656446	0.655825	0.700706	1	0.00495167	11	0	41.2446	0.000459541
2	1	0	1	0	0	41.4991	0.657444	0.656845	0.722035	1	0.00509371	11	0	41.4443	0.000474265
2	1	0	1	0	0	41.6989	0.658443	0.657844	0.740018	1	0.00523975	11	0	41.6441	0.000486816
2	1	0	1	0	0	41.8986	0.659442	0.658878	0.760989	1	0.00538999	11	0	41.8438	0.000501399
2	1	0	1	0	0	42.0983	0.66044	0.659826	0.783228	1	0.00554411	11	0	42.0435	0.000516795
2	1	0	1	0	0	42.2981	0.661439	0.660813	0.802516	1	0.00570257	11	0	42.2433	0.000530313
2	1	0	1	0	0	42.4978	0.662438	0.661777	0.825801	1	0.00586551	11	0	42.443	0.000546496
2	1	0	1	0	0	42.6975	0.663436	0.662811	0.849231	1	0.00603266	11	0	42.6427	0.00056288
2	1	0	1	0	0	42.8973	0.664435	0.663836	0.869269	1	0.00620443	11	0	42.8425	0.000577051
2	1	0	1	0	0	43.097	0.665434	0.664813	0.89454	1	0.00638092	11	0	43.0422	0.000594702
2	1	0	1	0	0	43.2967	0.666432	0.665814	0.918855	1	0.00656185	11	0	43.2419	0.000611786
2	1	0	1	0	0	43.4965	0.667431	0.666871	0.940177	1	0.00674769	11	0	43.4417	0.000626977
2	1	0	1	0	0	43.6962	0.66843	0.66782	0.965887	1	0.00693836	11	0	43.6414	0.000645038
2	1	0	1	0	0	43.8959	0.669428	0.668825	0.990248	1	0.00713355	11	0	43.8411	0.000662303
2	1	0	1	0	0	44.0957	0.670427	0.669879	1.01266	1	0.00733382	11	0	44.0409	0.000678361
2	1	0	1	0	0	44.2954	0.671426	0.670798	1.04157	1	0.0075392	11	0	44.2406	0.000698686
2	1	0	1	0	0	44.4951	0.672424	0.671799	1.06742	1	0.00774969	11	0	44.4403	0.00071709
2	1	0	1	0	0	44.6949	0.673423	0.67279	1.0908	1	0.00796556	11	0	44.6401	0.000733877
2	1	0	1	0	0	44.8946	0.674422	0.673843	1.11917	1	0.00818649	11	0	44.8398	0.000754147
2	1	0	1	0	0	45.0943	0.67542	0.674828	1.14465	1	0.0084124	11	0	45.0395	0.000772438
2	1	0	1	0	0	45.2941	0.676419	0.675799	1.16983	1	0.00864387	11	0	45.2393	0.00079057
2	1	0	1	0	0	45.4938	0.677418	0.676804	1.19937	1	0.00888072	11	0	45.439	0.000811737
2	1	0	1	0	0	45.6935	0.678416	0.677822	1.22615	1	0.00912278	11	0	45.6387	0.000831109
2	1	0	1	0	0	45.8933	0.679415	0.678815	1.25312	1	0.00937074	11	0	45.8385	0.000850637
2	1	0	1	0	0	46.093	0.680414	0.679806	1.28426	1	0.00962435	11	0	46.0382	0.000873046
2	1	0	1	0	0	46.2927	0.681412	0.680815	1.31257	1	0.00988357	11	0	46.2379	0.00089362
2	1	0	0	0	0	46.4924	0.682411	0.681779	1.33998	1	0.0101487	11	0	46.4376	0.000913572
2	1	0	1	0	0	46.6922	0.68341	0.682817	1.37051	1	0.0104197	11	0	46.6374	0.000935809
2	1	0	1	0	0	46.8919	0.684408	0.683802	1.39876	1	0.0106961	11	0	46.8371	0.000956476
2	1	0	0	0	0	47.0916	0.685407	0.68479	1.42617	1	0.0109786	11	0	47.0368	0.000976624
2	1	0	1	0	0	47.2913	0.686405	0.685851	1.45671	1	0.0112666	11	0	47.2365	0.000999083
2	1	0	1	0	0	47.4911	0.687404	0.686816	1.484	1	0.0115603	11	0	47.4363	0.00101923
2	1	0	0	0	0	47.6908	0.688403	0.687847	1.51242	1	0.0118599	11	0	47.636	0.00104031
2	1	0	1	0	0	47.8906	0.689402	0.688814	1.54552	1	0.0121655	11	0	47.8358	0.00106458
2	1	0	1	0	0	48.0903	0.6904	0.689811	1.57646	1	0.0124771	11	0	48.0355	0.00108746
2	1	0	0	0	0	48.29	0.691399	0.690815	1.60745	1	0.0127955	11	0	48.2352	0.00111045
2	1	0	1	0	0	48.4897	0.692397	0.691779	1.6404	1	0.0131199	11	0	48.4349	0.0011348
2	1	0	1	0	0	48.6895	0.693396	0.692821	1.66969	1	0.0134505	11	0	48.6347	0.0011568
2	1	0	0	0	0	48.8892	0.694395	0.693771	1.70035	1	0.0137875	11	0	48.8344	0.00117965
2	1	0	1	0	0	49.0889	0.695393	0.694794	1.73286	1	0.0141304	11	0	49.0341	0.00120398
2	1	0	1	0	0	49.2887	0.696392	0.695779	1.76143	1	0.0144794	11	0	49.2339	0.00122556
2	1	0	0	0	0	49.4884	0.697391	0.696753	1.79333	1	0.0148348	11	0	49.4336	0.00124951
2	1	0	1	0	0	49.6881	0.698389	0.697803	1.82659	1	0.0151963	11	0	49.6333	0.0012746
2	1	0	1	0	0	49.8879	0.699388	0.69875	1.85592	1	0.0155642	11	0	49.8331	0.00129683
2	1	0	1	0	0	50.0052	0.700013	0.699351	1.88445	1	0.0157832	11	0	49.9504	0.00131789
2	1	0	1	0	0	50.0702	0.699688	0.699104	1.86445	1	0.0159046	11	0	50.0154	0.00130344
2	1	0	1	0	0	50.2699	0.698689	0.698106	1.8253	1	0.0162726	11	0	50.2151	0.00127425
2	1	0	1	0	0	50.4697	0.69769	0.697138	1.78617	1	0.0166334	11	0	50.4149	0.00124521
2	1	0	1	0	0	50.6694	0.696692	0.696107	1.7497	1	0.0169863	11	0	50.6146	0.00121798
2	1	0	1	0	0	50.8691	0.695693	0.695098	1.7117	1	0.0173314	11	0	50.8143	0.0011898
2	1	0	1	0	0	51.0689	0.694694	0.69412	1.67564	1	0.0176699	11	0	51.0141	0.00116309
2	1	0	1	0	0	51.2686	0.693696	0.69308	1.64431	1	0.0180012	11	0	51.2138	0.00113964
2	1	0	1	0	0	51.4683	0.692697	0.692148	1.60906	1	0.0183256	11	0	51.4135	0.00111371
2	1	0	0	0	0	51.668	0.691699	0.691103	1.57472	1	0.0186436	11	0	51.6132	0.00108829
2	1	0	1	0	0	51.8678	0.6907	0.690127	1.54326	1	0.0189549	11	0	51.813	0.00106504
2	1	0	1	0	0	52.0675	0.689701	0.689096	1.50839	1	0.0192592	11	0	52.0127	0.00103942
2	1	0	0	0	0	52.2672	0.688703	0.688112	1.47572	1	0.0195573	11	0	52.2124	0.00101546
2	1	0	1	0	0	52.467	0.687704	0.6871	1.44595	1	0.0198489	11	0	52.4122	0.000993513
2	1	0	1	0	0	52.6667	0.686705	0.686092	1.41256	1	0.020134	11	0	52.6119	0.000969147
2	1	0	0	0	0	52.8664	0.685707	0.68509	1.38176	1	0.0204131	11	0	52.8116	0.000946631
2	1	0	1	0	0	53.0662	0.684708	0.684077	1.35272	1	0.020686	11	0	53.0114	0.000925364
2	1	0	1	0	0	53.2659	0.683709	0.683103	1.32117	1	0.0209527	11	0	53.2111	0.000902496
2	1	0	0	0	0	53.4656	0.682711	0.682132	1.29374	1	0.0212139	11	0	53.4108	0.000882501
2	1	0	1	0	0	53.6653	0.681712	0.681118	1.26692	1	0.0214693	11	0	53.6105	0.000862925
2	1	0	1	0	0	53.8651	0.680713	0.680117	1.23671	1	0.0217191	11	0	53.8103	0.000841107
2	1	0	0	0	0	54.0648	0.679715	0.679089	1.21094	1	0.0219636	11	0	54.01	0.000822334
2	1	0	1	0	0	54.2645	0.678716	0.678162	1.18565	1	0.0222026	11	0	54.2097	0.000804064
2	1	0	1	0	0	54.4643	0.677717	0.677121	1.15694	1	0.0224364	11	0	54.4095	0.000783387
2	1	0	0	0	0	54.664	0.676719	0.676088	1.135	1	0.0226654	11	0	54.6092	0.000767362
2	1	0	1	0	0	54.8637	0.67572	0.67508	1.1089	1	0.0228892	11	0	54.8089	0.000748595
2	1	0	1	0	0	55.0635	0.674721	0.67411	1.07943	1	0.0231076	11	0	55.0087	0.000727657
2	1	0	0	0	0	55.2632	0.673723	0.673121	1.05456	1	0.0233208	11	0	55.2084	0.000709846
2	1	0	1	0	0	55.4629	0.672725	0.672085	1.02979	1	0.0235286	11	0	55.4081	0.000692105
2	1	0	1	0	0	55.6627	0.671725	0.67111	1.00207	1	0.0237314	11	0	55.6079	0.000672496
2	1	0	0	0	0	55.8624	0.670727	0.670116	0.978051	1	0.0239292	11	0	55.8076	0.000655408
2	1	0	1	0	0	56.0621	0.669728	0.669124	0.953239	1	0.0241217	11	0	56.0073	0.000637835
2	1	0	1	0	0	56.2619	0.668729	0.668133	0.92674	1	0.0243093	11	0	56.2071	0.000619186
2	1	0	0	0	0	56.4616	0.667731	0.667112	0.904684	1	0.0244923	11	0	56.4068	0.000603525
2	1	0	1	0	0	56.6613	0.666732	0.6661	0.881033	1	0.0246703	11	0	56.6065	0.000586856
2	1	0	1	0	0	56.8611	0.665733	0.665125	0.855022	1	0.0248436	11	0	56.8063	0.000568697
2	1	0	0	0	0	57.0608	0.664735	0.664124	0.833787	1	0.0250123	11	0	57.006	0.000553738
2	1	0	1	0	0	57.2605	0.663736	0.663132	0.812182	1	0.0251763	11	0	57.2057	0.000538584
2	1	0	1	0	0	57.4603	0.662737	0.662117	0.788106	1	0.0253361	11	0	57.4055	0.000521818
2	1	0	0	0	0	57.66	0.661739	0.661115	0.768223	1	0.0254915	11	0	57.6052	0.000507884
2	1	0	1	0	0	57.8597	0.66074	0.660169	0.746414	1	0.0256424	11	0	57.8049	0.000492759
2	1	0	1	0	0	58.0595	0.659741	0.659162	0.722557	1	0.0257891	11	0	58.0047	0.000476282
2	1	0	0	0	0	58.2592	0.658743	0.658122	0.703743	1	0.0259316	11	0	58.2044	0.000463149
2	1	0	1	0	0	58.4589	0.657744	0.657132	0.683435	1	0.0260697	11	0	58.4041	0.000449107
2	1	0	1	0	0	58.6587	0.656745	0.656169	0.661908	1	0.0262041	11	0	58.6039	0.000434323
2	1	0	0	0	0	58.8584	0.655747	0.655157	0.644379	1	0.0263346	11	0	58.8036	0.000422169
2	1	0	1	0	0	59.0581	0.654748	0.654164	0.623966	1	0.0264609	11	0	59.0033	0.000408176
2	1	0	1	0	0	59.2579	0.653749	0.653159	0.603803	1	0.0265836	11	0	59.2031	0.000394379
2	1	0	0	0	0	59.4576	0.652751	0.652143	0.587284	1	0.0267025	11	0	59.4028	0.000382993
2	1	0	1	0	0	59.6573	0.651752	0.651158	0.567702	1	0.0268175	11	0	59.6025	0.000369664
2	1	0	1	0	0	59.857	0.650754	0.650144	0.548039	1	0.0269289	11	0	59.8022	0.000356304
2	1	0	0	0	0	60.0568	0.649755	0.649169	0.532891	1	0.0270369	11	0	60.002	0.000345936
2	1	0	1	0	0	60.2565	0.648756	0.648194	0.515985	1	0.0271413	11	0	60.2017	0.000334459
2	1	0	1	0	0	60.4562	0.647758	0.647164	0.499166	1	0.0272427	11	0	60.4014	0.000323042
2	1	0	0	0	0	60.656	0.646759	0.646198	0.484719	1	0.027341	11	0	60.6012	0.000313224
2	1	0	1	0	0	60.8557	0.64576	0.645158	0.467638	1	0.0274357	11	0	60.8009	0.0003017
2	1	0	1	0	0	61.0554	0.644762	0.644188	0.450598	1	0.0275275	11	0	61.0006	0.00029027
2	1	0	0	0	0	61.2552	0.643763	0.643147	0.436809	1	0.0276161	11	0	61.2004	0.000280933
2	1	0	1	0	0	61.4549	0.642764	0.642153	0.420202	1	0.0277014	11	0	61.4001	0.000269834
2	1	0	1	0	0	61.6546	0.641766	0.641147	0.404043	1	0.0277838	11	0	61.5998	0.000259051
2	1	0	1	0	0	61.8543	0.640767	0.640145	0.391323	1	0.0278631	11	0	61.7995	0.000250504
2	1	0	1	0	0	62.0541	0.639768	0.639181	0.375315	1	0.0279394	11	0	61.9993	0.000239894
2	1	0	1	0	0	62.2538	0.63877	0.638152	0.360878	1	0.0280131	11	0	62.199	0.000230295
2	1	0	1	0	0	62.4535	0.637771	0.637176	0.350162	1	0.028084	11	0	62.3987	0.000223115
2	1	0	1	0	0	62.6533	0.636772	0.636125	0.335586	1	0.0281522	11	0	62.5985	0.000213475
2	1	0	1	0	0	62.853	0.635774	0.635168	0.32272	1	0.0282181	11	0	62.7982	0.000204981
2	1	0	1	0	0	63.0527	0.634775	0.634179	0.312919	1	0.0282815	11	0	62.9979	0.000198447
2	1	0	1	0	0	63.2525	0.633776	0.633171	0.298969	1	0.0283423	11	0	63.1977	0.000189298
2	1	0	1	0	0	63.4522	0.632778	0.632179	0.287427	1	0.028401	11	0	63.3974	0.000181705
2	1	0	1	0	0	63.6519	0.631779	0.631174	0.278489	1	0.0284574	11	0	63.5971	0.000175775
2	1	0	1	0	0	63.8517	0.63078	0.630185	0.265508	1	0.0285115	11	0	63.7969	0.000167319
2	1	0	1	0	0	64.0514	0.629782	0.629223	0.255542	1	0.0285638	11	0	63.9966	0.000160793
2	1	0	1	0	0	64.2511	0.628783	0.628139	0.246959	1	0.0286137	11	0	64.1963	0.000155125
2	1	0	1	0	0	64.4509	0.627784	0.627116	0.23472	1	0.0286617	11	0	64.3961	0.000147197
2	1	0	1	0	0	64.6506	0.626786	0.626206	0.22577	1	0.0287079	11	0	64.5958	0.000141379
2	1	0	1	0	0	64.8503	0.625787	0.625212	0.218055	1	0.028752	11	0	64.7955	0.000136331
2	1	0	1	0	0	65.0501	0.624788	0.624145	0.206689	1	0.0287942	11	0	64.9953	0.000129004
2	1	0	1	0	0	65.2498	0.62379	0.623182	0.199059	1	0.0288349	11	0	65.195	0.00012405
2	1	0	1	0	0	65.4495	0.622791	0.622155	0.19217	1	0.0288738	11	0	65.3947	0.000119559
2	1	0	1	0	0	65.6493	0.621792	0.62116	0.182124	1	0.0289111	11	0	65.5945	0.000113128
2	1	0	1	0	0	65.849	0.620794	0.620135	0.175064	1	0.0289469	11	0	65.7942	0.000108563
2	1	0	1	0	0	66.0487	0.619795	0.619138	0.168225	1	0.0289809	11	0	65.9939	0.000104154
2	1	0	1	0	0	66.2485	0.618796	0.61816	0.159058	1	0.0290136	11	0	66.1937	9.83235e-05
2	1	0	1	0	0	66.4482	0.617798	0.617181	0.153139	1	0.0290449	11	0	66.3934	9.45148e-05
2	1	0	1	0	0	66.6479	0.616799	0.616216	0.147	1	0.0290746	11	0	66.5931	9.05836e-05
2	1	0	1	0	0	66.8477	0.6158	0.615169	0.138208	1	0.0291031	11	0	66.7929	8.50211e-05
2	1	0	1	0	0	67.0474	0.614802	0.614203	0.133621	1	0.0291304	11	0	66.9926	8.20702e-05
2	1	0	1	0	0	67.2471	0.613803	0.613171	0.128269	1	0.0291563	11	0	67.1923	7.86509e-05
2	1	0	1	0	0	67.4469	0.612804	0.612185	0.120047	1	0.029181	11	0	67.3921	7.34912e-05
2	1	0	1	0	0	67.6466	0.611806	0.61122	0.115957	1	0.0292048	11	0	67.5918	7.0875e-05
2	1	0	1	0	0	67.8463	0.610807	0.610228	0.111039	1	0.0292272	11	0	67.7915	6.7759e-05
2	1	0	0	0	0	68.046	0.609809	0.60922	0.103871	1	0.0292486	11	0	67.9912	6.32801e-05
2	1	0	1	0	0	68.2458	0.60881	0.608195	0.101048	1	0.0292693	11	0	68.191	6.1457e-05
2	1	0	1	0	0	68.4455	0.607811	0.607195	0.0957857	1	0.0292886	11	0	68.3907	5.81607e-05
2	1	0	0	0	0	68.6452	0.606813	0.606201	0.0891514	1	0.0293072	11	0	68.5904	5.40437e-05
2	1	0	1	0	0	68.845	0.605814	0.605231	0.0870063	1	0.0293249	11	0	68.7902	5.26589e-05
2	1	0	1	0	0	69.0447	0.604815	0.604229	0.0817661	1	0.0293414	11	0	68.9899	4.94054e-05
2	1	0	0	0	0	69.2444	0.603817	0.603209	0.0757974	1	0.0293573	11	0	69.1896	4.57217e-05
2	1	0	1	0	0	69.4442	0.602818	0.602207	0.0741823	1	0.0293723	11	0	69.3894	4.46731e-05
2	1	0	1	0	0	69.6439	0.601819	0.60123	0.0692303	1	0.0293863	11	0	69.5891	4.16233e-05
2	1	0	0	0	0	69.8436	0.600821	0.600213	0.0641577	1	0.0293998	11	0	69.7888	3.85083e-05
2	1	0	1	0	0	70.0433	0.599822	0.599214	0.0627163	1	0.0294125	11	0	69.9885	3.75805e-05
2	1	0	1	0	0	70.2431	0.598823	0.598274	0.0579167	1	0.0294243	11	0	70.1883	3.465e-05
2	1	0	0	0	0	70.4428	0.597825	0.597208	0.0538951	1	0.0294357	11	0	70.388	3.21866e-05
2	1	0	1	0	0	70.6425	0.596826	0.596195	0.0528082	1	0.0294463	11	0	70.5877	3.1484e-05
2	1	0	1	0	0	70.8423	0.595827	0.595171	0.0479189	1	0.0294561	11	0	70.7875	2.85199e-05
2	1	0	0	0	0	71.042	0.594829	0.594243	0.0446393	1	0.0294656	11	0	70.9872	2.65266e-05
2	1	0	1	0	0	71.2417	0.59383	0.593224	0.0439704	1	0.0294743	11	0	71.1869	2.60843e-05
2	1	0	1	0	0	71.4415	0.592831	0.592191	0.0393599	1	0.0294824	11	0	71.3867	2.33086e-05
2	1	0	0	0	0	71.6412	0.591833	0.591224	0.0365001	1	0.0294902	11	0	71.5864	2.15798e-05
2	1	0	1	0	0	71.8409	0.590834	0.590207	0.0359935	1	0.0294974	11	0	71.7861	2.12437e-05
2	1	0	1	0	0	72.0407	0.589835	0.58923	0.0319314	1	0.029504	11	0	71.9859	1.88149e-05
2	1	0	0	0	0	72.2404	0.588837	0.588213	0.0295693	1	0.0295103	11	0	72.1856	1.73931e-05
2	1	0	1	0	0	72.4401	0.587838	0.58722	0.0289213	1	0.0295161	11	0	72.3853	1.69832e-05
2	1	0	1	0	0	72.6399	0.586839	0.586239	0.0250064	1	0.0295213	11	0	72.5851	1.46597e-05
2	1	0	0	0	0	72.8396	0.585841	0.585233	0.0233835	1	0.0295263	11	0	72.7848	1.36848e-05
2	1	0	1	0	0	73.0393	0.584842	0.584248	0.0230038	1	0.0295308	11	0	72.9845	1.34399e-05
2	1	0	1	0	0	73.2391	0.583843	0.583191	0.0189051	1	0.0295348	11	0	73.1843	1.10253e-05
2	1	0	0	0	0	73.4388	0.582845	0.582213	0.0179377	1	0.0295388	11	0	73.384	1.04436e-05
2	1	0	1	0	0	73.6385	0.581846	0.581271	0.0177495	1	0.0295421	11	0	73.5837	1.03173e-05
2	1	0	1	0	0	73.8383	0.580847	0.580231	0.0138136	1	0.0295452	11	0	73.7835	8.01506e-06
2	1	0	0	0	0	74.038	0.579849	0.579249	0.0131101	1	0.0295481	11	0	73.9832	7.594e-06
2	1	0	1	0	0	74.2377	0.57885	0.57822	0.0128714	1	0.0295505	11	0	74.1829	7.44251e-06
2	1	0	1	0	0	74.4375	0.577851	0.577216	0.00902891	1	0.0295526	11	0	74.3827	5.21163e-06
2	1	0	0	0	0	74.6372	0.576853	0.576212	0.00892607	1	0.0295546	11	0	74.5824	5.14331e-06
2	1	0	1	0	0	74.8369	0.575854	0.575192	0.00844418	1	0.0295561	11	0	74.7821	4.85702e-06
2	0	0	1	0	0	75.0367	0.574855	0.574273	0.00469324	1	0.0295574	11	0	74.9819	2.6952e-06
2	1	0	0	0	0	75.2364	0.573857	0.573239	0.00535614	1	0.0295586	11	0	75.1816	3.07035e-06
2	1	0	1	0	0	75.4361	0.572858	0.572228	0.00453148	1	0.0295593	11	0	75.3813	2.59304e-06
2	0	0	1	0	0	75.6359	0.571859	0.571244	0.000954433	1	0.0295599	11	0	75.5811	5.45214e-07
2	1	0	0	0	0	75.8356	0.570861	0.570261	0.00205981	1	0.0295604	11	0	75.7808	1.17463e-06
2	1	0	1	0	0	76.0353	0.569862	0.569255	0.00110073	1	0.0295604	11	0	0.000000000000000E+000	6.26596e-07
2	0	0	1	0	0	76.235	0.568864	0.568216	-0.00200368	1	0.0295604	11	0	0.000000000000000E+000	-1.13852e-06
2	1	0	0	0	0	76.4348	0.567865	0.567264	-0.000741585	1	0.0295603	11	0	0.000000000000000E+000	-4.20674e-07
2	1	0	1	0	0	76.6345	0.566866	0.566182	-0.00199641	1	0.0295597	11	0	0.0999	-1.13033e-06
2	0	0	1	0	0	76.8342	0.565868	0.565219	-0.00464189	1	0.0295591	11	0	0.2996	-2.62368e-06
2	1	0	0	0	0	77.034	0.564869	0.564254	-0.00334437	1	0.0295584	11	0	0.4994	-1.88707e-06
2	0	0	1	0	0	77.2337	0.56387	0.563234	-0.00477637	1	0.0295573	11	0	0.6991	-2.69021e-06
2	0	0	1	0	0	77.4334	0.562872	0.562238	-0.0068171	1	0.0295563	11	0	0.8988	-3.83283e-06
2	1	0	0	0	0	77.6332	0.561873	0.561295	-0.00517154	1	0.0295552	11	0	1.0986	-2.90276e-06
2	0	0	1	0	0	77.8329	0.560874	0.560264	-0.00685141	1	0.0295538	11	0	1.2983	-3.8386e-06
2	0	0	1	0	0	78.0326	0.559876	0.559253	-0.00899185	1	0.0295523	11	0	1.498	-5.02871e-06
2	1	0	1	0	0	78.2323	0.558877	0.558232	-0.00747412	1	0.0295508	11	0	1.6977	-4.17229e-06
2	0	0	1	0	0	78.4321	0.557878	0.557285	-0.00883415	1	0.0295489	11	0	1.8975	-4.92314e-06
2	0	0	1	0	0	78.6318	0.55688	0.556226	-0.0109256	1	0.029547	11	0	2.0972	-6.07711e-06
2	0	0	1	0	0	78.8315	0.555881	0.555295	-0.00948513	1	0.0295451	11	0	2.2969	-5.26704e-06
2	0	0	1	0	0	79.0313	0.554882	0.554291	-0.0108517	1	0.0295428	11	0	2.4967	-6.01501e-06
2	0	0	1	0	0	79.231	0.553884	0.553261	-0.012535	1	0.0295407	11	0	2.6964	-6.93513e-06
2	0	0	1	0	0	79.4307	0.552885	0.552253	-0.0109391	1	0.0295383	11	0	2.8961	-6.04113e-06
2	0	0	1	0	0	79.6305	0.551886	0.551283	-0.0128564	1	0.0295357	11	0	3.0959	-7.0875e-06
2	0	0	1	0	0	79.8302	0.550888	0.550274	-0.0141506	1	0.0295332	11	0	3.2956	-7.7867e-06
2	0	0	1	0	0	80.0299	0.549889	0.549291	-0.0120848	1	0.0295306	11	0	3.4953	-6.63805e-06
2	0	0	1	0	0	80.2297	0.54889	0.548257	-0.0143215	1	0.0295277	11	0	3.6951	-7.85187e-06
2	0	0	1	0	0	80.4294	0.547892	0.547245	-0.0155925	1	0.029525	11	0	3.8948	-8.53294e-06
2	0	0	1	0	0	80.6291	0.546893	0.546234	-0.0134773	1	0.029522	11	0	4.0945	-7.36175e-06
2	0	0	1	0	0	80.8289	0.545894	0.545274	-0.0156835	1	0.0295189	11	0	4.2943	-8.55182e-06
2	0	0	1	0	0	81.0286	0.544896	0.544284	-0.0165261	1	0.0295159	11	0	4.494	-8.99487e-06
2	0	0	1	0	0	81.2283	0.543897	0.543272	-0.0146953	1	0.0295127	11	0	4.6937	-7.98353e-06
2	0	0	1	0	0	81.4281	0.542898	0.542273	-0.0170591	1	0.0295094	11	0	4.8935	-9.25068e-06
2	0	0	1	0	0	81.6278	0.5419	0.54124	-0.017049	1	0.0295062	11	0	5.0932	-9.22762e-06
2	0	0	1	0	0	81.8275	0.540901	0.540261	-0.0156795	1	0.0295028	11	0	5.2929	-8.47103e-06
2	0	0	1	0	0	82.0273	0.539902	0.539273	-0.0182697	1	0.0294993	11	0	5.4927	-9.85235e-06
2	0	0	1	0	0	82.227	0.538904	0.538284	-0.0180805	1	0.0294959	11	0	5.6924	-9.73247e-06
2	0	0	1	0	0	82.4267	0.537905	0.537262	-0.0166234	1	0.0294923	11	0	5.8921	-8.93111e-06
2	0	0	1	0	0	82.6265	0.536906	0.536307	-0.0191445	1	0.0294886	11	0	6.0919	-1.02673e-05
2	0	0	1	0	0	82.8262	0.535908	0.53534	-0.0187381	1	0.0294851	11	0	6.2916	-1.00313e-05
2	0	0	1	0	0	83.0259	0.534909	0.534301	-0.0175805	1	0.0294813	11	0	6.4913	-9.39327e-06
2	0	0	1	0	0	83.2257	0.53391	0.533281	-0.0198181	1	0.0294774	11	0	6.6911	-1.05686e-05
2	0	0	1	0	0	83.4254	0.532912	0.532293	-0.0193004	1	0.0294737	11	0	6.8908	-1.02735e-05
2	0	0	1	0	0	83.6251	0.531913	0.531302	-0.0184921	1	0.0294698	11	0	7.0905	-9.8249e-06
2	0	0	1	0	0	83.8249	0.530914	0.530294	-0.0207264	1	0.0294658	11	0	7.2903	-1.09911e-05
2	0	0	1	0	0	84.0246	0.529916	0.529312	-0.019799	1	0.029462	11	0	7.49	-1.04799e-05
2	0	0	1	0	0	84.2243	0.528917	0.528304	-0.019124	1	0.0294579	11	0	7.6897	-1.01033e-05
2	0	0	0	0	0	84.424	0.527919	0.527303	-0.0215343	1	0.0294538	11	0	7.8894	-1.13551e-05
2	0	0	1	0	0	84.6238	0.52692	0.526296	-0.0204235	1	0.0294499	11	0	8.0892	-1.07488e-05
2	0	0	1	0	0	84.8235	0.525921	0.525279	-0.0196236	1	0.0294456	11	0	8.2889	-1.03079e-05
2	0	0	0	0	0	85.0232	0.524923	0.524291	-0.0221438	1	0.0294414	11	0	8.4886	-1.16098e-05
2	0	0	1	0	0	85.2229	0.523924	0.523304	-0.0208491	1	0.0294374	11	0	8.6883	-1.09104e-05
2	0	0	1	0	0	85.4227	0.522925	0.522315	-0.0204145	1	0.029433	11	0	8.8881	-1.06628e-05
2	0	0	0	0	0	85.6224	0.521927	0.521337	-0.0225748	1	0.0294287	11	0	9.0878	-1.17691e-05
2	0	0	1	0	0	85.8222	0.520928	0.520315	-0.0209968	1	0.0294246	11	0	9.2876	-1.0925e-05
2	0	0	1	0	0	86.0219	0.519929	0.519315	-0.0209671	1	0.0294201	11	0	9.4873	-1.08885e-05
2	0	0	0	0	0	86.2216	0.518931	0.518295	-0.0232648	1	0.0294158	11	0	9.687	-1.2058e-05
2	0	0	1	0	0	86.4213	0.517932	0.517325	-0.0211096	1	0.0294115	11	0	9.8867	-1.09205e-05
2	0	0	1	0	0	86.6211	0.516933	0.516326	-0.0214971	1	0.0294069	11	0	10.0865	-1.10995e-05
2	0	0	0	0	0	86.8208	0.515935	0.515308	-0.0236893	1	0.0294026	11	0	10.2862	-1.22073e-05
2	0	0	1	0	0	87.0205	0.514936	0.514333	-0.0215222	1	0.0293982	11	0	10.4859	-1.10695e-05
2	0	0	1	0	0	87.2203	0.513937	0.513315	-0.0221555	1	0.0293935	11	0	10.6857	-1.13727e-05
2	0	0	0	0	0	87.42	0.512939	0.512298	-0.0240893	1	0.0293891	11	0	10.8854	-1.23409e-05
2	0	0	1	0	0	87.6197	0.51194	0.511323	-0.0219477	1	0.0293846	11	0	11.0851	-1.12224e-05
2	0	0	1	0	0	87.8195	0.510941	0.510313	-0.0228943	1	0.0293798	11	0	11.2849	-1.16833e-05
2	0	0	0	0	0	88.0192	0.509943	0.509346	-0.0241847	1	0.0293753	11	0	11.4846	-1.23184e-05
2	0	0	1	0	0	88.2189	0.508944	0.508335	-0.0221389	1	0.0293707	11	0	11.6843	-1.12539e-05
2	0	0	1	0	0	88.4187	0.507945	0.507331	-0.023525	1	0.0293659	11	0	11.8841	-1.1935e-05
2	0	0	0	0	0	88.6184	0.506947	0.506346	-0.0244651	1	0.0293613	11	0	12.0838	-1.23878e-05
2	0	0	1	0	0	88.8181	0.505948	0.505294	-0.0223626	1	0.0293566	11	0	12.2835	-1.12997e-05
2	0	0	1	0	0	89.0179	0.504949	0.504337	-0.0238907	1	0.0293517	11	0	12.4833	-1.20489e-05
2	0	0	0	0	0	89.2176	0.503951	0.503328	-0.0246525	1	0.0293471	11	0	12.683	-1.24083e-05
2	0	0	1	0	0	89.4173	0.502952	0.50231	-0.0227605	1	0.0293424	11	0	12.8827	-1.14328e-05
2	0	0	1	0	0	89.6171	0.501953	0.501312	-0.0242177	1	0.0293374	11	0	13.0825	-1.21406e-05
2	0	0	0	0	0	89.8168	0.500955	0.500305	-0.0250291	1	0.0293327	11	0	13.2822	-1.25222e-05
2	0	0	1	0	0	90.0165	0.499956	0.499315	-0.0231547	1	0.0293279	11	0	13.4819	-1.15615e-05
2	0	0	1	0	0	90.2163	0.498957	0.498312	-0.0247817	1	0.0293229	11	0	13.6817	-1.2349e-05
2	0	0	0	0	0	90.416	0.497959	0.497356	-0.0251627	1	0.0293181	11	0	13.8814	-1.25148e-05
2	0	0	1	0	0	90.6157	0.49696	0.496353	-0.0232168	1	0.0293132	11	0	14.0811	-1.15237e-05
2	0	0	1	0	0	90.8155	0.495961	0.495299	-0.0251562	1	0.0293082	11	0	14.2809	-1.24598e-05
2	0	0	0	0	0	91.0152	0.494963	0.494374	-0.0252806	1	0.0293034	11	0	14.4806	-1.24981e-05
2	0	0	1	0	0	91.2149	0.493964	0.49333	-0.0231452	1	0.0292985	11	0	14.6803	-1.14182e-05
2	0	0	1	0	0	91.4147	0.492965	0.492323	-0.0253906	1	0.0292934	11	0	14.8801	-1.25004e-05
2	0	0	0	0	0	91.6144	0.491967	0.491322	-0.0254049	1	0.0292886	11	0	15.0798	-1.2482e-05
2	0	0	1	0	0	91.8141	0.490968	0.490374	-0.0233798	1	0.0292836	11	0	15.2795	-1.14648e-05
2	0	0	1	0	0	92.0138	0.48997	0.48935	-0.0259102	1	0.0292785	11	0	15.4792	-1.26791e-05
2	0	0	0	0	0	92.2136	0.488971	0.488346	-0.025301	1	0.0292737	11	0	15.679	-1.23556e-05
2	0	0	1	0	0	92.4133	0.487972	0.48732	-0.0239211	1	0.0292686	11	0	15.8787	-1.16572e-05
2	0	0	1	0	0	92.613	0.486974	0.486348	-0.026439	1	0.0292635	11	0	16.0784	-1.28585e-05
2	0	0	0	0	0	92.8128	0.485975	0.485358	-0.0253219	1	0.0292585	11	0	16.2782	-1.22902e-05
2	0	0	1	0	0	93.0125	0.484976	0.484318	-0.0243872	1	0.0292533	11	0	16.4779	-1.18112e-05
2	0	0	1	0	0	93.2122	0.483978	0.483373	-0.0270445	1	0.0292482	11	0	16.6776	-1.30726e-05
2	0	0	1	0	0	93.4119	0.482979	0.482344	-0.0255131	1	0.0292432	11	0	16.8773	-1.23061e-05
2	0	0	1	0	0	93.6117	0.48198	0.481356	-0.0248156	1	0.0292379	11	0	17.0771	-1.19451e-05
2	0	0	1	0	0	93.8114	0.480982	0.480339	-0.0274048	1	0.0292326	11	0	17.2768	-1.31636e-05
2	0	0	1	0	0	94.0111	0.479983	0.479332	-0.0257827	1	0.0292276	11	0	17.4765	-1.23585e-05
2	0	0	1	0	0	94.2109	0.478984	0.478348	-0.0254715	1	0.0292222	11	0	17.6763	-1.21842e-05
2	0	0	1	0	0	94.4106	0.477986	0.477377	-0.0274327	1	0.0292169	11	0	17.876	-1.30957e-05
2	0	0	1	0	0	94.6103	0.476987	0.476365	-0.025997	1	0.0292118	11	0	18.0757	-1.23841e-05
2	0	0	1	0	0	94.8101	0.475988	0.475334	-0.0259579	1	0.0292063	11	0	18.2755	-1.23387e-05
2	0	0	1	0	0	95.0098	0.47499	0.474391	-0.027915	1	0.029201	11	0	18.4752	-1.32426e-05
2	0	0	1	0	0	95.2095	0.473991	0.473373	-0.0261294	1	0.0291958	11	0	18.6749	-1.23689e-05
2	0	0	1	0	0	95.4093	0.472992	0.472344	-0.0262207	1	0.0291903	11	0	18.8747	-1.23852e-05
2	0	0	1	0	0	95.609	0.471994	0.471345	-0.0284585	1	0.0291849	11	0	19.0744	-1.34138e-05
2	0	0	1	0	0	95.8087	0.470995	0.470352	-0.0265933	1	0.0291796	11	0	19.2741	-1.25082e-05
2	0	0	1	0	0	96.0085	0.469996	0.46933	-0.026441	1	0.029174	11	0	19.4739	-1.24095e-05
2	0	0	1	0	0	96.2082	0.468998	0.468393	-0.028512	1	0.0291686	11	0	19.6736	-1.33548e-05
2	0	0	1	0	0	96.4079	0.467999	0.467375	-0.0266922	1	0.0291633	11	0	19.8733	-1.24753e-05
2	0	0	1	0	0	96.6077	0.467	0.466335	-0.0268632	1	0.0291576	11	0	20.0731	-1.25272e-05
2	0	0	1	0	0	96.8074	0.466002	0.465383	-0.0288067	1	0.0291522	11	0	20.2728	-1.34061e-05
2	0	0	1	0	0	97.0071	0.465003	0.46434	-0.0266156	1	0.0291468	11	0	20.4725	-1.23587e-05
2	0	0	1	0	0	97.2069	0.464004	0.463362	-0.0274096	1	0.0291411	11	0	20.6723	-1.27006e-05
2	0	0	1	0	0	97.4066	0.463006	0.462358	-0.0290599	1	0.0291356	11	0	20.872	-1.34361e-05
2	0	0	1	0	0	97.6063	0.462007	0.46139	-0.0265323	1	0.0291301	11	0	21.0717	-1.22417e-05
2	0	0	1	0	0	97.8061	0.461008	0.460388	-0.0277613	1	0.0291244	11	0	21.2715	-1.2781e-05
2	0	0	1	0	0	98.0058	0.46001	0.459369	-0.0294497	1	0.0291189	11	0	21.4712	-1.35283e-05
2	0	0	1	0	0	98.2055	0.459011	0.458372	-0.0267181	1	0.0291133	11	0	21.6709	-1.22468e-05
2	0	0	1	0	0	98.4053	0.458012	0.457403	-0.0282818	1	0.0291076	11	0	21.8707	-1.29362e-05
2	0	0	1	0	0	98.605	0.457014	0.45637	-0.0293478	1	0.029102	11	0	22.0704	-1.33935e-05
2	0	0	1	0	0	98.8047	0.456015	0.455382	-0.0270337	1	0.0290964	11	0	22.2701	-1.23107e-05
2	0	0	0	0	0	99.0044	0.455017	0.454376	-0.0289155	1	0.0290906	11	0	22.4698	-1.31385e-05
2	0	0	1	0	0	99.2042	0.454018	0.453364	-0.0291643	1	0.029085	11	0	22.6696	-1.3222e-05
2	0	0	1	0	0	99.4039	0.453019	0.452414	-0.0270941	1	0.0290793	11	0	22.8693	-1.22577e-05
2	0	0	0	0	0	99.6036	0.452021	0.451419	-0.0293503	1	0.0290735	11	0	23.069	-1.32493e-05
2	0	0	1	0	0	99.8034	0.451022	0.450412	-0.0294589	1	0.0290679	11	0	23.2688	-1.32686e-05
2	0	0	0	0	0	99.9782	0.450148	0.449501	-0.0263818	1	0.0290627	11	0	23.4436	-1.18586e-05
2	0	0	1	0	0	100.003	0.449999	0.449403	-0.0384326	1	0.029062	11	0	23.4682	-1.72718e-05