File: ACS_Catal_2026/Figures_Na_K/main_figures/data/EC/20240527_2-145_re-addition/20240527_2-145_inK_03_CVA_C02.mpt
EC-Lab ASCII FILE
Nb header lines : 66

Cyclic Voltammetry Advanced

Run on channel : 2 (SN 68855)
User :
CE vs. WE compliance from -10 V to 10 V
Electrode connection : standard
Potential control : Ewe
Ewe ctrl range : min = -1.00 V, max = 1.00 V
Safety Limits :
	Do not start on E overload
Acquisition started on : 05/28/2024 11:18:57.125
Loaded Setting File :  C:\Users\HZ-7000\Documents\EC-Lab\Data\Yatsuzuka\20240502_2-136_UPS_preparation\20240502_2-136_UPS_preparation_K-1.mps
Saved on :
	File : 20240527_2-145_inK_03_CVA_C02.mpr
	Directory : C:\Users\HZ-7000\Documents\EC-Lab\Data\Yatsuzuka\20240527_2-145_re-addition\
	Host : 192.109.209.100
Device : SP-150e (SN .003466)
Address : 192.109.209.128
EC-Lab for windows v11.50 (software)
Internet server v11.50 (firmware)
Command interpretor v11.50 (firmware)
Electrode material :
Initial state :
Electrolyte :
Comments :
Electrode surface area : 0.001 cm2
Characteristic mass : 0.001 g
Equivalent Weight : 0.000 g/eq.
Density : 0.000 g/cm3
Volume (V) : 0.001 cm3
Cycle Definition : Charge/Discharge alternance
Ei (V)              0.450
vs.                 Ref
ti (h:m:s)          0:00:10.0000
dti (s)             0.0000
dE/dt               5.000
dE/dt unit          mV/s
E1 (V)              0.700
vs.                 Ref
t1 (h:m:s)          0:00:0.0000
dt1 (s)             0.1000
Step percent        50
N                   10
E range min (V)     -1.000
E range max (V)     1.000
I Range             10 mA
I Range min         Unset
I Range max         Unset
I Range init        Unset
Bandwidth           5
E2 (V)              0.450
vs.                 Ref
t2 (h:m:s)          0:00:0.0000
dt2 (s)             0.1000
nc cycles           14
nr                  1
Reverse Scan        0
Ef (V)              0.000
vs.                 Eoc
tf (h:m:s)          0:00:0.0000
dtf (s)             0.1000

mode	ox/red	error	control changes	Ns changes	counter inc.	time/s	control/V	Ewe/V	<I>/mA	cycle number	(Q-Qo)/C	I Range	Ns	step time/s	P/W
2	1	0	1	0	0	231.391	0.449949	0.449384	0.00389451	1	0.0000000E+000	11	0	0.000000000000000E+000	1.75013e-06
2	1	0	1	0	0	233.943	0.462706	0.462046	0.040765	1	9.89887e-05	11	0	2.4967	1.88353e-05
2	1	0	0	0	0	236.539	0.475689	0.475085	0.0422134	1	0.00020869	11	0	5.0932	2.00549e-05
2	1	0	1	0	0	239.136	0.488671	0.488012	0.0468104	1	0.000323705	11	0	7.6897	2.2844e-05
2	1	0	1	0	0	241.732	0.501654	0.50105	0.0484109	1	0.000447177	11	0	10.2862	2.42563e-05
2	1	0	1	0	0	244.329	0.514636	0.514076	0.0557395	1	0.00058292	11	0	12.8827	2.86544e-05
2	1	0	0	0	0	246.925	0.527619	0.527033	0.0634501	1	0.000735202	11	0	15.4792	3.34403e-05
2	1	0	1	0	0	249.522	0.540601	0.539977	0.0722058	1	0.000911399	11	0	18.0757	3.89895e-05
2	1	0	1	0	0	252.118	0.553584	0.553004	0.09151	1	0.0011229	11	0	20.6723	5.06054e-05
2	1	0	0	0	0	254.715	0.566567	0.566023	0.116272	1	0.00138909	11	0	23.2688	6.58129e-05
2	1	0	1	0	0	257.311	0.579549	0.57893	0.157876	1	0.00174284	11	0	25.8653	9.1399e-05
2	1	0	1	0	0	259.908	0.592532	0.591975	0.22703	1	0.00223577	11	0	28.4618	0.000134396
2	1	0	1	0	0	262.504	0.605514	0.604927	0.328852	1	0.00294892	11	0	31.0583	0.000198932
2	1	0	0	0	0	265.101	0.618497	0.617912	0.48475	1	0.00399436	11	0	33.6548	0.000299533
2	1	0	1	0	0	267.697	0.631479	0.630919	0.696551	1	0.00551409	11	0	36.2513	0.000439468
2	1	0	1	0	0	270.294	0.644462	0.643859	0.96976	1	0.00766581	11	0	38.8478	0.000624389
2	1	0	1	0	0	272.89	0.657444	0.656854	1.31025	1	0.0106187	11	0	41.4443	0.000860643
2	1	0	1	0	0	275.487	0.670427	0.669843	1.69857	1	0.0145176	11	0	44.0409	0.00113777
2	1	0	1	0	0	278.084	0.68341	0.682817	2.13339	1	0.0194902	11	0	46.6374	0.00145672
2	1	0	1	0	0	280.68	0.696392	0.695802	2.613	1	0.0256526	11	0	49.2339	0.00181813
2	1	0	0	0	0	283.059	0.691699	0.691104	2.37414	1	0.0318205	11	0	51.6132	0.00164078
2	1	0	1	0	0	285.656	0.678716	0.678146	1.87536	1	0.0373277	11	0	54.2097	0.00127177
2	1	0	1	0	0	288.252	0.665733	0.665137	1.44297	1	0.0416277	11	0	56.8063	0.000959775
2	1	0	0	0	0	290.849	0.652751	0.652196	1.0577	1	0.0448586	11	0	59.4028	0.000689825
2	1	0	1	0	0	293.445	0.639768	0.639189	0.733541	1	0.0471682	11	0	61.9993	0.000468872
2	1	0	1	0	0	296.042	0.626786	0.626211	0.478838	1	0.0487228	11	0	64.5958	0.000299853
2	1	0	1	0	0	298.638	0.613803	0.613222	0.293294	1	0.0497115	11	0	67.1923	0.000179854
2	1	0	0	0	0	301.235	0.600821	0.600179	0.170065	1	0.0503023	11	0	69.7888	0.000102069
2	1	0	1	0	0	303.831	0.587838	0.587207	0.0899638	1	0.0506299	11	0	72.3853	5.28274e-05
2	1	0	1	0	0	306.428	0.574855	0.57422	0.0401578	1	0.0507947	11	0	74.9819	2.30595e-05
2	1	0	0	0	0	309.025	0.561873	0.561301	0.0141686	1	0.0508619	11	0	77.5784	7.95287e-06
2	0	0	1	0	0	311.621	0.54889	0.548297	-0.00434215	1	0.0508712	11	0	0.3995	-2.38079e-06
2	0	0	1	0	0	314.218	0.535908	0.535361	-0.0143921	1	0.050847	11	0	2.996	-7.70498e-06
2	0	0	1	0	0	316.814	0.522925	0.522345	-0.0183548	1	0.0508028	11	0	5.5925	-9.58753e-06
2	0	0	0	0	0	319.411	0.509943	0.509381	-0.0244119	1	0.0507459	11	0	8.189	-1.2435e-05
2	0	0	1	0	0	322.007	0.49696	0.496341	-0.0264279	1	0.0506812	11	0	10.7855	-1.31172e-05
2	0	0	1	0	0	324.604	0.483978	0.483368	-0.0273173	1	0.0506102	11	0	13.382	-1.32043e-05
2	0	0	1	0	0	327.2	0.470995	0.470386	-0.0315365	1	0.0505344	11	0	15.9785	-1.48343e-05
2	0	0	1	0	0	329.797	0.458012	0.457433	-0.0307982	1	0.0504542	11	0	18.5751	-1.40881e-05
2	1	0	1	0	1	332.158	0.453819	0.45321	0.030709	2	0.0504191	11	0	0.5992	1.39176e-05
2	1	0	0	0	1	334.755	0.466801	0.466218	0.0342598	2	0.0505061	11	0	3.1957	1.59725e-05
2	1	0	1	0	1	337.351	0.479783	0.479164	0.0357186	2	0.0505955	11	0	5.7922	1.71151e-05
2	1	0	1	0	1	339.948	0.492766	0.492182	0.0335018	2	0.0506856	11	0	8.3887	1.64889e-05
2	1	0	1	0	1	342.544	0.505748	0.505103	0.0360973	2	0.0507773	11	0	10.9852	1.82329e-05
2	1	0	0	0	1	345.141	0.518731	0.518147	0.0377586	2	0.0508716	11	0	13.5817	1.95645e-05
2	1	0	1	0	1	347.737	0.531713	0.531136	0.039403	2	0.0509728	11	0	16.1782	2.09284e-05
2	1	0	1	0	1	350.334	0.544696	0.54411	0.0483471	2	0.0510861	11	0	18.7748	2.63061e-05
2	1	0	1	0	1	352.93	0.557678	0.557068	0.0579755	2	0.0512222	11	0	21.3712	3.22963e-05
2	1	0	1	0	1	355.527	0.570661	0.570082	0.0798362	2	0.0513997	11	0	23.9678	4.55132e-05
2	1	0	1	0	1	358.123	0.583644	0.583058	0.116562	2	0.0516495	11	0	26.5643	6.79624e-05
2	1	0	1	0	1	360.72	0.596626	0.596031	0.175796	2	0.0520235	11	0	29.1608	0.00010478
2	1	0	0	0	1	363.316	0.609609	0.609029	0.277304	2	0.052603	11	0	31.7573	0.000168886
2	1	0	1	0	1	365.913	0.622591	0.622005	0.425411	2	0.0535027	11	0	34.3538	0.000264608
2	1	0	1	0	1	368.509	0.635574	0.634941	0.640598	2	0.0548749	11	0	36.9503	0.000406742
2	1	0	1	0	1	371.106	0.648556	0.647982	0.918033	2	0.056886	11	0	39.5468	0.000594869
2	1	0	1	0	1	373.702	0.661539	0.660963	1.26262	2	0.0597057	11	0	42.1434	0.000834544
2	1	0	1	0	1	376.299	0.674521	0.67391	1.66847	2	0.0635029	11	0	44.7398	0.0011244
2	1	0	1	0	1	378.895	0.687505	0.686934	2.11123	2	0.0684052	11	0	47.3364	0.00145027
2	1	0	1	0	1	381.39	0.700013	0.699504	2.56941	2	0.0742468	11	0	49.8305	0.00179731
2	1	0	1	0	1	383.851	0.687704	0.6871	2.06904	2	0.0799532	11	0	52.2923	0.00142164
2	1	0	1	0	1	386.448	0.674721	0.674129	1.61642	2	0.0847296	11	0	54.8888	0.00108968
2	1	0	0	0	1	389.044	0.661739	0.661122	1.20906	2	0.088381	11	0	57.4853	0.000799338
2	1	0	1	0	1	391.641	0.648756	0.648209	0.85996	2	0.091052	11	0	60.0818	0.000557434
2	1	0	1	0	1	394.237	0.635774	0.635194	0.581435	2	0.0929083	11	0	62.6783	0.000369325
2	1	0	1	0	1	396.834	0.622791	0.622197	0.368331	2	0.0941253	11	0	65.2748	0.000229174
2	1	0	0	0	1	399.43	0.609809	0.609212	0.217038	2	0.0948735	11	0	67.8713	0.000132222
2	1	0	1	0	1	402.027	0.596826	0.596206	0.121592	2	0.0953023	11	0	70.4678	7.2494e-05
2	1	0	1	0	1	404.623	0.583843	0.583242	0.0591986	2	0.0955286	11	0	73.0644	3.45271e-05
2	1	0	0	0	1	407.22	0.570861	0.570283	0.0229685	2	0.0956322	11	0	75.6609	1.30986e-05
2	1	0	1	0	1	409.816	0.557878	0.557272	0.0038568	2	0.095663	11	0	78.2574	2.14929e-06
2	0	0	1	0	1	412.413	0.544896	0.54431	-0.0110407	2	0.0956513	11	0	1.8975	-6.00957e-06
2	0	0	1	0	1	415.009	0.531913	0.531338	-0.0174964	2	0.095615	11	0	4.494	-9.2965e-06
2	0	0	0	0	1	417.606	0.518931	0.518354	-0.0208939	2	0.0955636	11	0	7.0905	-1.08305e-05
2	0	0	1	0	1	420.202	0.505948	0.505326	-0.026009	2	0.0955029	11	0	9.687	-1.3143e-05
2	0	0	1	0	1	422.799	0.492965	0.492346	-0.0257129	2	0.0954356	11	0	12.2836	-1.26596e-05
2	0	0	1	0	1	425.395	0.479983	0.479374	-0.0291651	2	0.0953631	11	0	14.88	-1.3981e-05
2	0	0	1	0	1	427.992	0.467	0.466365	-0.0306924	2	0.0952865	11	0	17.4766	-1.43139e-05
2	0	0	1	0	1	430.589	0.454018	0.453433	-0.0307028	2	0.0952054	11	0	20.0731	-1.39217e-05
2	1	0	0	0	0	432.95	0.457813	0.457275	0.0308788	3	0.0952208	11	0	1.3981	1.41201e-05
2	1	0	1	0	0	435.547	0.470795	0.470214	0.0345711	3	0.0953062	11	0	3.9946	1.62558e-05
2	1	0	1	0	0	438.143	0.483778	0.48313	0.0326127	3	0.0953927	11	0	6.5911	1.57562e-05
2	1	0	1	0	0	440.74	0.49676	0.496192	0.0328802	3	0.09548	11	0	9.1876	1.63149e-05
2	1	0	1	0	0	443.336	0.509743	0.509134	0.0359398	3	0.0955684	11	0	11.7842	1.82982e-05
2	1	0	1	0	0	445.933	0.522725	0.522086	0.035638	3	0.0956599	11	0	14.3806	1.86061e-05
2	1	0	1	0	0	448.529	0.535708	0.535149	0.0392845	3	0.0957585	11	0	16.9772	2.10231e-05
2	1	0	0	0	0	451.126	0.548691	0.548093	0.0479241	3	0.0958699	11	0	19.5737	2.62669e-05
2	1	0	1	0	0	453.722	0.561673	0.561101	0.0577838	3	0.0960055	11	0	22.1702	3.24226e-05
2	1	0	1	0	0	456.319	0.574656	0.574108	0.0807829	3	0.0961848	11	0	24.7667	4.63781e-05
2	1	0	1	0	0	458.915	0.587638	0.587016	0.120678	3	0.0964411	11	0	27.3632	7.084e-05
2	1	0	0	0	0	461.512	0.600621	0.599979	0.183418	3	0.0968288	11	0	29.9597	0.000110047
2	1	0	1	0	0	464.108	0.613603	0.613026	0.288746	3	0.097434	11	0	32.5562	0.000177009
2	1	0	1	0	0	466.705	0.626586	0.626047	0.448423	3	0.098378	11	0	35.1528	0.000280734
2	1	0	1	0	0	469.301	0.639568	0.638969	0.666822	3	0.0998123	11	0	37.7492	0.000426079
2	1	0	1	0	0	471.898	0.652551	0.651966	0.959552	3	0.101914	11	0	40.3458	0.000625595
2	1	0	1	0	0	474.494	0.665534	0.664966	1.31415	3	0.104855	11	0	42.9423	0.000873866
2	1	0	1	0	0	477.091	0.678516	0.677949	1.71925	3	0.108779	11	0	45.5388	0.00116557
2	1	0	0	0	0	479.687	0.691499	0.690909	2.17696	3	0.113827	11	0	48.1353	0.00150408
2	1	0	1	0	0	482.047	0.696692	0.696064	2.35923	3	0.119403	11	0	50.4947	0.00164217
2	1	0	1	0	0	484.643	0.683709	0.683136	1.85607	3	0.124876	11	0	53.0912	0.00126795
2	1	0	0	0	0	487.24	0.670727	0.67012	1.4347	3	0.129141	11	0	55.6877	0.000961424
2	1	0	1	0	0	489.836	0.657744	0.657196	1.04551	3	0.13234	11	0	58.2842	0.000687106
2	1	0	1	0	0	492.433	0.644762	0.644169	0.72677	3	0.134627	11	0	60.8807	0.000468163
2	1	0	1	0	0	495.029	0.631779	0.63119	0.475616	3	0.13617	11	0	63.4772	0.000300204
2	1	0	1	0	0	497.626	0.618796	0.618213	0.291003	3	0.137151	11	0	66.0738	0.000179902
2	1	0	1	0	0	500.222	0.605814	0.605223	0.16932	3	0.137737	11	0	68.6703	0.000102476
2	1	0	1	0	0	502.819	0.592831	0.592214	0.0880815	3	0.138062	11	0	71.2668	5.21631e-05
2	1	0	0	0	0	505.415	0.579849	0.579264	0.0405513	3	0.138225	11	0	73.8633	2.34899e-05
2	1	0	1	0	0	508.012	0.566866	0.566278	0.0136743	3	0.138291	11	0	76.4598	7.74348e-06
2	0	0	1	0	0	510.608	0.553884	0.553303	-0.00515687	3	0.1383	11	0	0.5992	-2.85331e-06
2	0	0	1	0	0	513.205	0.540901	0.540309	-0.012453	3	0.138276	11	0	3.1957	-6.72849e-06
2	0	0	0	0	0	515.801	0.527919	0.527323	-0.0192898	3	0.138233	11	0	5.7922	-1.0172e-05
2	0	0	1	0	0	518.398	0.514936	0.514265	-0.0236727	3	0.138178	11	0	8.3887	-1.21741e-05
2	0	0	1	0	0	520.994	0.501953	0.501337	-0.0237809	3	0.138115	11	0	10.9853	-1.19223e-05
2	0	0	0	0	0	523.591	0.488971	0.48834	-0.028318	3	0.138046	11	0	13.5818	-1.38288e-05
2	0	0	1	0	0	526.187	0.475988	0.475362	-0.0293487	3	0.137973	11	0	16.1783	-1.39512e-05
2	0	0	1	0	0	528.784	0.463006	0.462371	-0.0294822	3	0.137896	11	0	18.7748	-1.36317e-05
2	0	0	0	0	0	531.356	0.450148	0.449516	-0.0322458	3	0.137815	11	0	21.3464	-1.4495e-05
2	1	0	1	0	1	533.742	0.461807	0.461173	0.0331124	4	0.13788	11	0	2.197	1.52706e-05
2	1	0	1	0	1	536.339	0.47479	0.474169	0.033187	4	0.137964	11	0	4.7935	1.57362e-05
2	1	0	1	0	1	538.935	0.487772	0.487171	0.0315609	4	0.138049	11	0	7.39	1.53756e-05
2	1	0	1	0	1	541.532	0.500755	0.500132	0.0340421	4	0.138135	11	0	9.9866	1.70256e-05
2	1	0	1	0	1	544.128	0.513738	0.513159	0.0340962	4	0.138222	11	0	12.5831	1.74968e-05
2	1	0	1	0	1	546.725	0.52672	0.526126	0.0349465	4	0.138313	11	0	15.1796	1.83863e-05
2	1	0	0	0	1	549.321	0.539703	0.539093	0.0413364	4	0.138411	11	0	17.7761	2.22842e-05
2	1	0	1	0	1	551.918	0.552685	0.552075	0.0470917	4	0.138524	11	0	20.3726	2.59982e-05
2	1	0	1	0	1	554.514	0.565668	0.565084	0.0605311	4	0.138664	11	0	22.9691	3.42052e-05
2	1	0	1	0	1	557.111	0.57865	0.57807	0.0872372	4	0.138852	11	0	25.5656	5.04292e-05
2	1	0	0	0	1	559.707	0.591633	0.591046	0.127437	4	0.139125	11	0	28.1621	7.5321e-05
2	1	0	1	0	1	562.304	0.604615	0.60405	0.198762	4	0.139543	11	0	30.7586	0.000120063
2	1	0	1	0	1	564.9	0.617599	0.617016	0.313893	4	0.140197	11	0	33.3552	0.000193677
2	1	0	0	0	1	567.497	0.630581	0.629972	0.480995	4	0.141216	11	0	35.9517	0.000303013
2	1	0	1	0	1	570.093	0.643563	0.642996	0.714823	4	0.142759	11	0	38.5482	0.000459628
2	1	0	1	0	1	572.69	0.656546	0.655981	1.02006	4	0.144996	11	0	41.1447	0.000669139
2	1	0	1	0	1	575.286	0.669528	0.668949	1.38502	4	0.148106	11	0	43.7412	0.00092651
2	1	0	0	0	1	577.883	0.682511	0.681945	1.80288	4	0.15223	11	0	46.3377	0.00122946
2	1	0	1	0	1	580.479	0.695493	0.694894	2.26653	4	0.157509	11	0	48.9342	0.001575
2	1	0	1	0	1	582.839	0.692697	0.69215	2.1261	4	0.162937	11	0	51.2936	0.00147158
2	1	0	0	0	1	585.435	0.679715	0.679121	1.67811	4	0.167859	11	0	53.8901	0.00113964
2	1	0	1	0	1	588.032	0.666732	0.666179	1.2569	4	0.17165	11	0	56.4866	0.000837319
2	1	0	1	0	1	590.628	0.653749	0.653147	0.897805	4	0.174439	11	0	59.0832	0.000586399
2	1	0	1	0	1	593.225	0.640767	0.640192	0.611399	4	0.176385	11	0	61.6796	0.000391413
2	1	0	1	0	1	595.821	0.627784	0.627191	0.393321	4	0.177674	11	0	64.2762	0.000246687
2	1	0	1	0	1	598.418	0.614802	0.614273	0.234908	4	0.178475	11	0	66.8727	0.000144298
2	1	0	1	0	1	601.014	0.601819	0.601228	0.129462	4	0.178939	11	0	69.4692	7.78361e-05
2	1	0	0	0	1	603.611	0.588837	0.588245	0.0667824	4	0.179188	11	0	72.0657	3.92844e-05
2	1	0	1	0	1	606.207	0.575854	0.575242	0.0285613	4	0.179304	11	0	74.6622	1.64296e-05
2	0	0	1	0	1	608.804	0.562872	0.562267	0.00373261	4	0.179344	11	0	77.2587	2.09873e-06
2	0	0	1	0	1	611.4	0.549889	0.549262	-0.00807621	4	0.179338	11	0	1.6977	-4.43595e-06
2	0	0	1	0	1	613.997	0.536906	0.536303	-0.0144806	4	0.179306	11	0	4.2943	-7.76601e-06
2	0	0	1	0	1	616.593	0.523924	0.52335	-0.0212396	4	0.179258	11	0	6.8907	-1.11158e-05
2	0	0	1	0	1	619.19	0.510941	0.51033	-0.0249434	4	0.179201	11	0	9.4873	-1.27294e-05
2	0	0	0	0	1	621.786	0.497959	0.49734	-0.0249381	4	0.179136	11	0	12.0838	-1.24027e-05
2	0	0	1	0	1	624.383	0.484976	0.484403	-0.026443	4	0.179067	11	0	14.6803	-1.28091e-05
2	0	0	1	0	1	626.979	0.471994	0.471434	-0.0303238	4	0.178993	11	0	17.2768	-1.42956e-05
2	0	0	1	0	1	629.576	0.459011	0.458404	-0.0309613	4	0.178916	11	0	19.8733	-1.41928e-05
2	1	0	1	0	0	631.937	0.452819	0.452201	0.0293458	5	0.178869	11	0	0.3994	1.32702e-05
2	1	0	1	0	0	634.534	0.465803	0.46523	0.0306745	5	0.17895	11	0	2.996	1.42707e-05
2	1	0	1	0	0	637.13	0.478784	0.478193	0.0312342	5	0.179033	11	0	5.5924	1.4936e-05
2	1	0	1	0	0	639.727	0.491767	0.491177	0.0334637	5	0.179118	11	0	8.189	1.64366e-05
2	1	0	1	0	0	642.324	0.50475	0.50412	0.0333276	5	0.179202	11	0	10.7855	1.68011e-05
2	1	0	1	0	0	644.92	0.517732	0.517108	0.0327106	5	0.179289	11	0	13.382	1.69149e-05
2	1	0	0	0	0	647.517	0.530715	0.530158	0.0361079	5	0.17938	11	0	15.9785	1.91429e-05
2	1	0	1	0	0	650.113	0.543697	0.543093	0.0422316	5	0.17948	11	0	18.575	2.29357e-05
2	1	0	1	0	0	652.71	0.55668	0.556079	0.0489099	5	0.179596	11	0	21.1715	2.71978e-05
2	1	0	1	0	0	655.306	0.569662	0.569066	0.0637225	5	0.179742	11	0	23.768	3.62623e-05
2	1	0	1	0	0	657.903	0.582645	0.582071	0.0934748	5	0.179943	11	0	26.3646	5.4409e-05
2	1	0	1	0	0	660.499	0.595628	0.595071	0.139549	5	0.18024	11	0	28.9611	8.30417e-05
2	1	0	1	0	0	663.096	0.60861	0.607993	0.217411	5	0.180697	11	0	31.5576	0.000132184
2	1	0	0	0	0	665.692	0.621593	0.620989	0.343464	5	0.181415	11	0	34.1541	0.000213287
2	1	0	1	0	0	668.289	0.634575	0.63401	0.52618	5	0.18253	11	0	36.7506	0.000333604
2	1	0	1	0	0	670.885	0.647558	0.646924	0.77474	5	0.184207	11	0	39.3471	0.000501198
2	1	0	1	0	0	673.482	0.66054	0.659921	1.09405	5	0.186622	11	0	41.9436	0.000721988
2	1	0	0	0	0	676.078	0.673523	0.672981	1.4716	5	0.189938	11	0	44.5401	0.00099036
2	1	0	1	0	0	678.675	0.686505	0.685898	1.89946	5	0.194314	11	0	47.1366	0.00130284
2	1	0	1	0	0	681.271	0.699488	0.698909	2.36	5	0.199847	11	0	49.7332	0.00164942
2	1	0	0	0	0	683.631	0.688703	0.688134	1.94501	5	0.204946	11	0	52.0925	0.00133843
2	1	0	1	0	0	686.227	0.67572	0.675121	1.49827	5	0.2094	11	0	54.689	0.00101151
2	1	0	1	0	0	688.824	0.662737	0.662128	1.11061	5	0.212775	11	0	57.2856	0.000735362
2	1	0	0	0	0	691.42	0.649755	0.649165	0.780143	5	0.215212	11	0	59.8821	0.000506442
2	1	0	1	0	0	694.017	0.636772	0.636193	0.518963	5	0.216878	11	0	62.4786	0.00033016
2	1	0	1	0	0	696.613	0.62379	0.623173	0.322885	5	0.217956	11	0	65.0751	0.000201213
2	1	0	1	0	0	699.21	0.610807	0.610199	0.188586	5	0.218608	11	0	67.6716	0.000115075
2	1	0	0	0	0	701.806	0.597825	0.597227	0.103448	5	0.218976	11	0	70.2681	6.17819e-05
2	1	0	1	0	0	704.403	0.584842	0.584242	0.0479176	5	0.219165	11	0	72.8646	2.79954e-05
2	1	0	1	0	0	706.999	0.571859	0.571272	0.0163281	5	0.219247	11	0	75.4612	9.32779e-06
2	1	0	1	0	0	709.596	0.558877	0.558258	0.000395518	5	0.219267	11	0	0.000000000000000E+000	2.20801e-07
2	0	0	1	0	0	712.192	0.545894	0.545319	-0.0107574	5	0.21925	11	0	2.4967	-5.86623e-06
2	0	0	1	0	0	714.789	0.532912	0.532337	-0.0188298	5	0.219211	11	0	5.0932	-1.00238e-05
2	0	0	1	0	0	717.385	0.519929	0.519347	-0.0217429	5	0.21916	11	0	7.6897	-1.12921e-05
2	0	0	0	0	0	719.982	0.506947	0.506351	-0.0226585	5	0.2191	11	0	10.2862	-1.14732e-05
2	0	0	1	0	0	722.578	0.493964	0.49333	-0.0263584	5	0.219035	11	0	12.8827	-1.30034e-05
2	0	0	1	0	0	725.175	0.480982	0.480356	-0.0291095	5	0.218965	11	0	15.4792	-1.39829e-05
2	0	0	1	0	0	727.771	0.467999	0.467405	-0.0286788	5	0.218891	11	0	18.0757	-1.34046e-05
2	0	0	0	0	0	730.368	0.455017	0.454393	-0.0298608	5	0.218812	11	0	20.6722	-1.35686e-05
2	1	0	1	0	1	732.729	0.456814	0.456207	0.0289718	6	0.218815	11	0	1.1984	1.32171e-05
2	1	0	0	0	1	735.326	0.469797	0.469187	0.0319146	6	0.218896	11	0	3.7949	1.49739e-05
2	1	0	1	0	1	737.922	0.482779	0.482179	0.0336149	6	0.218979	11	0	6.3914	1.62084e-05
2	1	0	1	0	1	740.519	0.495762	0.495137	0.0317987	6	0.219063	11	0	8.9879	1.57447e-05
2	1	0	1	0	1	743.115	0.508744	0.508146	0.0313946	6	0.219147	11	0	11.5844	1.5953e-05
2	1	0	0	0	1	745.712	0.521727	0.521113	0.0347258	6	0.219234	11	0	14.1809	1.80961e-05
2	1	0	1	0	1	748.308	0.534709	0.534095	0.0379407	6	0.219326	11	0	16.7774	2.0264e-05
2	1	0	1	0	1	750.905	0.547692	0.547071	0.0414015	6	0.219427	11	0	19.3739	2.26495e-05
2	1	0	1	0	1	753.501	0.560674	0.560099	0.0506233	6	0.219549	11	0	21.9704	2.83541e-05
2	1	0	1	0	1	756.098	0.573657	0.573047	0.0700025	6	0.219704	11	0	24.567	4.01147e-05
2	1	0	1	0	1	758.695	0.58664	0.586053	0.102079	6	0.219921	11	0	27.1635	5.98235e-05
2	1	0	1	0	1	761.291	0.599622	0.599068	0.153651	6	0.220246	11	0	29.76	9.20476e-05
2	1	0	0	0	1	763.888	0.612605	0.612023	0.240546	6	0.220751	11	0	32.3565	0.000147219
2	1	0	1	0	1	766.484	0.625587	0.625015	0.37805	6	0.221545	11	0	34.953	0.000236287
2	1	0	1	0	1	769.081	0.63857	0.637984	0.576202	6	0.222771	11	0	37.5495	0.000367608
2	1	0	1	0	1	771.677	0.651552	0.650975	0.839166	6	0.224591	11	0	40.146	0.000546276
2	1	0	1	0	1	774.274	0.664536	0.663922	1.17017	6	0.22719	11	0	42.7426	0.000776904
2	1	0	1	0	1	776.87	0.677517	0.676955	1.56103	6	0.230721	11	0	45.339	0.00105674
2	1	0	1	0	1	779.467	0.6905	0.689945	2.00027	6	0.235341	11	0	47.9356	0.00138007
2	1	0	1	0	1	781.826	0.69769	0.697096	2.249	6	0.240529	11	0	50.295	0.00156777
2	1	0	1	0	1	784.423	0.684708	0.684139	1.76793	6	0.245737	11	0	52.8915	0.00120951
2	1	0	1	0	1	787.019	0.671725	0.671133	1.34121	6	0.249752	11	0	55.488	0.00090013
2	1	0	0	0	1	789.616	0.658743	0.658139	0.974193	6	0.252743	11	0	58.0845	0.000641154
2	1	0	1	0	1	792.212	0.64576	0.645151	0.668994	6	0.254862	11	0	60.681	0.000431602
2	1	0	1	0	1	794.809	0.632778	0.632228	0.434176	6	0.256279	11	0	63.2775	0.000274498
2	1	0	1	0	1	797.405	0.619795	0.619163	0.264864	6	0.257173	11	0	65.874	0.000163994
2	1	0	0	0	1	800.002	0.606813	0.606257	0.151037	6	0.257699	11	0	68.4705	9.15671e-05
2	1	0	1	0	1	802.598	0.59383	0.593222	0.0772097	6	0.257987	11	0	71.067	4.58025e-05
2	1	0	1	0	1	805.195	0.580847	0.580252	0.033779	6	0.258128	11	0	73.6636	1.96003e-05
2	1	0	0	0	1	807.791	0.567865	0.567263	0.0105521	6	0.258182	11	0	76.2601	5.98582e-06
2	1	0	1	0	1	810.388	0.554882	0.554273	-0.00440394	6	0.258185	11	0	0.9987	-2.44099e-06
2	0	0	1	0	1	812.984	0.5419	0.541286	-0.0146987	6	0.258159	11	0	3.5952	-7.95623e-06
2	0	0	1	0	1	815.581	0.528917	0.528367	-0.0197456	6	0.258116	11	0	6.1917	-1.04329e-05
2	0	0	0	0	1	818.177	0.515935	0.515304	-0.0212276	6	0.258062	11	0	8.7882	-1.09387e-05
2	0	0	1	0	1	820.774	0.502952	0.502355	-0.0238746	6	0.258001	11	0	11.3847	-1.19935e-05
2	0	0	1	0	1	823.37	0.48997	0.489353	-0.0273499	6	0.257935	11	0	13.9812	-1.33838e-05
2	0	0	1	0	1	825.967	0.476987	0.476352	-0.0285585	6	0.257865	11	0	16.5777	-1.36039e-05
2	0	0	1	0	1	828.563	0.464004	0.463385	-0.0281695	6	0.25779	11	0	19.1743	-1.30533e-05
2	0	0	1	0	1	831.16	0.451022	0.450423	-0.0300802	6	0.257712	11	0	21.7708	-1.35488e-05
2	1	0	0	0	0	833.521	0.460809	0.460157	0.0295389	7	0.257763	11	0	1.9973	1.35925e-05
2	1	0	1	0	0	836.118	0.473791	0.473177	0.0322638	7	0.257845	11	0	4.5938	1.52665e-05
2	1	0	1	0	0	838.714	0.486774	0.486155	0.0330174	7	0.257928	11	0	7.1903	1.60516e-05
2	1	0	1	0	0	841.311	0.499756	0.499153	0.0310561	7	0.258011	11	0	9.7868	1.55017e-05
2	1	0	0	0	0	843.907	0.512739	0.512153	0.0316524	7	0.258095	11	0	12.3833	1.62109e-05
2	1	0	1	0	0	846.504	0.525721	0.52514	0.0352827	7	0.258182	11	0	14.9798	1.85283e-05
2	1	0	1	0	0	849.1	0.538704	0.538108	0.0388766	7	0.258275	11	0	17.5764	2.09198e-05
2	1	0	0	0	0	851.697	0.551687	0.551136	0.0425886	7	0.25838	11	0	20.1729	2.34721e-05
2	1	0	1	0	0	854.293	0.564669	0.564053	0.0537566	7	0.258506	11	0	22.7694	3.03216e-05
2	1	0	1	0	0	856.89	0.577652	0.577053	0.0755889	7	0.258672	11	0	25.3659	4.36188e-05
2	1	0	1	0	0	859.486	0.590634	0.590044	0.110256	7	0.258907	11	0	27.9624	6.5056e-05
2	1	0	0	0	0	862.083	0.603617	0.603046	0.167851	7	0.259263	11	0	30.5589	0.000101222
2	1	0	1	0	0	864.679	0.616599	0.616016	0.265372	7	0.259819	11	0	33.1554	0.000163473
2	1	0	1	0	0	867.276	0.629582	0.628971	0.415057	7	0.26069	11	0	35.7519	0.000261059
2	1	0	1	0	0	869.872	0.642564	0.641981	0.625849	7	0.262026	11	0	38.3484	0.000401783
2	1	0	1	0	0	872.469	0.655547	0.654905	0.901536	7	0.263997	11	0	40.945	0.00059042
2	1	0	1	0	0	875.066	0.66853	0.667957	1.24779	7	0.266772	11	0	43.5415	0.000833468
2	1	0	1	0	0	877.662	0.681512	0.680929	1.64538	7	0.270518	11	0	46.138	0.00112039
2	1	0	0	0	0	880.259	0.694495	0.69384	2.08383	7	0.275349	11	0	48.7345	0.00144585
2	1	0	1	0	0	882.618	0.693696	0.693095	2.04461	7	0.280477	11	0	51.0939	0.00141711
2	1	0	1	0	0	885.214	0.680713	0.680065	1.58477	7	0.28517	11	0	53.6904	0.00107774
2	1	0	0	0	0	887.811	0.667731	0.66713	1.17993	7	0.288739	11	0	56.2869	0.000787166
2	1	0	1	0	0	890.407	0.654748	0.654152	0.838856	7	0.291341	11	0	58.8834	0.00054874
2	1	0	1	0	0	893.004	0.641766	0.641169	0.564323	7	0.293151	11	0	61.4799	0.000361826
2	1	0	1	0	0	895.6	0.628783	0.628229	0.356787	7	0.294332	11	0	64.0764	0.000224144
2	1	0	1	0	0	898.197	0.6158	0.615186	0.213269	7	0.295058	11	0	66.673	0.0001312
2	1	0	1	0	0	900.794	0.602818	0.602181	0.117379	7	0.295474	11	0	69.2695	7.06834e-05
2	1	0	1	0	0	903.39	0.589835	0.58926	0.0569751	7	0.295694	11	0	71.866	3.35732e-05
2	1	0	0	0	0	905.987	0.576853	0.576216	0.0222792	7	0.295795	11	0	74.4625	1.28376e-05
2	1	0	1	0	0	908.583	0.56387	0.563237	0.0035379	7	0.295826	11	0	77.059	1.99268e-06
2	0	0	1	0	0	911.18	0.550888	0.550278	-0.00795539	7	0.295816	11	0	1.8975	-4.37768e-06
2	0	0	1	0	0	913.776	0.537905	0.537303	-0.016374	7	0.295783	11	0	4.494	-8.79782e-06
2	0	0	0	0	0	916.373	0.524923	0.524318	-0.0214421	7	0.295735	11	0	7.0905	-1.12425e-05
2	0	0	1	0	0	918.969	0.51194	0.511323	-0.0224281	7	0.295679	11	0	9.687	-1.1468e-05
2	0	0	1	0	0	921.566	0.498957	0.49832	-0.0234108	7	0.295617	11	0	12.2836	-1.1666e-05
2	0	0	0	0	0	924.162	0.485975	0.485369	-0.0263862	7	0.29555	11	0	14.8801	-1.28071e-05
2	0	0	1	0	0	926.759	0.472992	0.472388	-0.0293967	7	0.295479	11	0	17.4766	-1.38866e-05
2	0	0	1	0	0	929.355	0.46001	0.459372	-0.0297693	7	0.295404	11	0	20.0731	-1.36752e-05
2	1	0	0	0	1	931.717	0.451821	0.451204	0.0261289	8	0.295349	11	0	0.1997	1.17895e-05
2	1	0	1	0	1	934.313	0.464803	0.464194	0.0301165	8	0.295426	11	0	2.7962	1.39799e-05
2	1	0	1	0	1	936.91	0.477786	0.477171	0.0311167	8	0.295508	11	0	5.3927	1.4848e-05
2	1	0	1	0	1	939.506	0.490768	0.490171	0.0332671	8	0.295591	11	0	7.9892	1.63065e-05
2	1	0	1	0	1	942.103	0.503752	0.503173	0.0325401	8	0.295674	11	0	10.5858	1.63733e-05
2	1	0	1	0	1	944.699	0.516733	0.516135	0.0314577	8	0.295758	11	0	13.1822	1.62364e-05
2	1	0	1	0	1	947.296	0.529716	0.529116	0.0344089	8	0.295846	11	0	15.7788	1.82063e-05
2	1	0	0	0	1	949.892	0.542699	0.542067	0.0395434	8	0.29594	11	0	18.3753	2.14352e-05
2	1	0	1	0	1	952.489	0.555681	0.555073	0.0449607	8	0.296048	11	0	20.9718	2.49565e-05
2	1	0	1	0	1	955.085	0.568664	0.568044	0.0562615	8	0.29618	11	0	23.5683	3.1959e-05
2	1	0	1	0	1	957.682	0.581646	0.581018	0.0806632	8	0.296357	11	0	26.1648	4.68668e-05
2	1	0	0	0	1	960.278	0.594629	0.593992	0.1203	8	0.29661	11	0	28.7613	7.14569e-05
2	1	0	1	0	1	962.875	0.607611	0.607017	0.18388	8	0.296998	11	0	31.3578	0.000111619
2	1	0	1	0	1	965.471	0.620594	0.61996	0.290163	8	0.297607	11	0	33.9544	0.00017989
2	1	0	0	0	1	968.068	0.633577	0.632945	0.450387	8	0.298556	11	0	36.5509	0.00028507
2	1	0	1	0	1	970.664	0.646559	0.64596	0.671494	8	0.299998	11	0	39.1474	0.000433758
2	1	0	1	0	1	973.261	0.659542	0.658945	0.958179	8	0.302103	11	0	41.7439	0.000631387
2	1	0	1	0	1	975.857	0.672524	0.671942	1.31027	8	0.305039	11	0	44.3404	0.000880426
2	1	0	0	0	1	978.454	0.685507	0.684904	1.70553	8	0.308954	11	0	46.9369	0.00116813
2	1	0	1	0	1	981.05	0.698489	0.697881	2.17506	8	0.313988	11	0	49.5334	0.00151793
2	1	0	1	0	1	983.41	0.689701	0.689083	1.83177	8	0.31881	11	0	51.8928	0.00126224
2	1	0	0	0	1	986.006	0.676719	0.676103	1.39756	8	0.322986	11	0	54.4893	0.000944894
2	1	0	1	0	1	988.603	0.663736	0.663108	1.0242	8	0.326115	11	0	57.0858	0.000679153
2	1	0	1	0	1	991.199	0.650754	0.65016	0.718338	8	0.328369	11	0	59.6823	0.000467035
2	1	0	1	0	1	993.796	0.637771	0.637207	0.470262	8	0.329896	11	0	62.2788	0.000299654
2	1	0	1	0	1	996.392	0.624788	0.624174	0.28797	8	0.330869	11	0	64.8754	0.000179743
2	1	0	1	0	1	998.989	0.611806	0.611168	0.1664	8	0.331449	11	0	67.4719	0.000101698
2	1	0	1	0	1	1001.59	0.598823	0.598243	0.0898531	8	0.331771	11	0	70.0684	5.3754e-05
2	1	0	0	0	1	1004.18	0.585841	0.585203	0.0404538	8	0.331934	11	0	72.6649	2.36737e-05
2	1	0	1	0	1	1006.78	0.572858	0.572272	0.0128102	8	0.332002	11	0	75.2614	7.33094e-06
2	1	0	1	0	1	1009.37	0.559876	0.559308	-0.00123629	8	0.332014	11	0	0.1997	-6.91468e-07
2	0	0	1	0	1	1011.97	0.546893	0.546258	-0.0116596	8	0.331994	11	0	2.7962	-6.36914e-06
2	0	0	1	0	1	1014.57	0.53391	0.533303	-0.0189465	8	0.331955	11	0	5.3928	-1.01042e-05
2	0	0	1	0	1	1017.16	0.520928	0.520336	-0.0207239	8	0.331904	11	0	7.9893	-1.07834e-05
2	0	0	1	0	1	1019.76	0.507945	0.507326	-0.0224492	8	0.331846	11	0	10.5858	-1.1389e-05
2	0	0	0	0	1	1022.36	0.494963	0.494343	-0.0262064	8	0.331782	11	0	13.1823	-1.2955e-05
2	0	0	1	0	1	1024.95	0.48198	0.481377	-0.0271412	8	0.331715	11	0	15.7788	-1.30651e-05
2	0	0	1	0	1	1027.55	0.468998	0.468362	-0.0266787	8	0.331644	11	0	18.3753	-1.24953e-05
2	0	0	1	0	1	1030.15	0.456015	0.455409	-0.0295771	8	0.331569	11	0	20.9718	-1.34697e-05
2	1	0	1	0	0	1032.51	0.455815	0.455195	0.0289944	9	0.33156	11	0	0.9986	1.31981e-05
2	1	0	1	0	0	1035.11	0.468798	0.468158	0.0325897	9	0.33164	11	0	3.5952	1.52571e-05
2	1	0	1	0	0	1037.7	0.48178	0.481195	0.0314401	9	0.331722	11	0	6.1916	1.51288e-05
2	1	0	1	0	0	1040.3	0.494764	0.494117	0.0302015	9	0.331804	11	0	8.7882	1.49231e-05
2	1	0	1	0	0	1042.89	0.507746	0.507137	0.0325544	9	0.331887	11	0	11.3847	1.65096e-05
2	1	0	1	0	0	1045.49	0.520728	0.520117	0.03385	9	0.331971	11	0	13.9812	1.7606e-05
2	1	0	0	0	0	1048.09	0.533711	0.533103	0.0342324	9	0.332059	11	0	16.5777	1.82494e-05
2	1	0	1	0	0	1050.68	0.546693	0.546041	0.0383934	9	0.332155	11	0	19.1742	2.09643e-05
2	1	0	1	0	0	1053.28	0.559676	0.55906	0.0473887	9	0.332267	11	0	21.7707	2.64931e-05
2	1	0	1	0	0	1055.88	0.572658	0.572038	0.0621638	9	0.332405	11	0	24.3672	3.55601e-05
2	1	0	1	0	0	1058.47	0.585641	0.585014	0.0860056	9	0.332593	11	0	26.9638	5.03145e-05
2	1	0	1	0	0	1061.07	0.598623	0.598023	0.127814	9	0.332867	11	0	29.5602	7.64358e-05
2	1	0	1	0	0	1063.67	0.611607	0.610983	0.200836	9	0.333289	11	0	32.1568	0.000122707
2	1	0	0	0	0	1066.26	0.624589	0.623985	0.316819	9	0.333951	11	0	34.7533	0.000197691
2	1	0	1	0	0	1068.86	0.637571	0.637011	0.488233	9	0.334983	11	0	37.3498	0.00031101
2	1	0	1	0	0	1071.46	0.650554	0.649929	0.722242	9	0.336539	11	0	39.9463	0.000469406
2	1	0	1	0	0	1074.05	0.663536	0.662944	1.02381	9	0.338792	11	0	42.5428	0.00067873
2	1	0	0	0	0	1076.65	0.676519	0.675901	1.38099	9	0.341904	11	0	45.1393	0.000933411
2	1	0	1	0	0	1079.25	0.689501	0.688908	1.79646	9	0.346025	11	0	47.7358	0.00123759
2	1	0	1	0	0	1081.61	0.698689	0.69803	2.09054	9	0.350718	11	0	50.0952	0.00145926
2	1	0	0	0	0	1084.2	0.685707	0.685052	1.64299	9	0.35555	11	0	52.6917	0.00112553
2	1	0	1	0	0	1086.8	0.672725	0.67206	1.23609	9	0.359273	11	0	55.2882	0.000830729
2	1	0	1	0	0	1089.39	0.659741	0.659143	0.886982	9	0.362014	11	0	57.8848	0.000584648
2	1	0	0	0	0	1091.99	0.646759	0.646174	0.602582	9	0.363937	11	0	60.4813	0.000389373
2	1	0	1	0	0	1094.59	0.633776	0.633139	0.387659	9	0.365211	11	0	63.0778	0.000245442
2	1	0	1	0	0	1097.18	0.620794	0.620176	0.232732	9	0.366	11	0	65.6743	0.000144335
2	1	0	1	0	0	1099.78	0.607811	0.607218	0.12953	9	0.366458	11	0	68.2708	7.86533e-05
2	1	0	0	0	0	1102.38	0.594829	0.594182	0.0647375	9	0.366706	11	0	70.8673	3.84658e-05
2	1	0	1	0	0	1104.97	0.581846	0.581213	0.0287967	9	0.366823	11	0	73.4638	1.6737e-05
2	1	0	1	0	0	1107.57	0.568864	0.568238	0.00693231	9	0.366864	11	0	76.0603	3.9392e-06
2	0	0	1	0	0	1110.17	0.555881	0.55525	-0.00802129	9	0.366861	11	0	1.4979	-4.45382e-06
2	0	0	1	0	0	1112.76	0.542898	0.542242	-0.0153411	9	0.366832	11	0	4.0945	-8.3186e-06
2	0	0	1	0	0	1115.36	0.529916	0.529317	-0.0176107	9	0.366789	11	0	6.691	-9.32163e-06
2	0	0	1	0	0	1117.96	0.516933	0.51635	-0.0210673	9	0.366735	11	0	9.2875	-1.08781e-05
2	0	0	0	0	0	1120.55	0.503951	0.503322	-0.0250047	9	0.366676	11	0	11.884	-1.25854e-05
2	0	0	1	0	0	1123.15	0.490968	0.490368	-0.0251251	9	0.366612	11	0	14.4805	-1.23205e-05
2	0	0	1	0	0	1125.75	0.477986	0.477392	-0.0251554	9	0.366544	11	0	17.077	-1.2009e-05
2	0	0	1	0	0	1128.34	0.465003	0.46436	-0.0284403	9	0.366473	11	0	19.6735	-1.32065e-05
2	0	0	0	0	0	1130.94	0.452021	0.451379	-0.0313407	9	0.366397	11	0	22.27	-1.41465e-05
2	1	0	1	0	1	1133.3	0.45981	0.459179	0.0313241	10	0.366436	11	0	1.7976	1.43834e-05
2	1	0	0	0	1	1135.9	0.472793	0.472174	0.0318428	10	0.366517	11	0	4.3941	1.50354e-05
2	1	0	1	0	1	1138.49	0.485775	0.48511	0.0301796	10	0.366598	11	0	6.9906	1.46404e-05
2	1	0	1	0	1	1141.09	0.498758	0.498156	0.0313924	10	0.36668	11	0	9.5871	1.56383e-05
2	1	0	1	0	1	1143.69	0.51174	0.511129	0.0333863	10	0.366763	11	0	12.1836	1.70647e-05
2	1	0	0	0	1	1146.28	0.524723	0.524128	0.0334978	10	0.366847	11	0	14.7801	1.75571e-05
2	1	0	1	0	1	1148.88	0.537705	0.537109	0.0343235	10	0.366936	11	0	17.3766	1.84355e-05
2	1	0	1	0	1	1151.48	0.550688	0.550072	0.0399506	10	0.367035	11	0	19.9731	2.19757e-05
2	1	0	1	0	1	1154.07	0.56367	0.563036	0.0501779	10	0.36715	11	0	22.5696	2.82519e-05
2	1	0	1	0	1	1156.67	0.576653	0.576024	0.0646622	10	0.367296	11	0	25.1662	3.7247e-05
2	1	0	1	0	1	1159.27	0.589636	0.589004	0.0915752	10	0.367497	11	0	27.7627	5.39381e-05
2	1	0	1	0	1	1161.86	0.602618	0.602027	0.141948	10	0.367796	11	0	30.3592	8.54567e-05
2	1	0	0	0	1	1164.46	0.615601	0.615022	0.222654	10	0.368259	11	0	32.9557	0.000136937
2	1	0	1	0	1	1167.06	0.628583	0.627967	0.345934	10	0.368986	11	0	35.5522	0.000217235
2	1	0	1	0	1	1169.65	0.641566	0.640919	0.530165	10	0.370113	11	0	38.1487	0.000339793
2	1	0	1	0	1	1172.25	0.654548	0.653919	0.782013	10	0.371801	11	0	40.7452	0.000511373
2	1	0	0	0	1	1174.84	0.667531	0.666936	1.09124	10	0.374219	11	0	43.3417	0.000727789
2	1	0	1	0	1	1177.44	0.680513	0.679875	1.4562	10	0.37752	11	0	45.9382	0.000990034
2	1	0	1	0	1	1180.04	0.693496	0.69286	1.88348	10	0.381852	11	0	48.5348	0.00130499
2	1	0	1	0	1	1182.4	0.694694	0.694086	1.90643	10	0.386572	11	0	50.8942	0.00132323
2	1	0	1	0	1	1184.99	0.681712	0.681093	1.47337	10	0.390945	11	0	53.4906	0.0010035
2	1	0	1	0	1	1187.59	0.668729	0.668111	1.0844	10	0.394251	11	0	56.0872	0.000724498
2	1	0	0	0	1	1190.19	0.655747	0.655132	0.770113	10	0.396641	11	0	58.6837	0.000504525
2	1	0	1	0	1	1192.78	0.642764	0.642172	0.507356	10	0.398284	11	0	61.2802	0.000325809
2	1	0	1	0	1	1195.38	0.629782	0.629176	0.317715	10	0.399341	11	0	63.8767	0.000199899
2	1	0	1	0	1	1197.98	0.616799	0.61619	0.186067	10	0.39998	11	0	66.4732	0.000114652
2	1	0	0	0	1	1200.57	0.603817	0.603179	0.0997387	10	0.400341	11	0	69.0697	6.01603e-05
2	1	0	1	0	1	1203.17	0.590834	0.590198	0.0477197	10	0.400529	11	0	71.6662	2.81641e-05
2	1	0	1	0	1	1205.77	0.577851	0.577203	0.0193796	10	0.400611	11	0	74.2628	1.11859e-05
2	0	0	0	0	1	1208.36	0.564869	0.564253	-0.000227783	10	0.400632	11	0	0.000000000000000E+000	-1.28527e-07
2	0	0	1	0	1	1210.96	0.551886	0.551243	-0.0111606	10	0.400618	11	0	2.3968	-6.15222e-06
2	0	0	1	0	1	1213.56	0.538904	0.538264	-0.0148586	10	0.400583	11	0	4.9933	-7.99785e-06
2	0	0	1	0	1	1216.15	0.525921	0.525273	-0.0200057	10	0.400535	11	0	7.5898	-1.05084e-05
2	0	0	0	0	1	1218.75	0.512939	0.512288	-0.0237439	10	0.40048	11	0	10.1863	-1.21637e-05
2	0	0	1	0	1	1221.34	0.499956	0.499341	-0.0237981	10	0.400419	11	0	12.7828	-1.18834e-05
2	0	0	1	0	1	1223.94	0.486974	0.486331	-0.024671	10	0.400354	11	0	15.3793	-1.19983e-05
2	0	0	1	0	1	1226.54	0.473991	0.473378	-0.0278066	10	0.400285	11	0	17.9758	-1.3163e-05
2	0	0	1	0	1	1229.13	0.461008	0.460372	-0.0294268	10	0.400213	11	0	20.5724	-1.35473e-05
2	1	0	1	0	0	1231.5	0.450822	0.450193	0.0161571	11	0.400149	11	0	0.000000000000000E+000	7.27382e-06
2	1	0	0	0	0	1234.09	0.463805	0.463203	0.0296638	11	0.400224	11	0	2.5965	1.37404e-05
2	1	0	1	0	0	1236.69	0.476787	0.476147	0.030244	11	0.400304	11	0	5.193	1.44006e-05
2	1	0	1	0	0	1239.29	0.48977	0.489151	0.0324464	11	0.400385	11	0	7.7895	1.58712e-05
2	1	0	1	0	0	1241.88	0.502752	0.502094	0.0319139	11	0.400467	11	0	10.386	1.60238e-05
2	1	0	0	0	0	1244.48	0.515735	0.515106	0.0304522	11	0.400549	11	0	12.9825	1.56861e-05
2	1	0	1	0	0	1247.08	0.528717	0.528106	0.0328676	11	0.400634	11	0	15.579	1.73576e-05
2	1	0	1	0	0	1249.67	0.5417	0.541106	0.0377948	11	0.400724	11	0	18.1756	2.0451e-05
2	1	0	0	0	0	1252.27	0.554683	0.554099	0.0423213	11	0.400824	11	0	20.7721	2.34502e-05
2	1	0	1	0	0	1254.86	0.567665	0.567054	0.0503255	11	0.400944	11	0	23.3686	2.85373e-05
2	1	0	1	0	0	1257.46	0.580648	0.580018	0.0695465	11	0.4011	11	0	25.9651	4.03382e-05
2	1	0	1	0	0	1260.06	0.59363	0.593044	0.102665	11	0.401318	11	0	28.5616	6.08848e-05
2	1	0	0	0	0	1262.65	0.606613	0.605994	0.155398	11	0.401647	11	0	31.1581	9.41702e-05
2	1	0	1	0	0	1265.25	0.619595	0.618948	0.244283	11	0.40216	11	0	33.7546	0.000151198
2	1	0	1	0	0	1267.85	0.632578	0.631958	0.384035	11	0.402965	11	0	36.3511	0.000242694
2	1	0	1	0	0	1270.44	0.64556	0.644971	0.582169	11	0.404204	11	0	38.9476	0.000375483
2	1	0	1	0	0	1273.04	0.658543	0.657896	0.841591	11	0.406045	11	0	41.5442	0.000553679
2	1	0	1	0	0	1275.64	0.671525	0.670917	1.1771	11	0.408654	11	0	44.1406	0.000789734
2	1	0	1	0	0	1278.23	0.684508	0.6839	1.55903	11	0.412188	11	0	46.7372	0.00106622
2	1	0	0	0	0	1280.83	0.697491	0.696866	1.99004	11	0.416797	11	0	49.3337	0.00138679
2	1	0	1	0	0	1283.19	0.6907	0.690085	1.72691	11	0.421335	11	0	51.6931	0.00119171
2	1	0	1	0	0	1285.79	0.677717	0.677157	1.31359	11	0.425266	11	0	54.2896	0.000889505
2	1	0	0	0	0	1288.38	0.664735	0.664102	0.95692	11	0.428201	11	0	56.8861	0.000635492
2	1	0	1	0	0	1290.98	0.651752	0.651168	0.654241	11	0.430272	11	0	59.4826	0.000426021
2	1	0	1	0	0	1293.58	0.63877	0.638129	0.426247	11	0.431658	11	0	62.0791	0.000272001
2	1	0	1	0	0	1296.17	0.625787	0.625195	0.26096	11	0.432535	11	0	64.6756	0.000163151
2	1	0	1	0	0	1298.77	0.612804	0.612211	0.148018	11	0.433056	11	0	67.2722	9.0618e-05
2	1	0	1	0	0	1301.36	0.599822	0.599193	0.0785028	11	0.433342	11	0	69.8686	4.70384e-05
2	1	0	1	0	0	1303.96	0.586839	0.586206	0.0354899	11	0.433482	11	0	72.4652	2.08044e-05
2	1	0	0	0	0	1306.56	0.573857	0.573218	0.00892054	11	0.433538	11	0	75.0617	5.11342e-06
2	1	0	1	0	0	1309.15	0.560874	0.560212	-0.00414561	11	0.433544	11	0	0.7989	-2.32242e-06
2	0	0	1	0	0	1311.75	0.547892	0.5473	-0.0119465	11	0.43352	11	0	3.3954	-6.53833e-06
2	0	0	1	0	0	1314.35	0.534909	0.534316	-0.0185148	11	0.433479	11	0	5.9919	-9.89276e-06
2	0	0	0	0	0	1316.94	0.521927	0.52128	-0.021602	11	0.433429	11	0	8.5884	-1.12607e-05
2	0	0	1	0	0	1319.54	0.508944	0.50832	-0.0217127	11	0.433372	11	0	11.1849	-1.1037e-05
2	0	0	1	0	0	1322.14	0.495961	0.495328	-0.0242611	11	0.43331	11	0	13.7815	-1.20172e-05
2	0	0	1	0	0	1324.73	0.482979	0.482369	-0.0271769	11	0.433244	11	0	16.3779	-1.31093e-05
2	0	0	1	0	0	1327.33	0.469996	0.469369	-0.0263624	11	0.433175	11	0	18.9745	-1.23737e-05
2	0	0	1	0	0	1329.93	0.457014	0.456411	-0.0282746	11	0.433102	11	0	21.571	-1.29049e-05
2	1	0	0	0	1	1332.29	0.454817	0.454179	0.0275466	12	0.433082	11	0	0.7989	1.25111e-05
2	1	0	1	0	1	1334.88	0.467799	0.467141	0.0317534	12	0.43316	11	0	3.3954	1.48333e-05
2	1	0	1	0	1	1337.48	0.480782	0.480133	0.0310695	12	0.43324	11	0	5.9919	1.49175e-05
2	1	0	1	0	1	1340.08	0.493764	0.49317	0.0298654	12	0.433321	11	0	8.5884	1.47287e-05
2	1	0	0	0	1	1342.67	0.506747	0.5061	0.0325337	12	0.433402	11	0	11.1849	1.64653e-05
2	1	0	1	0	1	1345.27	0.519729	0.51909	0.0329846	12	0.433485	11	0	13.7814	1.7122e-05
2	1	0	1	0	1	1347.87	0.532712	0.532092	0.0324772	12	0.43357	11	0	16.378	1.72809e-05
2	1	0	0	0	1	1350.46	0.545695	0.545076	0.0367754	12	0.433662	11	0	18.9745	2.00454e-05
2	1	0	1	0	1	1353.06	0.558677	0.558057	0.0447057	12	0.433766	11	0	21.571	2.49484e-05
2	1	0	1	0	1	1355.66	0.57166	0.571046	0.0549718	12	0.433892	11	0	24.1675	3.13915e-05
2	1	0	1	0	1	1358.25	0.584642	0.583977	0.074376	12	0.43406	11	0	26.764	4.34339e-05
2	1	0	0	0	1	1360.85	0.597625	0.597006	0.112391	12	0.4343	11	0	29.3605	6.70983e-05
2	1	0	1	0	1	1363.45	0.610607	0.610033	0.175325	12	0.434665	11	0	31.957	0.000106954
2	1	0	1	0	1	1366.04	0.623591	0.622951	0.272967	12	0.435236	11	0	34.5536	0.000170045
2	1	0	1	0	1	1368.64	0.636572	0.63595	0.423686	12	0.436132	11	0	37.15	0.000269443
2	1	0	1	0	1	1371.24	0.649555	0.648921	0.63955	12	0.437499	11	0	39.7466	0.000415017
2	1	0	1	0	1	1373.83	0.662538	0.661955	0.917937	12	0.439505	11	0	42.3431	0.000607633
2	1	0	1	0	1	1376.43	0.67552	0.674876	1.25816	12	0.442318	11	0	44.9396	0.000849099
2	1	0	0	0	1	1379.03	0.688503	0.687889	1.66304	12	0.446104	11	0	47.5361	0.00114398
2	1	0	1	0	1	1381.38	0.699688	0.699024	2.01921	12	0.450475	11	0	49.8955	0.00141148
2	1	0	1	0	1	1383.98	0.686705	0.686079	1.55466	12	0.455109	11	0	52.492	0.00106662
2	1	0	0	0	1	1386.58	0.673723	0.673095	1.17406	12	0.458643	11	0	55.0885	0.000790251
2	1	0	1	0	1	1389.17	0.66074	0.660098	0.83656	12	0.461234	11	0	57.685	0.000552211
2	1	0	1	0	1	1391.77	0.647758	0.647148	0.564284	12	0.463042	11	0	60.2815	0.000365176
2	1	0	1	0	1	1394.37	0.634775	0.634148	0.357608	12	0.464224	11	0	62.878	0.000226776
2	1	0	1	0	1	1396.96	0.621792	0.621121	0.214263	12	0.464953	11	0	65.4746	0.000133083
2	1	0	1	0	1	1399.56	0.60881	0.608166	0.116824	12	0.465372	11	0	68.0711	7.10487e-05
2	1	0	1	0	1	1402.16	0.595827	0.595192	0.0580758	12	0.465595	11	0	70.6676	3.45663e-05
2	1	0	0	0	1	1404.75	0.582845	0.582241	0.0254225	12	0.465699	11	0	73.2641	1.4802e-05
2	1	0	1	0	1	1407.35	0.569862	0.569282	0.00452127	12	0.465734	11	0	75.8606	2.57388e-06
2	0	0	1	0	1	1409.95	0.55688	0.556244	-0.00920499	12	0.465727	11	0	1.498	-5.12022e-06
2	0	0	1	0	1	1412.54	0.543897	0.54327	-0.014632	12	0.465697	11	0	4.0945	-7.94913e-06
2	0	0	1	0	1	1415.14	0.530914	0.530291	-0.0173215	12	0.465653	11	0	6.6911	-9.18542e-06
2	0	0	1	0	1	1417.74	0.517932	0.517292	-0.0217181	12	0.4656	11	0	9.2875	-1.12346e-05
2	0	0	1	0	1	1420.33	0.504949	0.504271	-0.0246444	12	0.465542	11	0	11.8841	-1.24274e-05
2	0	0	0	0	1	1422.93	0.491967	0.491336	-0.0243545	12	0.465479	11	0	14.4806	-1.19662e-05
2	0	0	1	0	1	1425.53	0.478984	0.47835	-0.0255767	12	0.465412	11	0	17.0771	-1.22346e-05
2	0	0	1	0	1	1428.12	0.466002	0.465356	-0.0287937	12	0.465342	11	0	19.6736	-1.33993e-05
2	0	0	1	0	1	1430.72	0.453019	0.4524	-0.0296494	12	0.465268	11	0	22.2701	-1.34134e-05
2	1	0	1	0	0	1433.08	0.458811	0.458188	0.0308742	13	0.465294	11	0	1.5978	1.41462e-05
2	1	0	1	0	0	1435.68	0.471794	0.47114	0.0298493	13	0.465373	11	0	4.1943	1.40632e-05
2	1	0	1	0	0	1438.27	0.484776	0.484152	0.0298996	13	0.465454	11	0	6.7908	1.44759e-05
2	1	0	1	0	0	1440.87	0.497759	0.497103	0.0322115	13	0.465534	11	0	9.3874	1.60124e-05
2	1	0	1	0	0	1443.47	0.510742	0.510101	0.0320706	13	0.465615	11	0	11.9839	1.63592e-05
2	1	0	1	0	0	1446.06	0.523724	0.523123	0.0311177	13	0.465698	11	0	14.5804	1.62784e-05
2	1	0	0	0	0	1448.66	0.536707	0.536084	0.0340946	13	0.465784	11	0	17.1769	1.82776e-05
2	1	0	1	0	0	1451.26	0.549689	0.549055	0.0397974	13	0.465878	11	0	19.7734	2.1851e-05
2	1	0	1	0	0	1453.85	0.562672	0.562019	0.0452427	13	0.465987	11	0	22.3699	2.54272e-05
2	1	0	1	0	0	1456.45	0.575654	0.575024	0.0583754	13	0.466121	11	0	24.9664	3.35673e-05
2	1	0	0	0	0	1459.04	0.588637	0.588055	0.0843196	13	0.466303	11	0	27.5629	4.95846e-05
2	1	0	1	0	0	1461.64	0.601619	0.601037	0.124578	13	0.466569	11	0	30.1594	7.48761e-05
2	1	0	1	0	0	1464.24	0.614602	0.614002	0.193569	13	0.466977	11	0	32.756	0.000118852
2	1	0	0	0	0	1466.83	0.627585	0.626939	0.306678	13	0.467617	11	0	35.3525	0.000192268
2	1	0	1	0	0	1469.43	0.640567	0.639966	0.473024	13	0.468615	11	0	37.949	0.000302719
2	1	0	1	0	0	1472.03	0.65355	0.652937	0.702995	13	0.470127	11	0	40.5455	0.000459012
2	1	0	1	0	0	1474.62	0.666532	0.66593	0.997672	13	0.472326	11	0	43.142	0.00066438
2	1	0	0	0	0	1477.22	0.679515	0.67889	1.36096	13	0.475371	11	0	45.7385	0.000923942
2	1	0	1	0	0	1479.82	0.692497	0.691911	1.76683	13	0.479415	11	0	48.335	0.00122249
2	1	0	1	0	0	1482.18	0.695693	0.695048	1.85047	13	0.483917	11	0	50.6944	0.00128617
2	1	0	0	0	0	1484.77	0.682711	0.682062	1.42369	13	0.488154	11	0	53.2909	0.000971047
2	1	0	1	0	0	1487.37	0.669728	0.669106	1.0499	13	0.491346	11	0	55.8874	0.000702496
2	1	0	1	0	0	1489.97	0.656745	0.65614	0.732699	13	0.493648	11	0	58.484	0.000480753
2	1	0	0	0	0	1492.56	0.643763	0.643145	0.484854	13	0.495213	11	0	61.0805	0.000311831
2	1	0	1	0	0	1495.16	0.63078	0.630184	0.299405	13	0.496215	11	0	63.677	0.00018868
2	1	0	1	0	0	1497.76	0.617798	0.617182	0.17355	13	0.49682	11	0	66.2735	0.000107112
2	1	0	1	0	0	1500.35	0.604815	0.604214	0.0950748	13	0.497159	11	0	68.87	5.74455e-05
2	1	0	0	0	0	1502.95	0.591833	0.591231	0.0445791	13	0.497333	11	0	71.4665	2.63566e-05
2	1	0	1	0	0	1505.55	0.57885	0.578205	0.014763	13	0.497408	11	0	74.063	8.53608e-06
2	1	0	1	0	0	1508.14	0.565868	0.565263	0.000101039	13	0.497425	11	0	0.000000000000000E+000	5.71137e-08
2	0	0	1	0	0	1510.74	0.552885	0.552232	-0.010477	13	0.497408	11	0	2.4966	-5.78574e-06
2	0	0	1	0	0	1513.33	0.539902	0.539258	-0.0178446	13	0.497373	11	0	5.0932	-9.62286e-06
2	0	0	1	0	0	1515.93	0.52692	0.526324	-0.0188053	13	0.497325	11	0	7.6897	-9.8977e-06
2	0	0	1	0	0	1518.53	0.513937	0.513348	-0.02189	13	0.497271	11	0	10.2862	-1.12372e-05
2	0	0	0	0	0	1521.12	0.500955	0.500365	-0.0248723	13	0.497211	11	0	12.8827	-1.24452e-05
2	0	0	1	0	0	1523.72	0.487972	0.487325	-0.0239943	13	0.497148	11	0	15.4792	-1.1693e-05
2	0	0	1	0	0	1526.32	0.47499	0.474357	-0.0264235	13	0.49708	11	0	18.0757	-1.25342e-05
2	0	0	1	0	0	1528.91	0.462007	0.461364	-0.0290823	13	0.497009	11	0	20.6722	-1.34175e-05
2	0	0	0	0	1	1531.32	0.450048	0.449442	-0.0168283	14	0.49694	11	0	23.0787	-7.56335e-06
2	1	0	1	0	1	1533.87	0.462806	0.462179	0.0298247	14	0.497008	11	0	2.3968	1.37844e-05
2	1	0	0	0	1	1536.47	0.475789	0.475185	0.029361	14	0.497088	11	0	4.9933	1.39519e-05
2	1	0	1	0	1	1539.06	0.488771	0.488156	0.031781	14	0.497168	11	0	7.5898	1.55141e-05
2	1	0	1	0	1	1541.66	0.501754	0.501116	0.0312683	14	0.497248	11	0	10.1863	1.56691e-05
2	1	0	1	0	1	1544.26	0.514736	0.514094	0.0301983	14	0.497329	11	0	12.7828	1.55248e-05
2	1	0	0	0	1	1546.85	0.527719	0.527106	0.0333457	14	0.497412	11	0	15.3793	1.75767e-05
2	1	0	1	0	1	1549.45	0.540701	0.540064	0.0358641	14	0.497499	11	0	17.9758	1.93689e-05
2	1	0	1	0	1	1552.05	0.553684	0.553046	0.0384921	14	0.497596	11	0	20.5723	2.12879e-05
2	1	0	1	0	1	1554.64	0.566666	0.566039	0.0485604	14	0.497709	11	0	23.1688	2.74871e-05
2	1	0	1	0	1	1557.24	0.579649	0.579032	0.0647791	14	0.497853	11	0	25.7654	3.75092e-05
2	1	0	1	0	1	1559.84	0.592632	0.592003	0.0904087	14	0.498052	11	0	28.3619	5.35223e-05
2	1	0	1	0	1	1562.43	0.605614	0.605019	0.139582	14	0.498347	11	0	30.9584	8.445e-05
2	1	0	0	0	1	1565.03	0.618597	0.618005	0.220318	14	0.498804	11	0	33.5549	0.000136158
2	1	0	1	0	1	1567.63	0.631579	0.630978	0.342575	14	0.499524	11	0	36.1514	0.000216157
2	1	0	1	0	1	1570.22	0.644562	0.643952	0.524633	14	0.500641	11	0	38.7479	0.000337839
2	1	0	1	0	1	1572.82	0.657544	0.656976	0.771536	14	0.502312	11	0	41.3444	0.000506881
2	1	0	0	0	1	1575.42	0.670527	0.669907	1.08412	14	0.504711	11	0	43.9409	0.000726256
2	1	0	1	0	1	1578.01	0.683509	0.682913	1.45743	14	0.508	11	0	46.5374	0.000995295
2	1	0	1	0	1	1580.61	0.696492	0.695854	1.88079	14	0.512328	11	0	49.134	0.00130876
2	1	0	0	0	1	1582.97	0.691699	0.691106	1.68828	14	0.516731	11	0	51.4933	0.00116678
2	1	0	1	0	1	1585.56	0.678716	0.678123	1.2808	14	0.520579	11	0	54.0898	0.000868542
2	1	0	1	0	1	1588.16	0.665733	0.665099	0.925767	14	0.523417	11	0	56.6864	0.000615726
2	1	0	0	0	1	1590.76	0.652751	0.652198	0.632961	14	0.525427	11	0	59.2829	0.000412816
2	1	0	1	0	1	1593.35	0.639768	0.639191	0.410149	14	0.526767	11	0	61.8794	0.000262164
2	1	0	1	0	1	1595.95	0.626786	0.626189	0.250328	14	0.527609	11	0	64.4759	0.000156753
2	1	0	1	0	1	1598.55	0.613803	0.613171	0.140213	14	0.528105	11	0	67.0724	8.59747e-05
2	1	0	0	0	1	1601.14	0.600821	0.600208	0.0731386	14	0.528376	11	0	69.6689	4.38984e-05
2	1	0	1	0	1	1603.74	0.587838	0.587215	0.033709	14	0.528508	11	0	72.2654	1.97945e-05
2	1	0	1	0	1	1606.34	0.574855	0.574215	0.00791002	14	0.52856	11	0	74.862	4.54206e-06
2	0	0	0	0	1	1608.93	0.561873	0.561274	-0.00532496	14	0.528563	11	0	0.799	-2.98876e-06
2	0	0	1	0	1	1611.53	0.54889	0.548245	-0.0113799	14	0.528539	11	0	3.3955	-6.23898e-06
2	0	0	1	0	1	1614.13	0.535908	0.535288	-0.0179153	14	0.528499	11	0	5.992	-9.58985e-06
2	0	0	1	0	1	1616.72	0.522925	0.522287	-0.0218076	14	0.528449	11	0	8.5885	-1.13898e-05
2	0	0	0	0	1	1619.32	0.509943	0.509324	-0.0212499	14	0.528393	11	0	11.185	-1.08231e-05
2	0	0	1	0	1	1621.92	0.49696	0.496339	-0.0241975	14	0.528332	11	0	13.7815	-1.20101e-05
2	0	0	1	0	1	1624.51	0.483978	0.483337	-0.0270208	14	0.528267	11	0	16.378	-1.30601e-05
2	0	0	1	0	1	1627.11	0.470995	0.470369	-0.0261511	14	0.528199	11	0	18.9745	-1.23007e-05
2	0	0	1	0	1	1629.71	0.458012	0.457406	-0.0276688	14	0.528127	11	0	21.5711	-1.26559e-05
2	1	0	1	0	0	1632.07	0.453819	0.453194	0.0266957	15	0.528096	11	0	0.5992	1.20983e-05
2	1	0	0	0	0	1634.66	0.466801	0.466195	0.0315986	15	0.528172	11	0	3.1957	1.47311e-05
2	1	0	1	0	0	1637.26	0.479783	0.479183	0.0305712	15	0.528251	11	0	5.7922	1.46492e-05
2	1	0	1	0	0	1639.86	0.492766	0.492159	0.0293106	15	0.528331	11	0	8.3887	1.44255e-05
2	1	0	1	0	0	1642.45	0.505748	0.505131	0.0316136	15	0.528411	11	0	10.9852	1.5969e-05
2	1	0	0	0	0	1645.05	0.518731	0.518115	0.0320344	15	0.528491	11	0	13.5817	1.65975e-05
2	1	0	1	0	0	1647.65	0.531713	0.531098	0.0315688	15	0.528575	11	0	16.1782	1.67661e-05
2	1	0	1	0	0	1650.24	0.544696	0.544026	0.0366298	15	0.528664	11	0	18.7748	1.99276e-05
2	1	0	1	0	0	1652.84	0.557678	0.557061	0.0422333	15	0.528764	11	0	21.3712	2.35265e-05
2	1	0	1	0	0	1655.44	0.570661	0.570087	0.0505913	15	0.528883	11	0	23.9678	2.88415e-05
2	1	0	1	0	0	1658.03	0.583644	0.582991	0.0702844	15	0.529039	11	0	26.5643	4.09751e-05
2	1	0	1	0	0	1660.63	0.596626	0.595976	0.102872	15	0.529258	11	0	29.1608	6.13093e-05
2	1	0	0	0	0	1663.23	0.609609	0.609009	0.156009	15	0.529589	11	0	31.7573	9.5011e-05
2	1	0	1	0	0	1665.82	0.622591	0.621965	0.247614	15	0.530106	11	0	34.3538	0.000154007
2	1	0	1	0	0	1668.42	0.635574	0.63496	0.386881	15	0.530918	11	0	36.9503	0.000245654
2	1	0	1	0	0	1671.01	0.648556	0.648007	0.583136	15	0.532164	11	0	39.5468	0.000377877
2	1	0	1	0	0	1673.61	0.661539	0.66091	0.851049	15	0.534017	11	0	42.1434	0.000562467
2	1	0	1	0	0	1676.21	0.674521	0.67392	1.18259	15	0.536645	11	0	44.7398	0.000796973
2	1	0	1	0	0	1678.8	0.687505	0.686913	1.5617	15	0.5402	11	0	47.3364	0.00107275
2	1	0	1	0	0	1681.3	0.700013	0.69937	1.96738	15	0.544596	11	0	49.8305	0.00137593
2	1	0	1	0	0	1683.76	0.687704	0.687142	1.54535	15	0.548895	11	0	52.2923	0.00106188
2	1	0	1	0	0	1686.36	0.674721	0.674082	1.14857	15	0.552381	11	0	54.8888	0.000774228
2	1	0	0	0	0	1688.95	0.661739	0.661113	0.816691	15	0.554919	11	0	57.4853	0.000539925
2	1	0	1	0	0	1691.55	0.648756	0.648145	0.549388	15	0.556675	11	0	60.0818	0.000356083
2	1	0	1	0	0	1694.15	0.635774	0.635181	0.347299	15	0.557827	11	0	62.6783	0.000220598
2	1	0	1	0	0	1696.74	0.622791	0.622185	0.207744	15	0.558536	11	0	65.2748	0.000129255
2	1	0	0	0	0	1699.34	0.609809	0.609239	0.114844	15	0.558943	11	0	67.8713	6.99676e-05
2	1	0	1	0	0	1701.94	0.596826	0.596196	0.0559737	15	0.559159	11	0	70.4678	3.33713e-05
2	1	0	1	0	0	1704.53	0.583843	0.583207	0.0244841	15	0.559259	11	0	73.0644	1.42793e-05
2	1	0	0	0	0	1707.13	0.570861	0.570235	0.00326178	15	0.559291	11	0	75.6609	1.85998e-06
2	0	0	1	0	0	1709.73	0.557878	0.557242	-0.00901829	15	0.559284	11	0	1.7976	-5.02537e-06
2	0	0	1	0	0	1712.32	0.544896	0.544268	-0.0134239	15	0.559253	11	0	4.3941	-7.30618e-06
2	0	0	1	0	0	1714.92	0.531913	0.531304	-0.019518	15	0.559209	11	0	6.9906	-1.037e-05
2	0	0	0	0	0	1717.51	0.518931	0.518349	-0.0219405	15	0.559157	11	0	9.5871	-1.13728e-05
2	0	0	1	0	0	1720.11	0.505948	0.505329	-0.0218797	15	0.559099	11	0	12.1836	-1.10565e-05
2	0	0	1	0	0	1722.71	0.492965	0.492317	-0.0257511	15	0.559036	11	0	14.7802	-1.26777e-05
2	0	0	1	0	0	1725.3	0.479983	0.479328	-0.0256638	15	0.558971	11	0	17.3766	-1.23014e-05
2	0	0	1	0	0	1727.9	0.467	0.466372	-0.0260799	15	0.558902	11	0	19.9732	-1.2163e-05
2	0	0	1	0	0	1730.5	0.454018	0.453401	-0.0298005	15	0.558829	11	0	22.5697	-1.35116e-05
2	0	0	1	0	0	1731.3	0.449999	0.449461	-0.0286956	15	0.558806	11	0	23.3683	-1.28976e-05