File: ACS_Catal_2026/Figures_Na_K/main_figures/data/EC/20240527_2-145_re-addition/20240527_2-145_Na_replaced_C02.mpt
EC-Lab ASCII FILE
Nb header lines : 66

Cyclic Voltammetry Advanced

Run on channel : 2 (SN 68855)
User :
CE vs. WE compliance from -10 V to 10 V
Electrode connection : standard
Potential control : Ewe
Ewe ctrl range : min = -1.00 V, max = 1.00 V
Safety Limits :
	Do not start on E overload
Acquisition started on : 05/28/2024 11:57:39.613
Loaded Setting File :  C:\Users\HZ-7000\Documents\EC-Lab\Data\Yatsuzuka\20240502_2-136_UPS_preparation\20240502_2-136_UPS_preparation_K-1.mps
Saved on :
	File : 20240527_2-145_Na_replaced_C02.mpr
	Directory : C:\Users\HZ-7000\Documents\EC-Lab\Data\Yatsuzuka\20240527_2-145_re-addition\
	Host : 192.109.209.100
Device : SP-150e (SN .003466)
Address : 192.109.209.128
EC-Lab for windows v11.50 (software)
Internet server v11.50 (firmware)
Command interpretor v11.50 (firmware)
Electrode material :
Initial state :
Electrolyte :
Comments :
Electrode surface area : 0.001 cm2
Characteristic mass : 0.001 g
Equivalent Weight : 0.000 g/eq.
Density : 0.000 g/cm3
Volume (V) : 0.001 cm3
Cycle Definition : Charge/Discharge alternance
Ei (V)              0.450
vs.                 Ref
ti (h:m:s)          0:00:10.0000
dti (s)             0.0000
dE/dt               5.000
dE/dt unit          mV/s
E1 (V)              0.700
vs.                 Ref
t1 (h:m:s)          0:00:0.0000
dt1 (s)             0.1000
Step percent        50
N                   10
E range min (V)     -1.000
E range max (V)     1.000
I Range             10 mA
I Range min         Unset
I Range max         Unset
I Range init        Unset
Bandwidth           5
E2 (V)              0.450
vs.                 Ref
t2 (h:m:s)          0:00:0.0000
dt2 (s)             0.1000
nc cycles           0
nr                  1
Reverse Scan        0
Ef (V)              0.000
vs.                 Eoc
tf (h:m:s)          0:00:0.0000
dtf (s)             0.1000

mode	ox/red	error	control changes	Ns changes	counter inc.	time/s	control/V	Ewe/V	<I>/mA	cycle number	(Q-Qo)/C	I Range	Ns	step time/s	P/W
2	0	0	1	0	0	0.000000000000000E+000	0.449949	0.449265	-0.044199	1	0.0000000E+000	11	0	0.000000000000000E+000	-1.98571e-05
2	1	0	1	0	0	0.1547	0.450722	0.450001	0.0193981	1	2.04917e-06	11	0	0.0999	8.72917e-06
2	1	0	0	0	0	0.3544	0.451721	0.450951	0.0278386	1	7.12773e-06	11	0	0.2996	1.25538e-05
2	1	0	1	0	0	0.5541	0.452719	0.451998	0.031328	1	1.29214e-05	11	0	0.4993	1.41602e-05
2	1	0	1	0	0	0.7539	0.453718	0.45298	0.0313843	1	1.88528e-05	11	0	0.6991	1.42164e-05
2	1	0	0	0	0	0.9536	0.454717	0.454006	0.030202	1	2.49297e-05	11	0	0.8988	1.37119e-05
2	1	0	1	0	0	1.1533	0.455715	0.45493	0.0295787	1	3.11477e-05	11	0	1.0985	1.34563e-05
2	1	0	1	0	0	1.3531	0.456714	0.455942	0.0301744	1	3.74354e-05	11	0	1.2983	1.37578e-05
2	1	0	0	0	0	1.5528	0.457713	0.456937	0.0323225	1	4.37167e-05	11	0	1.498	1.47694e-05
2	1	0	1	0	0	1.7525	0.458711	0.458017	0.0330791	1	4.99284e-05	11	0	1.6977	1.51508e-05
2	1	0	1	0	0	1.9523	0.45971	0.458964	0.0313422	1	5.6131e-05	11	0	1.8975	1.43849e-05
2	1	0	0	0	0	2.152	0.460709	0.459949	0.030152	1	6.24099e-05	11	0	2.0972	1.38684e-05
2	1	0	1	0	0	2.3517	0.461707	0.460934	0.030208	1	6.87654e-05	11	0	2.2969	1.39239e-05
2	1	0	1	0	0	2.5515	0.462706	0.461983	0.0316342	1	7.51225e-05	11	0	2.4967	1.46144e-05
2	1	0	0	0	0	2.7512	0.463705	0.462931	0.0332593	1	8.13966e-05	11	0	2.6964	1.53968e-05
2	1	0	1	0	0	2.9509	0.464703	0.463938	0.0322932	1	8.76231e-05	11	0	2.8961	1.4982e-05
2	1	0	1	0	0	3.1507	0.465702	0.46496	0.030892	1	9.39115e-05	11	0	3.0959	1.43635e-05
2	1	0	0	0	0	3.3504	0.466701	0.46599	0.0302682	1	0.000100266	11	0	3.2956	1.41047e-05
2	1	0	1	0	0	3.5501	0.467699	0.466971	0.031144	1	0.000106673	11	0	3.4953	1.45434e-05
2	1	0	1	0	0	3.7499	0.468698	0.468029	0.0330598	1	0.000113021	11	0	3.6951	1.5473e-05
2	1	0	0	0	0	3.9496	0.469697	0.468908	0.0330071	1	0.000119292	11	0	3.8948	1.54773e-05
2	1	0	1	0	0	4.1493	0.470695	0.470043	0.0314752	1	0.000125589	11	0	4.0945	1.47947e-05
2	1	0	1	0	0	4.3491	0.471694	0.470987	0.0303083	1	0.00013197	11	0	4.2943	1.42748e-05
2	1	0	0	0	0	4.5488	0.472693	0.471964	0.0309093	1	0.000138412	11	0	4.494	1.45881e-05
2	1	0	1	0	0	4.7485	0.473691	0.472944	0.0328703	1	0.000144789	11	0	4.6937	1.55458e-05
2	1	0	1	0	0	4.9483	0.47469	0.474081	0.0332956	1	0.000151061	11	0	4.8935	1.57848e-05
2	1	0	0	0	0	5.148	0.475689	0.474934	0.0315248	1	0.000157344	11	0	5.0932	1.49722e-05
2	1	0	1	0	0	5.3477	0.476687	0.475958	0.0302171	1	0.000163706	11	0	5.2929	1.43821e-05
2	1	0	1	0	0	5.5475	0.477686	0.476982	0.030777	1	0.000170138	11	0	5.4927	1.46801e-05
2	1	0	0	0	0	5.7472	0.478685	0.477944	0.0326838	1	0.000176528	11	0	5.6924	1.5621e-05
2	1	0	1	0	0	5.9469	0.479683	0.478906	0.0333772	1	0.000182814	11	0	5.8921	1.59846e-05
2	0	0	1	0	0	6.1467	0.480682	0.479938	0.0318482	1	0.0001891	11	0	6.0919	1.52852e-05
2	0	0	0	0	0	6.3464	0.481681	0.480997	0.0303758	1	0.000195492	11	0	6.2916	1.46107e-05
2	0	0	1	0	0	6.5461	0.482679	0.481908	0.0310092	1	0.000201926	11	0	6.4913	1.49436e-05
2	0	0	1	0	0	6.7459	0.483678	0.482937	0.0326557	1	0.000208331	11	0	6.6911	1.57707e-05
2	0	0	0	0	0	6.9456	0.484677	0.483968	0.0332856	1	0.000214634	11	0	6.8908	1.61091e-05
2	0	0	1	0	0	7.1453	0.485675	0.484898	0.0320631	1	0.000220889	11	0	7.0905	1.55474e-05
2	0	0	1	0	0	7.345	0.486674	0.485938	0.0304943	1	0.00022725	11	0	7.2902	1.48184e-05
2	0	0	0	0	0	7.5448	0.487673	0.486899	0.0308186	1	0.000233691	11	0	7.49	1.50056e-05
2	0	0	1	0	0	7.7445	0.488671	0.487926	0.0323716	1	0.000240089	11	0	7.6897	1.5795e-05
2	0	0	1	0	0	7.9442	0.48967	0.489002	0.0334479	1	0.000246423	11	0	7.8894	1.63561e-05
2	0	0	0	0	0	8.144	0.490669	0.489996	0.0326936	1	0.000252718	11	0	8.0892	1.60197e-05
2	0	0	1	0	0	8.3437	0.491667	0.490871	0.0305621	1	0.000259072	11	0	8.2889	1.5002e-05
2	0	0	1	0	0	8.5434	0.492666	0.492022	0.0304391	1	0.000265518	11	0	8.4886	1.49767e-05
2	0	0	1	0	0	8.7431	0.493664	0.492961	0.0322892	1	0.000271933	11	0	8.6883	1.59173e-05
2	0	0	1	0	0	8.9429	0.494663	0.493882	0.0334443	1	0.000278263	11	0	8.8881	1.65175e-05
2	0	0	1	0	0	9.1426	0.495662	0.494976	0.0326101	1	0.000284547	11	0	9.0878	1.61412e-05
2	0	0	1	0	0	9.3423	0.49666	0.495928	0.0304852	1	0.000290873	11	0	9.2875	1.51185e-05
2	0	0	1	0	0	9.5421	0.497659	0.496959	0.0305209	1	0.000297316	11	0	9.4873	1.51676e-05
2	0	0	1	0	0	9.7418	0.498658	0.497845	0.0321836	1	0.000303754	11	0	9.687	1.60224e-05
2	0	0	1	0	0	9.9415	0.499656	0.498883	0.0331966	1	0.000310086	11	0	9.8867	1.65612e-05
2	0	0	1	0	0	10.1413	0.500655	0.499903	0.0325452	1	0.000316369	11	0	10.0865	1.62694e-05
2	0	0	1	0	0	10.341	0.501654	0.500862	0.0309608	1	0.000322707	11	0	10.2862	1.55071e-05
2	0	0	1	0	0	10.5407	0.502652	0.501899	0.0303762	1	0.000329137	11	0	10.4859	1.52458e-05
2	0	0	1	0	0	10.7405	0.503651	0.502843	0.0318531	1	0.000335581	11	0	10.6857	1.60171e-05
2	0	0	1	0	0	10.9402	0.50465	0.503884	0.0330686	1	0.000341924	11	0	10.8854	1.66627e-05
2	0	0	1	0	0	11.1399	0.505648	0.50496	0.0327097	1	0.000348203	11	0	11.0851	1.65171e-05
2	0	0	1	0	0	11.3397	0.506648	0.505905	0.0309428	1	0.00035452	11	0	11.2849	1.56541e-05
2	0	0	1	0	0	11.5394	0.507646	0.506777	0.0299449	1	0.000360937	11	0	11.4846	1.51754e-05
2	0	0	1	0	0	11.7391	0.508644	0.507947	0.0314169	1	0.000367369	11	0	11.6843	1.59581e-05
2	0	0	1	0	0	11.9389	0.509643	0.508802	0.0331611	1	0.000373729	11	0	11.8841	1.68724e-05
2	0	0	1	0	0	12.1386	0.510642	0.509891	0.032733	1	0.000380029	11	0	12.0838	1.66903e-05
2	0	0	1	0	0	12.3383	0.51164	0.510881	0.0312848	1	0.000386348	11	0	12.2835	1.59828e-05
2	0	0	1	0	0	12.5381	0.51264	0.511878	0.030283	1	0.000392782	11	0	12.4833	1.55012e-05
2	0	0	1	0	0	12.7378	0.513638	0.512906	0.0314129	1	0.000399273	11	0	12.683	1.61119e-05
2	0	0	1	0	0	12.9375	0.514636	0.513883	0.0332362	1	0.000405659	11	0	12.8827	1.70795e-05
2	0	0	1	0	0	13.1373	0.515635	0.514909	0.0331089	1	0.000411984	11	0	13.0825	1.70481e-05
2	0	0	1	0	0	13.337	0.516634	0.515903	0.0314591	1	0.000418341	11	0	13.2822	1.62298e-05
2	0	0	1	0	0	13.5367	0.517632	0.516865	0.0303765	1	0.000424748	11	0	13.4819	1.57005e-05
2	0	0	1	0	0	13.7365	0.518632	0.517796	0.0311305	1	0.000431229	11	0	13.6817	1.61192e-05
2	0	0	1	0	0	13.9362	0.51963	0.51891	0.0332291	1	0.000437659	11	0	13.8814	1.72429e-05
2	0	0	1	0	0	14.1359	0.520628	0.519886	0.0332373	1	0.000443999	11	0	14.0811	1.72796e-05
2	0	0	1	0	0	14.3357	0.521627	0.520847	0.0317133	1	0.000450383	11	0	14.2809	1.65178e-05
2	0	0	1	0	0	14.5354	0.522626	0.521806	0.030796	1	0.000456848	11	0	14.4806	1.60695e-05
2	0	0	1	0	0	14.7351	0.523624	0.522863	0.0315568	1	0.000463396	11	0	14.6803	1.64999e-05
2	0	0	1	0	0	14.9349	0.524623	0.52387	0.0334576	1	0.000469905	11	0	14.8801	1.75274e-05
2	0	0	1	0	0	15.1346	0.525622	0.524764	0.0338154	1	0.000476323	11	0	15.0798	1.77451e-05
2	0	0	1	0	0	15.3343	0.52662	0.525896	0.0321485	1	0.00048275	11	0	15.2795	1.69068e-05
2	0	0	0	0	0	15.534	0.527619	0.526906	0.0310888	1	0.000489282	11	0	15.4792	1.63809e-05
2	0	0	1	0	0	15.7338	0.528618	0.527897	0.0315241	1	0.000495868	11	0	15.679	1.66415e-05
2	0	0	1	0	0	15.9335	0.529616	0.528877	0.0333933	1	0.000502421	11	0	15.8787	1.76609e-05
2	0	0	0	0	0	16.1332	0.530615	0.529851	0.0343136	1	0.000508887	11	0	16.0784	1.81811e-05
2	0	0	1	0	0	16.3329	0.531613	0.530827	0.0327495	1	0.000515372	11	0	16.2781	1.73843e-05
2	0	0	1	0	0	16.5327	0.532612	0.53184	0.0316114	1	0.000521972	11	0	16.4779	1.68122e-05
2	0	0	0	0	0	16.7324	0.533611	0.532912	0.0320145	1	0.000528654	11	0	16.6776	1.70609e-05
2	0	0	1	0	0	16.9321	0.534609	0.533823	0.0337734	1	0.000535319	11	0	16.8773	1.8029e-05
2	0	0	1	0	0	17.1319	0.535608	0.534927	0.0350476	1	0.000541908	11	0	17.0771	1.87479e-05
2	0	0	0	0	0	17.3316	0.536607	0.535829	0.0335208	1	0.000548501	11	0	17.2768	1.79614e-05
2	0	0	1	0	0	17.5313	0.537605	0.536909	0.0319942	1	0.000555198	11	0	17.4765	1.7178e-05
2	0	0	1	0	0	17.7311	0.538604	0.537821	0.0326493	1	0.000561985	11	0	17.6763	1.75595e-05
2	1	0	0	0	0	17.9308	0.539603	0.538958	0.0343804	1	0.000568771	11	0	17.876	1.85296e-05
2	1	0	1	0	0	18.1305	0.540601	0.539834	0.0353082	1	0.00057548	11	0	18.0757	1.90605e-05
2	0	0	1	0	0	18.3303	0.5416	0.540878	0.0343666	1	0.000582188	11	0	18.2755	1.85881e-05
2	1	0	0	0	0	18.53	0.542599	0.541875	0.0327323	1	0.000588994	11	0	18.4752	1.77368e-05
2	1	0	1	0	0	18.7297	0.543597	0.54283	0.0332579	1	0.000595892	11	0	18.6749	1.80534e-05
2	1	0	1	0	0	18.9295	0.544596	0.543836	0.0346902	1	0.000602823	11	0	18.8747	1.88658e-05
2	1	0	0	0	0	19.1292	0.545595	0.544828	0.0361578	1	0.000609712	11	0	19.0744	1.96998e-05
2	1	0	1	0	0	19.3289	0.546593	0.545848	0.0354919	1	0.000616562	11	0	19.2741	1.93732e-05
2	0	0	1	0	0	19.5287	0.547592	0.54684	0.0340259	1	0.000623527	11	0	19.4739	1.86067e-05
2	1	0	0	0	0	19.7284	0.548591	0.547951	0.0337209	1	0.000630624	11	0	19.6736	1.84774e-05
2	1	0	1	0	0	19.9281	0.549589	0.548836	0.035447	1	0.000637765	11	0	19.8733	1.94546e-05
2	1	0	1	0	0	20.1279	0.550588	0.549925	0.037311	1	0.000644857	11	0	20.0731	2.05183e-05
2	1	0	0	0	0	20.3276	0.551587	0.55082	0.0368078	1	0.000651908	11	0	20.2728	2.02745e-05
2	1	0	1	0	0	20.5273	0.552585	0.551839	0.0347762	1	0.000659039	11	0	20.4725	1.91909e-05
2	1	0	1	0	0	20.7271	0.553584	0.552867	0.0346476	1	0.00066632	11	0	20.6723	1.91555e-05
2	1	0	0	0	0	20.9268	0.554583	0.553846	0.0365321	1	0.000673656	11	0	20.872	2.02332e-05
2	1	0	1	0	0	21.1265	0.555581	0.55484	0.037962	1	0.00068095	11	0	21.0717	2.10628e-05
2	1	0	1	0	0	21.3263	0.55658	0.555828	0.0378067	1	0.000688239	11	0	21.2715	2.1014e-05
2	1	0	0	0	0	21.526	0.557579	0.556897	0.0365172	1	0.00069561	11	0	21.4712	2.03363e-05
2	1	0	1	0	0	21.7257	0.558577	0.557843	0.0362878	1	0.000703147	11	0	21.6709	2.02429e-05
2	1	0	1	0	0	21.9255	0.559577	0.558855	0.0374882	1	0.000710776	11	0	21.8707	2.09505e-05
2	1	0	0	0	0	22.1252	0.560575	0.559867	0.0394011	1	0.000718369	11	0	22.0704	2.20594e-05
2	1	0	1	0	0	22.3249	0.561573	0.560868	0.0393541	1	0.000725946	11	0	22.2701	2.20725e-05
2	1	0	1	0	0	22.5246	0.562572	0.561773	0.0384884	1	0.000733579	11	0	22.4698	2.16218e-05
2	1	0	0	0	0	22.7244	0.563571	0.562839	0.0375174	1	0.000741395	11	0	22.6696	2.11163e-05
2	1	0	1	0	0	22.9241	0.564569	0.563883	0.0387304	1	0.000749325	11	0	22.8693	2.18394e-05
2	1	0	1	0	0	23.1239	0.565568	0.564837	0.0411575	1	0.000757257	11	0	23.0691	2.32473e-05
2	1	0	0	0	0	23.3236	0.566567	0.565804	0.0416298	1	0.000765188	11	0	23.2688	2.35543e-05
2	1	0	1	0	0	23.5233	0.567565	0.566814	0.0403555	1	0.000773202	11	0	23.4685	2.2874e-05
2	1	0	1	0	0	23.723	0.568564	0.56782	0.0393148	1	0.000781377	11	0	23.6682	2.23238e-05
2	1	0	0	0	0	23.9228	0.569563	0.56889	0.0407667	1	0.000789719	11	0	23.868	2.31917e-05
2	1	0	1	0	0	24.1225	0.570561	0.569811	0.04318	1	0.000798073	11	0	24.0677	2.46045e-05
2	1	0	1	0	0	24.3222	0.57156	0.570777	0.0437319	1	0.000806426	11	0	24.2674	2.49612e-05
2	1	0	1	0	0	24.5219	0.572558	0.571821	0.0425289	1	0.000814879	11	0	24.4671	2.43189e-05
2	1	0	1	0	0	24.7217	0.573557	0.572743	0.0420633	1	0.000823513	11	0	24.6669	2.40914e-05
2	1	0	1	0	0	24.9214	0.574556	0.573728	0.0430643	1	0.000832321	11	0	24.8666	2.47072e-05
2	1	0	1	0	0	25.1211	0.575554	0.574806	0.0456199	1	0.000841182	11	0	25.0663	2.62226e-05
2	1	0	1	0	0	25.3209	0.576553	0.575732	0.0462588	1	0.000850055	11	0	25.2661	2.66327e-05
2	1	0	1	0	0	25.5206	0.577552	0.57683	0.0455973	1	0.000859044	11	0	25.4658	2.63019e-05
2	1	0	1	0	0	25.7203	0.57855	0.577768	0.0448628	1	0.000868223	11	0	25.6655	2.59203e-05
2	1	0	1	0	0	25.9201	0.579549	0.578767	0.0458484	1	0.000877621	11	0	25.8653	2.65356e-05
2	1	0	1	0	0	26.1198	0.580548	0.579793	0.048383	1	0.000887107	11	0	26.065	2.80521e-05
2	1	0	1	0	0	26.3195	0.581546	0.580784	0.0499616	1	0.000896618	11	0	26.2647	2.90169e-05
2	1	0	1	0	0	26.5193	0.582545	0.581792	0.0491639	1	0.000906266	11	0	26.4645	2.86032e-05
2	1	0	1	0	0	26.719	0.583544	0.582788	0.0483404	1	0.000916121	11	0	26.6642	2.81722e-05
2	1	0	1	0	0	26.9187	0.584542	0.583788	0.0492482	1	0.000926196	11	0	26.8639	2.87505e-05
2	1	0	1	0	0	27.1185	0.585541	0.584816	0.0517459	1	0.000936424	11	0	27.0637	3.02618e-05
2	1	0	1	0	0	27.3182	0.58654	0.58573	0.0537677	1	0.000946699	11	0	27.2634	3.14934e-05
2	1	0	1	0	0	27.5179	0.587538	0.586806	0.0531441	1	0.000957114	11	0	27.4631	3.11853e-05
2	1	0	1	0	0	27.7177	0.588537	0.587863	0.0528514	1	0.000967784	11	0	27.6629	3.10694e-05
2	1	0	1	0	0	27.9174	0.589536	0.588756	0.053723	1	0.000978733	11	0	27.8626	3.16297e-05
2	1	0	1	0	0	28.1171	0.590534	0.589799	0.056173	1	0.000989877	11	0	28.0623	3.31308e-05
2	1	0	1	0	0	28.3169	0.591534	0.590831	0.0586996	1	0.00100113	11	0	28.2621	3.46815e-05
2	1	0	1	0	0	28.5166	0.592532	0.591773	0.0586857	1	0.00101253	11	0	28.4618	3.47286e-05
2	1	0	1	0	0	28.7163	0.59353	0.592849	0.0578274	1	0.00102424	11	0	28.6615	3.42829e-05
2	1	0	1	0	0	28.9161	0.594529	0.593749	0.0590248	1	0.00103622	11	0	28.8613	3.50459e-05
2	1	0	1	0	0	29.1158	0.595528	0.594762	0.0615059	1	0.00104845	11	0	29.061	3.65813e-05
2	1	0	1	0	0	29.3155	0.596526	0.595808	0.0643843	1	0.00106084	11	0	29.2607	3.83606e-05
2	1	0	1	0	0	29.5153	0.597525	0.596763	0.0647821	1	0.00107342	11	0	29.4605	3.86596e-05
2	1	0	1	0	0	29.715	0.598524	0.597713	0.06443	1	0.00108632	11	0	29.6602	3.85106e-05
2	1	0	1	0	0	29.9147	0.599522	0.598728	0.0654721	1	0.0010996	11	0	29.8599	3.91999e-05
2	1	0	1	0	0	30.1145	0.600521	0.599786	0.0680702	1	0.00111319	11	0	30.0597	4.08275e-05
2	1	0	1	0	0	30.3142	0.60152	0.60081	0.0712525	1	0.00112701	11	0	30.2594	4.28092e-05
2	1	0	1	0	0	30.5139	0.602518	0.601732	0.0724566	1	0.00114104	11	0	30.4591	4.35994e-05
2	1	0	0	0	0	30.7136	0.603517	0.602804	0.0724618	1	0.00115544	11	0	30.6588	4.36803e-05
2	1	0	1	0	0	30.9134	0.604516	0.603825	0.0732244	1	0.00117028	11	0	30.8586	4.42147e-05
2	1	0	1	0	0	31.1131	0.605514	0.604757	0.0759877	1	0.00118547	11	0	31.0583	4.59541e-05
2	1	0	0	0	0	31.3128	0.606513	0.605822	0.0795347	1	0.00120094	11	0	31.258	4.81839e-05
2	1	0	1	0	0	31.5126	0.607512	0.606774	0.0815992	1	0.00121671	11	0	31.4578	4.95122e-05
2	1	0	1	0	0	31.7123	0.60851	0.607796	0.0815957	1	0.00123287	11	0	31.6575	4.95935e-05
2	1	0	0	0	0	31.912	0.609509	0.608764	0.0827512	1	0.00124953	11	0	31.8572	5.0376e-05
2	1	0	1	0	0	32.1118	0.610508	0.609813	0.0857482	1	0.00126666	11	0	32.057	5.22903e-05
2	1	0	1	0	0	32.3115	0.611506	0.610789	0.0897871	1	0.00128417	11	0	32.2567	5.4841e-05
2	1	0	0	0	0	32.5112	0.612505	0.611921	0.0922152	1	0.00130203	11	0	32.4564	5.64284e-05
2	1	0	1	0	0	32.7109	0.613503	0.612775	0.0930721	1	0.00132034	11	0	32.6561	5.70322e-05
2	1	0	1	0	0	32.9107	0.614502	0.613809	0.0942673	1	0.00133924	11	0	32.8559	5.78621e-05
2	1	0	0	0	0	33.1104	0.615501	0.614776	0.0973276	1	0.00135869	11	0	33.0556	5.98347e-05
2	1	0	1	0	0	33.3101	0.616499	0.61586	0.101418	1	0.00137859	11	0	33.2553	6.24591e-05
2	1	0	1	0	0	33.5099	0.617498	0.616785	0.104841	1	0.00139896	11	0	33.4551	6.46643e-05
2	1	0	0	0	0	33.7096	0.618497	0.617704	0.106718	1	0.00141983	11	0	33.6548	6.59203e-05
2	1	0	1	0	0	33.9093	0.619495	0.618691	0.107919	1	0.00144136	11	0	33.8545	6.67687e-05
2	1	0	1	0	0	34.1091	0.620494	0.61974	0.110985	1	0.00146356	11	0	34.0543	6.87821e-05
2	1	0	0	0	0	34.3088	0.621493	0.620826	0.115699	1	0.00148634	11	0	34.254	7.18292e-05
2	1	0	1	0	0	34.5085	0.622491	0.62173	0.12019	1	0.00150967	11	0	34.4537	7.47257e-05
2	1	0	1	0	0	34.7083	0.62349	0.622712	0.122499	1	0.0015336	11	0	34.6535	7.62818e-05
2	1	0	0	0	0	34.908	0.624489	0.623852	0.124096	1	0.00155827	11	0	34.8532	7.74176e-05
2	1	0	1	0	0	35.1077	0.625487	0.624823	0.127568	1	0.00158375	11	0	35.0529	7.97074e-05
2	1	0	1	0	0	35.3075	0.626486	0.625673	0.132928	1	0.00160995	11	0	35.2527	8.31693e-05
2	1	0	0	0	0	35.5072	0.627485	0.626811	0.137836	1	0.00163679	11	0	35.4524	8.63968e-05
2	1	0	1	0	0	35.7069	0.628483	0.627757	0.140967	1	0.00166435	11	0	35.6521	8.84927e-05
2	1	0	1	0	0	35.9067	0.629482	0.628691	0.143517	1	0.00169275	11	0	35.8519	9.02281e-05
2	1	0	0	0	0	36.1064	0.630481	0.629758	0.147097	1	0.00172206	11	0	36.0516	9.26354e-05
2	1	0	1	0	0	36.3061	0.631479	0.630762	0.15278	1	0.00175225	11	0	36.2513	9.63678e-05
2	1	0	1	0	0	36.5059	0.632478	0.631741	0.158469	1	0.00178323	11	0	36.4511	0.000100111
2	1	0	0	0	0	36.7056	0.633477	0.632814	0.163119	1	0.00181505	11	0	36.6508	0.000103224
2	1	0	1	0	0	36.9053	0.634475	0.633723	0.166391	1	0.00184785	11	0	36.8505	0.000105446
2	1	0	1	0	0	37.1051	0.635475	0.634752	0.170096	1	0.00188173	11	0	37.0503	0.000107968
2	1	0	0	0	0	37.3048	0.636473	0.635768	0.176094	1	0.00191663	11	0	37.25	0.000111955
2	1	0	1	0	0	37.5045	0.637471	0.63678	0.183214	1	0.0019525	11	0	37.4497	0.000116667
2	1	0	1	0	0	37.7043	0.63847	0.637702	0.188447	1	0.00198935	11	0	37.6495	0.000120173
2	1	0	0	0	0	37.904	0.639469	0.638692	0.192581	1	0.00202728	11	0	37.8492	0.000123
2	1	0	1	0	0	38.1037	0.640467	0.63976	0.196769	1	0.00206642	11	0	38.0489	0.000125885
2	1	0	1	0	0	38.3035	0.641466	0.640692	0.20356	1	0.00210682	11	0	38.2487	0.000130419
2	1	0	0	0	0	38.5032	0.642465	0.641705	0.211548	1	0.00214831	11	0	38.4484	0.000135751
2	1	0	1	0	0	38.7029	0.643463	0.642702	0.21814	1	0.00219097	11	0	38.6481	0.000140199
2	1	0	1	0	0	38.9026	0.644462	0.64368	0.223194	1	0.00223488	11	0	38.8478	0.000143666
2	1	0	0	0	0	39.1024	0.645461	0.644673	0.228514	1	0.0022802	11	0	39.0476	0.000147317
2	1	0	1	0	0	39.3021	0.646459	0.645753	0.235599	1	0.00232693	11	0	39.2473	0.000152139
2	1	0	1	0	0	39.5018	0.647458	0.646635	0.244609	1	0.002375	11	0	39.447	0.000158173
2	1	0	0	0	0	39.7016	0.648457	0.647745	0.252366	1	0.00242442	11	0	39.6468	0.000163469
2	1	0	1	0	0	39.9013	0.649455	0.648735	0.258601	1	0.00247527	11	0	39.8465	0.000167763
2	1	0	1	0	0	40.101	0.650454	0.649683	0.264845	1	0.00252767	11	0	40.0462	0.000172065
2	1	0	0	0	0	40.3008	0.651453	0.650686	0.272396	1	0.00258173	11	0	40.246	0.000177244
2	1	0	1	0	0	40.5005	0.652451	0.651729	0.282263	1	0.00263733	11	0	40.4457	0.000183959
2	1	0	1	0	0	40.7002	0.65345	0.652683	0.291779	1	0.00269445	11	0	40.6454	0.000190439
2	1	0	1	0	0	40.8999	0.654448	0.653739	0.299284	1	0.00275321	11	0	40.8451	0.000195653
2	1	0	1	0	0	41.0997	0.655447	0.654675	0.306363	1	0.00281379	11	0	41.0449	0.000200568
2	1	0	1	0	0	41.2994	0.656446	0.655649	0.314994	1	0.00287619	11	0	41.2446	0.000206526
2	1	0	1	0	0	41.4991	0.657444	0.656714	0.325596	1	0.00294042	11	0	41.4443	0.000213823
2	1	0	1	0	0	41.6989	0.658443	0.657626	0.336562	1	0.00300641	11	0	41.6441	0.000221332
2	1	0	1	0	0	41.8986	0.659442	0.658763	0.345236	1	0.00307422	11	0	41.8438	0.000227429
2	1	0	1	0	0	42.0983	0.66044	0.659692	0.353472	1	0.00314404	11	0	42.0435	0.000233182
2	1	0	1	0	0	42.2981	0.661439	0.660693	0.363072	1	0.00321596	11	0	42.2433	0.000239879
2	1	0	1	0	0	42.4978	0.662438	0.661698	0.374534	1	0.00328989	11	0	42.443	0.000247828
2	1	0	1	0	0	42.6975	0.663436	0.662647	0.386775	1	0.00336585	11	0	42.6427	0.000256296
2	1	0	1	0	0	42.8973	0.664435	0.663699	0.397309	1	0.0034439	11	0	42.8425	0.000263693
2	1	0	1	0	0	43.097	0.665434	0.664672	0.406752	1	0.00352416	11	0	43.0422	0.000270357
2	1	0	1	0	0	43.2967	0.666432	0.665622	0.417316	1	0.00360676	11	0	43.2419	0.000277775
2	1	0	1	0	0	43.4965	0.667431	0.666681	0.429884	1	0.00369173	11	0	43.4417	0.000286595
2	1	0	1	0	0	43.6962	0.66843	0.66773	0.44343	1	0.00377893	11	0	43.6414	0.000296091
2	1	0	1	0	0	43.8959	0.669428	0.668685	0.455625	1	0.00386843	11	0	43.8411	0.000304669
2	1	0	1	0	0	44.0957	0.670427	0.669691	0.466004	1	0.00396043	11	0	44.0409	0.000312079
2	1	0	1	0	0	44.2954	0.671426	0.670624	0.477897	1	0.00405496	11	0	44.2406	0.000320489
2	1	0	1	0	0	44.4951	0.672424	0.67168	0.491171	1	0.00415208	11	0	44.4403	0.00032991
2	1	0	1	0	0	44.6949	0.673423	0.672659	0.506261	1	0.00425178	11	0	44.6401	0.000340541
2	1	0	1	0	0	44.8946	0.674422	0.673743	0.519948	1	0.00435398	11	0	44.8398	0.000350311
2	1	0	1	0	0	45.0943	0.67542	0.674649	0.532025	1	0.00445889	11	0	45.0395	0.00035893
2	1	0	1	0	0	45.2941	0.676419	0.675655	0.544474	1	0.00456668	11	0	45.2393	0.000367877
2	1	0	1	0	0	45.4938	0.677418	0.676697	0.55941	1	0.0046773	11	0	45.439	0.000378551
2	1	0	1	0	0	45.6935	0.678416	0.677653	0.575547	1	0.00479071	11	0	45.6387	0.000390022
2	1	0	1	0	0	45.8933	0.679415	0.678751	0.591006	1	0.004907	11	0	45.8385	0.000401146
2	1	0	1	0	0	46.093	0.680414	0.679762	0.604109	1	0.00502616	11	0	46.0382	0.000410651
2	1	0	1	0	0	46.2927	0.681412	0.680707	0.618068	1	0.00514845	11	0	46.2379	0.000420723
2	1	0	0	0	0	46.4924	0.682411	0.681668	0.634415	1	0.00527388	11	0	46.4376	0.00043246
2	1	0	1	0	0	46.6922	0.68341	0.682799	0.651668	1	0.00540246	11	0	46.6374	0.000444958
2	1	0	1	0	0	46.8919	0.684408	0.683667	0.66856	1	0.00553408	11	0	46.8371	0.000457072
2	1	0	0	0	0	47.0916	0.685407	0.684675	0.6833	1	0.0056689	11	0	47.0368	0.000467839
2	1	0	1	0	0	47.2913	0.686405	0.685658	0.698268	1	0.00580704	11	0	47.2365	0.000478773
2	1	0	1	0	0	47.4911	0.687404	0.686608	0.714994	1	0.00594862	11	0	47.4363	0.000490921
2	1	0	0	0	0	47.6908	0.688403	0.687692	0.733226	1	0.00609343	11	0	47.636	0.000504233
2	1	0	1	0	0	47.8906	0.689402	0.688715	0.751394	1	0.00624163	11	0	47.8358	0.000517496
2	1	0	1	0	0	48.0903	0.6904	0.689722	0.768081	1	0.00639314	11	0	48.0355	0.000529762
2	1	0	0	0	0	48.29	0.691399	0.690649	0.783832	1	0.00654826	11	0	48.2352	0.000541352
2	1	0	1	0	0	48.4897	0.692397	0.691639	0.801599	1	0.00670702	11	0	48.4349	0.000554417
2	1	0	1	0	0	48.6895	0.693396	0.69271	0.821745	1	0.00686947	11	0	48.6347	0.000569231
2	1	0	0	0	0	48.8892	0.694395	0.693624	0.841673	1	0.00703548	11	0	48.8344	0.000583805
2	1	0	1	0	0	49.0889	0.695393	0.694651	0.859638	1	0.00720516	11	0	49.0341	0.000597148
2	1	0	1	0	0	49.2887	0.696392	0.695675	0.876437	1	0.00737873	11	0	49.2339	0.000609715
2	1	0	0	0	0	49.4884	0.697391	0.696655	0.895441	1	0.00755612	11	0	49.4336	0.000623814
2	1	0	1	0	0	49.6881	0.698389	0.697665	0.91674	1	0.00773737	11	0	49.6333	0.000639577
2	1	0	1	0	0	49.8879	0.699388	0.698623	0.937606	1	0.00792255	11	0	49.8331	0.000655033
2	1	0	1	0	0	50.0052	0.700013	0.699232	0.883656	1	0.00803303	11	0	49.9504	0.00061788
2	1	0	1	0	0	50.0702	0.699688	0.69889	0.932015	1	0.00809377	11	0	50.0154	0.000651376
2	1	0	1	0	0	50.2699	0.698689	0.697921	0.905627	1	0.00827727	11	0	50.2151	0.000632056
2	1	0	1	0	0	50.4697	0.69769	0.696863	0.885148	1	0.00845619	11	0	50.4149	0.000616827
2	1	0	1	0	0	50.6694	0.696692	0.695904	0.865005	1	0.00863064	11	0	50.6146	0.00060196
2	1	0	1	0	0	50.8691	0.695693	0.694975	0.843378	1	0.00880082	11	0	50.8143	0.000586126
2	1	0	1	0	0	51.0689	0.694694	0.693851	0.820981	1	0.00896704	11	0	51.0141	0.000569638
2	1	0	1	0	0	51.2686	0.693696	0.692896	0.800492	1	0.00912918	11	0	51.2138	0.000554658
2	1	0	1	0	0	51.4683	0.692697	0.691941	0.7823	1	0.00928732	11	0	51.4135	0.000541306
2	1	0	0	0	0	51.668	0.691699	0.690967	0.764272	1	0.0094415	11	0	51.6132	0.000528087
2	1	0	1	0	0	51.8678	0.6907	0.689886	0.744984	1	0.00959189	11	0	51.813	0.000513954
2	1	0	1	0	0	52.0675	0.689701	0.688895	0.724696	1	0.00973852	11	0	52.0127	0.000499239
2	1	0	0	0	0	52.2672	0.688703	0.687991	0.70577	1	0.00988159	11	0	52.2124	0.000485563
2	1	0	1	0	0	52.467	0.687704	0.686922	0.689126	1	0.0100211	11	0	52.4122	0.000473376
2	1	0	1	0	0	52.6667	0.686705	0.68594	0.673013	1	0.0101569	11	0	52.6119	0.000461647
2	1	0	0	0	0	52.8664	0.685707	0.684964	0.655412	1	0.0102891	11	0	52.8116	0.000448934
2	1	0	1	0	0	53.0662	0.684708	0.683937	0.636415	1	0.0104179	11	0	53.0114	0.000435268
2	1	0	1	0	0	53.2659	0.683709	0.683006	0.618406	1	0.0105434	11	0	53.2111	0.000422375
2	1	0	0	0	0	53.4656	0.682711	0.681956	0.60323	1	0.0106656	11	0	53.4108	0.000411376
2	1	0	1	0	0	53.6653	0.681712	0.680892	0.588366	1	0.0107844	11	0	53.6105	0.000400613
2	1	0	1	0	0	53.8651	0.680713	0.680012	0.572176	1	0.0108999	11	0	53.8103	0.000389087
2	1	0	0	0	0	54.0648	0.679715	0.678898	0.554379	1	0.0110122	11	0	54.01	0.000376367
2	1	0	1	0	0	54.2645	0.678716	0.677979	0.537724	1	0.0111214	11	0	54.2097	0.000364565
2	1	0	1	0	0	54.4643	0.677717	0.676906	0.523716	1	0.0112276	11	0	54.4095	0.000354507
2	1	0	0	0	0	54.664	0.676719	0.676019	0.510416	1	0.0113307	11	0	54.6092	0.000345051
2	1	0	1	0	0	54.8637	0.67572	0.67496	0.495637	1	0.0114307	11	0	54.8089	0.000334535
2	1	0	1	0	0	55.0635	0.674721	0.673876	0.480003	1	0.011528	11	0	55.0087	0.000323462
2	1	0	0	0	0	55.2632	0.673723	0.672974	0.464944	1	0.0116224	11	0	55.2084	0.000312895
2	1	0	1	0	0	55.4629	0.672725	0.672021	0.45207	1	0.0117142	11	0	55.4081	0.000303801
2	1	0	1	0	0	55.6627	0.671725	0.671004	0.440531	1	0.0118033	11	0	55.6079	0.000295598
2	1	0	0	0	0	55.8624	0.670727	0.669937	0.427636	1	0.0118896	11	0	55.8076	0.000286489
2	1	0	1	0	0	56.0621	0.669728	0.668946	0.414082	1	0.0119734	11	0	56.0073	0.000276999
2	1	0	1	0	0	56.2619	0.668729	0.66802	0.399774	1	0.0120548	11	0	56.2071	0.000267057
2	1	0	0	0	0	56.4616	0.667731	0.66703	0.387939	1	0.0121337	11	0	56.4068	0.000258767
2	1	0	1	0	0	56.6613	0.666732	0.665895	0.377907	1	0.0122101	11	0	56.6065	0.000251646
2	1	0	1	0	0	56.8611	0.665733	0.664984	0.366735	1	0.0122841	11	0	56.8063	0.000243873
2	1	0	0	0	0	57.0608	0.664735	0.664029	0.353509	1	0.0123557	11	0	57.006	0.00023474
2	1	0	1	0	0	57.2605	0.663736	0.662975	0.340836	1	0.0124251	11	0	57.2057	0.000225966
2	1	0	1	0	0	57.4603	0.662737	0.661991	0.330207	1	0.0124924	11	0	57.4055	0.000218594
2	1	0	0	0	0	57.66	0.661739	0.661005	0.321411	1	0.0125574	11	0	57.6052	0.000212455
2	1	0	1	0	0	57.8597	0.66074	0.66	0.311251	1	0.0126202	11	0	57.8049	0.000205426
2	1	0	1	0	0	58.0595	0.659741	0.658954	0.299351	1	0.0126809	11	0	58.0047	0.000197259
2	1	0	0	0	0	58.2592	0.658743	0.657996	0.288012	1	0.0127396	11	0	58.2044	0.000189511
2	1	0	1	0	0	58.4589	0.657744	0.65701	0.27849	1	0.0127965	11	0	58.4041	0.000182971
2	1	0	1	0	0	58.6587	0.656745	0.656003	0.270682	1	0.0128514	11	0	58.6039	0.000177568
2	1	0	0	0	0	58.8584	0.655747	0.654979	0.262267	1	0.0129043	11	0	58.8036	0.00017178
2	1	0	1	0	0	59.0581	0.654748	0.654062	0.252	1	0.0129553	11	0	59.0033	0.000164824
2	1	0	1	0	0	59.2579	0.653749	0.652977	0.241936	1	0.0130048	11	0	59.2031	0.000157979
2	1	0	0	0	0	59.4576	0.652751	0.652023	0.232942	1	0.0130524	11	0	59.4028	0.000151884
2	1	0	1	0	0	59.6573	0.651752	0.650992	0.226253	1	0.0130984	11	0	59.6025	0.000147289
2	1	0	1	0	0	59.857	0.650754	0.649941	0.219565	1	0.0131427	11	0	59.8022	0.000142704
2	1	0	0	0	0	60.0568	0.649755	0.649115	0.210717	1	0.0131853	11	0	60.002	0.00013678
2	1	0	1	0	0	60.2565	0.648756	0.647978	0.201212	1	0.0132264	11	0	60.2017	0.000130381
2	1	0	1	0	0	60.4562	0.647758	0.647015	0.193369	1	0.0132661	11	0	60.4014	0.000125113
2	1	0	0	0	0	60.656	0.646759	0.646039	0.187692	1	0.0133043	11	0	60.6012	0.000121256
2	1	0	1	0	0	60.8557	0.64576	0.645041	0.182276	1	0.013341	11	0	60.8009	0.000117576
2	1	0	1	0	0	61.0554	0.644762	0.644061	0.174545	1	0.0133762	11	0	61.0006	0.000112418
2	1	0	0	0	0	61.2552	0.643763	0.643091	0.16604	1	0.0134102	11	0	61.2004	0.000106779
2	1	0	1	0	0	61.4549	0.642764	0.642018	0.159298	1	0.0134429	11	0	61.4001	0.000102272
2	1	0	1	0	0	61.6546	0.641766	0.641031	0.154193	1	0.0134744	11	0	61.5998	9.88422e-05
2	1	0	1	0	0	61.8543	0.640767	0.639995	0.149715	1	0.0135045	11	0	61.7995	9.58165e-05
2	1	0	1	0	0	62.0541	0.639768	0.639097	0.143238	1	0.0135334	11	0	61.9993	9.15433e-05
2	1	0	1	0	0	62.2538	0.63877	0.63804	0.135784	1	0.0135612	11	0	62.199	8.66355e-05
2	1	0	1	0	0	62.4535	0.637771	0.636965	0.129725	1	0.0135879	11	0	62.3987	8.26302e-05
2	1	0	1	0	0	62.6533	0.636772	0.636028	0.125042	1	0.0136135	11	0	62.5985	7.95305e-05
2	1	0	1	0	0	62.853	0.635774	0.635057	0.121596	1	0.0136381	11	0	62.7982	7.72204e-05
2	1	0	1	0	0	63.0527	0.634775	0.634038	0.11665	1	0.0136615	11	0	62.9979	7.39603e-05
2	1	0	1	0	0	63.2525	0.633776	0.633022	0.110063	1	0.0136839	11	0	63.1977	6.9672e-05
2	1	0	1	0	0	63.4522	0.632778	0.632015	0.104153	1	0.0137055	11	0	63.3974	6.5826e-05
2	1	0	1	0	0	63.6519	0.631779	0.631028	0.10076	1	0.0137262	11	0	63.5971	6.35823e-05
2	1	0	1	0	0	63.8517	0.63078	0.630018	0.0977723	1	0.013746	11	0	63.7969	6.15983e-05
2	1	0	1	0	0	64.0514	0.629782	0.629054	0.0937486	1	0.0137648	11	0	63.9966	5.89729e-05
2	1	0	1	0	0	64.2511	0.628783	0.628043	0.0875147	1	0.0137827	11	0	64.1963	5.4963e-05
2	1	0	1	0	0	64.4509	0.627784	0.627027	0.082263	1	0.0137999	11	0	64.3961	5.15811e-05
2	1	0	1	0	0	64.6506	0.626786	0.625993	0.0792614	1	0.0138163	11	0	64.5958	4.96171e-05
2	1	0	1	0	0	64.8503	0.625787	0.625057	0.0772659	1	0.0138319	11	0	64.7955	4.82956e-05
2	1	0	1	0	0	65.0501	0.624788	0.624072	0.0740046	1	0.0138467	11	0	64.9953	4.61842e-05
2	1	0	1	0	0	65.2498	0.62379	0.623025	0.069042	1	0.0138608	11	0	65.195	4.30149e-05
2	1	0	1	0	0	65.4495	0.622791	0.621997	0.0640754	1	0.0138742	11	0	65.3947	3.98547e-05
2	1	0	1	0	0	65.6493	0.621792	0.620995	0.061753	1	0.0138871	11	0	65.5945	3.83483e-05
2	1	0	1	0	0	65.849	0.620794	0.620108	0.0603617	1	0.0138993	11	0	65.7942	3.74308e-05
2	1	0	1	0	0	66.0487	0.619795	0.619046	0.05745	1	0.0139108	11	0	65.9939	3.55642e-05
2	1	0	1	0	0	66.2485	0.618796	0.617994	0.053675	1	0.0139216	11	0	66.1937	3.31708e-05
2	1	0	1	0	0	66.4482	0.617798	0.617077	0.049037	1	0.0139319	11	0	66.3934	3.02596e-05
2	1	0	1	0	0	66.6479	0.616799	0.616027	0.0464234	1	0.0139418	11	0	66.5931	2.85981e-05
2	1	0	1	0	0	66.8477	0.6158	0.615023	0.0453812	1	0.013951	11	0	66.7929	2.79105e-05
2	1	0	1	0	0	67.0474	0.614802	0.614036	0.0437182	1	0.0139596	11	0	66.9926	2.68445e-05
2	1	0	1	0	0	67.2471	0.613803	0.613015	0.0402889	1	0.0139677	11	0	67.1923	2.46977e-05
2	1	0	1	0	0	67.4469	0.612804	0.612088	0.0361437	1	0.0139754	11	0	67.3921	2.21231e-05
2	1	0	1	0	0	67.6466	0.611806	0.611074	0.0336315	1	0.0139827	11	0	67.5918	2.05513e-05
2	1	0	1	0	0	67.8463	0.610807	0.610076	0.0333802	1	0.0139895	11	0	67.7915	2.03645e-05
2	1	0	0	0	0	68.046	0.609809	0.609141	0.0324985	1	0.0139958	11	0	67.9912	1.97962e-05
2	1	0	1	0	0	68.2458	0.60881	0.608048	0.0294041	1	0.0140016	11	0	68.191	1.78791e-05
2	1	0	1	0	0	68.4455	0.607811	0.607061	0.0253683	1	0.0140071	11	0	68.3907	1.54001e-05
2	1	0	0	0	0	68.6452	0.606813	0.606047	0.0231141	1	0.0140122	11	0	68.5904	1.40083e-05
2	1	0	1	0	0	68.845	0.605814	0.605045	0.0230283	1	0.014017	11	0	68.7902	1.39332e-05
2	1	0	1	0	0	69.0447	0.604815	0.604033	0.0223181	1	0.0140213	11	0	68.9899	1.34809e-05
2	1	0	0	0	0	69.2444	0.603817	0.603028	0.0196466	1	0.0140252	11	0	69.1896	1.18475e-05
2	1	0	1	0	0	69.4442	0.602818	0.602014	0.0162247	1	0.0140288	11	0	69.3894	9.76748e-06
2	1	0	1	0	0	69.6439	0.601819	0.601018	0.0142914	1	0.0140322	11	0	69.5891	8.58941e-06
2	1	0	0	0	0	69.8436	0.600821	0.600141	0.0142141	1	0.0140352	11	0	69.7888	8.53044e-06
2	1	0	1	0	0	70.0433	0.599822	0.599091	0.0142749	1	0.0140379	11	0	69.9885	8.55195e-06
2	1	0	1	0	0	70.2431	0.598823	0.59804	0.0119675	1	0.0140402	11	0	70.1883	7.15707e-06
2	1	0	0	0	0	70.4428	0.597825	0.597063	0.00940464	1	0.0140422	11	0	70.388	5.61516e-06
2	1	0	1	0	0	70.6425	0.596826	0.596166	0.0070958	1	0.0140441	11	0	70.5877	4.23028e-06
2	1	0	1	0	0	70.8423	0.595827	0.595029	0.00698204	1	0.0140458	11	0	70.7875	4.15451e-06
2	1	0	0	0	0	71.042	0.594829	0.594087	0.00754627	1	0.0140471	11	0	70.9872	4.48314e-06
2	1	0	1	0	0	71.2417	0.59383	0.5931	0.00587354	1	0.014048	11	0	71.1869	3.4836e-06
2	0	0	1	0	0	71.4415	0.592831	0.592044	0.00309591	1	0.0140488	11	0	71.3867	1.83291e-06
2	0	0	0	0	0	71.6412	0.591833	0.591054	0.000933194	1	0.0140495	11	0	71.5864	5.51568e-07
2	0	0	1	0	0	71.8409	0.590834	0.590078	0.000890921	1	0.0140499	11	0	71.7861	5.25713e-07
2	0	0	1	0	0	72.0407	0.589835	0.589139	0.00209769	1	0.0140501	11	0	0.000000000000000E+000	1.23583e-06
2	0	0	0	0	0	72.2404	0.588837	0.588109	0.00091668	1	0.01405	11	0	0.0999	5.39107e-07
2	0	0	1	0	0	72.4401	0.587838	0.587049	-0.00207252	1	0.0140498	11	0	0.2996	-1.21667e-06
2	0	0	1	0	0	72.6399	0.586839	0.586098	-0.00357456	1	0.0140494	11	0	0.4994	-2.09504e-06
2	0	0	0	0	0	72.8396	0.585841	0.585156	-0.00387918	1	0.0140489	11	0	0.6991	-2.26992e-06
2	0	0	1	0	0	73.0393	0.584842	0.584087	-0.00297133	1	0.0140482	11	0	0.8988	-1.73551e-06
2	0	0	1	0	0	73.2391	0.583843	0.583085	-0.0038025	1	0.0140472	11	0	1.0986	-2.21718e-06
2	0	0	0	0	0	73.4388	0.582845	0.582036	-0.00620047	1	0.014046	11	0	1.2983	-3.6089e-06
2	0	0	1	0	0	73.6385	0.581846	0.581126	-0.00809831	1	0.0140448	11	0	1.498	-4.70614e-06
2	0	0	1	0	0	73.8383	0.580847	0.580115	-0.0083306	1	0.0140434	11	0	1.6978	-4.8327e-06
2	0	0	0	0	0	74.038	0.579849	0.579116	-0.00733572	1	0.0140419	11	0	1.8975	-4.24823e-06
2	0	0	1	0	0	74.2377	0.57885	0.578124	-0.00708639	1	0.0140402	11	0	2.0972	-4.09681e-06
2	0	0	1	0	0	74.4375	0.577851	0.577131	-0.00943041	1	0.0140383	11	0	2.297	-5.44258e-06
2	0	0	0	0	0	74.6372	0.576853	0.576158	-0.0113959	1	0.0140364	11	0	2.4967	-6.56586e-06
2	0	0	1	0	0	74.8369	0.575854	0.575158	-0.0116399	1	0.0140345	11	0	2.6964	-6.69476e-06
2	0	0	1	0	0	75.0367	0.574855	0.574105	-0.0104182	1	0.0140323	11	0	2.8962	-5.98111e-06
2	0	0	0	0	0	75.2364	0.573857	0.573166	-0.0101808	1	0.01403	11	0	3.0959	-5.83527e-06
2	0	0	1	0	0	75.4361	0.572858	0.572126	-0.0119007	1	0.0140275	11	0	3.2956	-6.80872e-06
2	0	0	1	0	0	75.6359	0.571859	0.571118	-0.0142813	1	0.014025	11	0	3.4954	-8.15632e-06
2	0	0	0	0	0	75.8356	0.570861	0.570117	-0.0143609	1	0.0140225	11	0	3.6951	-8.18736e-06
2	1	0	1	0	0	76.0353	0.569862	0.569141	-0.0131085	1	0.0140198	11	0	3.8948	-7.46059e-06
2	1	0	1	0	0	76.235	0.568864	0.568139	-0.0125983	1	0.0140169	11	0	4.0945	-7.1576e-06
2	1	0	0	0	0	76.4348	0.567865	0.567068	-0.0139152	1	0.014014	11	0	4.2943	-7.89086e-06
2	0	0	1	0	0	76.6345	0.566866	0.566121	-0.0164238	1	0.014011	11	0	4.494	-9.29785e-06
2	1	0	1	0	0	76.8342	0.565868	0.565109	-0.0165033	1	0.014008	11	0	4.6937	-9.32616e-06
2	1	0	0	0	0	77.034	0.564869	0.564141	-0.0152346	1	0.014005	11	0	4.8935	-8.59446e-06
2	1	0	1	0	0	77.2337	0.56387	0.563103	-0.0147261	1	0.0140017	11	0	5.0932	-8.29231e-06
2	1	0	1	0	0	77.4334	0.562872	0.562178	-0.0157192	1	0.0139983	11	0	5.2929	-8.837e-06
2	1	0	0	0	0	77.6332	0.561873	0.561062	-0.018241	1	0.013995	11	0	5.4927	-1.02343e-05
2	1	0	1	0	0	77.8329	0.560874	0.560157	-0.0186827	1	0.0139916	11	0	5.6924	-1.04652e-05
2	1	0	1	0	0	78.0326	0.559876	0.559165	-0.0176843	1	0.0139881	11	0	5.8921	-9.88846e-06
2	1	0	1	0	0	78.2323	0.558877	0.558117	-0.0165405	1	0.0139846	11	0	6.0918	-9.23153e-06
2	1	0	1	0	0	78.4321	0.557878	0.557125	-0.0178641	1	0.0139808	11	0	6.2916	-9.95251e-06
2	1	0	1	0	0	78.6318	0.55688	0.556119	-0.0197276	1	0.0139771	11	0	6.4913	-1.09709e-05
2	1	0	1	0	0	78.8315	0.555881	0.55508	-0.0206062	1	0.0139734	11	0	6.691	-1.14381e-05
2	1	0	1	0	0	79.0313	0.554882	0.554134	-0.0187994	1	0.0139697	11	0	6.8908	-1.04174e-05
2	1	0	1	0	0	79.231	0.553884	0.553185	-0.0179776	1	0.0139658	11	0	7.0905	-9.94495e-06
2	1	0	1	0	0	79.4307	0.552885	0.552126	-0.0189765	1	0.0139618	11	0	7.2902	-1.04774e-05
2	0	0	1	0	0	79.6305	0.551886	0.551203	-0.0209232	1	0.0139577	11	0	7.49	-1.15329e-05
2	1	0	1	0	0	79.8302	0.550888	0.550094	-0.0218677	1	0.0139537	11	0	7.6897	-1.20293e-05
2	0	0	1	0	0	80.0299	0.549889	0.549116	-0.0205095	1	0.0139497	11	0	7.8894	-1.12621e-05
2	0	0	1	0	0	80.2297	0.54889	0.548152	-0.0192451	1	0.0139456	11	0	8.0892	-1.05492e-05
2	0	0	1	0	0	80.4294	0.547892	0.547189	-0.0203257	1	0.0139413	11	0	8.2889	-1.1122e-05
2	0	0	1	0	0	80.6291	0.546893	0.54609	-0.0221384	1	0.013937	11	0	8.4886	-1.20895e-05
2	0	0	1	0	0	80.8289	0.545894	0.545053	-0.0227597	1	0.0139327	11	0	8.6884	-1.24052e-05
2	0	0	1	0	0	81.0286	0.544896	0.544142	-0.0218885	1	0.0139285	11	0	8.8881	-1.19105e-05
2	0	0	1	0	0	81.2283	0.543897	0.543201	-0.020241	1	0.0139241	11	0	9.0878	-1.0995e-05
2	0	0	1	0	0	81.4281	0.542898	0.542096	-0.0211661	1	0.0139197	11	0	9.2876	-1.14741e-05
2	0	0	1	0	0	81.6278	0.5419	0.541269	-0.0225682	1	0.0139152	11	0	9.4873	-1.22155e-05
2	0	0	1	0	0	81.8275	0.540901	0.540167	-0.0238503	1	0.0139108	11	0	9.687	-1.28832e-05
2	0	0	1	0	0	82.0273	0.539902	0.539111	-0.0232556	1	0.0139063	11	0	9.8868	-1.25374e-05
2	0	0	1	0	0	82.227	0.538904	0.538112	-0.0215144	1	0.0139018	11	0	10.0865	-1.15772e-05
2	0	0	1	0	0	82.4267	0.537905	0.537119	-0.0220929	1	0.0138971	11	0	10.2862	-1.18665e-05
2	0	0	1	0	0	82.6265	0.536906	0.536235	-0.0239564	1	0.0138924	11	0	10.486	-1.28462e-05
2	0	0	1	0	0	82.8262	0.535908	0.53505	-0.0248304	1	0.0138878	11	0	10.6857	-1.32855e-05
2	0	0	1	0	0	83.0259	0.534909	0.534071	-0.0242787	1	0.0138832	11	0	10.8854	-1.29665e-05
2	0	0	1	0	0	83.2257	0.53391	0.533209	-0.02239	1	0.0138785	11	0	11.0852	-1.19386e-05
2	0	0	1	0	0	83.4254	0.532912	0.532242	-0.0224264	1	0.0138737	11	0	11.2849	-1.19363e-05
2	0	0	1	0	0	83.6251	0.531913	0.53113	-0.0243086	1	0.0138689	11	0	11.4846	-1.2911e-05
2	0	0	1	0	0	83.8249	0.530914	0.530131	-0.0255747	1	0.0138641	11	0	11.6844	-1.3558e-05
2	0	0	1	0	0	84.0246	0.529916	0.529137	-0.0248949	1	0.0138594	11	0	11.8841	-1.31728e-05
2	0	0	1	0	0	84.2243	0.528917	0.52819	-0.0232019	1	0.0138545	11	0	12.0838	-1.2255e-05
2	0	0	0	0	0	84.424	0.527919	0.527116	-0.0230946	1	0.0138496	11	0	12.2835	-1.21735e-05
2	0	0	1	0	0	84.6238	0.52692	0.526137	-0.0248975	1	0.0138446	11	0	12.4833	-1.30995e-05
2	0	0	1	0	0	84.8235	0.525921	0.525207	-0.0258651	1	0.0138397	11	0	12.683	-1.35845e-05
2	0	0	0	0	0	85.0232	0.524923	0.52415	-0.0256066	1	0.0138348	11	0	12.8827	-1.34217e-05
2	1	0	1	0	0	85.2229	0.523924	0.523142	-0.0242557	1	0.0138298	11	0	13.0824	-1.26892e-05
2	1	0	1	0	0	85.4227	0.522925	0.522194	-0.0234454	1	0.0138248	11	0	13.2822	-1.2243e-05
2	1	0	0	0	0	85.6224	0.521927	0.521207	-0.024969	1	0.0138197	11	0	13.4819	-1.3014e-05
2	1	0	1	0	0	85.8222	0.520928	0.520216	-0.0264934	1	0.0138146	11	0	13.6817	-1.37823e-05
2	1	0	1	0	0	86.0219	0.519929	0.519202	-0.0262361	1	0.0138097	11	0	13.8814	-1.36218e-05
2	1	0	0	0	0	86.2216	0.518931	0.518154	-0.0247917	1	0.0138046	11	0	14.0811	-1.28459e-05
2	1	0	1	0	0	86.4213	0.517932	0.51726	-0.0238306	1	0.0137995	11	0	14.2808	-1.23266e-05
2	1	0	1	0	0	86.6211	0.516933	0.516202	-0.0253371	1	0.0137942	11	0	14.4806	-1.3079e-05
2	1	0	0	0	0	86.8208	0.515935	0.515103	-0.0272934	1	0.0137891	11	0	14.6803	-1.40589e-05
2	1	0	1	0	0	87.0205	0.514936	0.51418	-0.027215	1	0.013784	11	0	14.88	-1.39934e-05
2	1	0	1	0	0	87.2203	0.513937	0.513224	-0.025521	1	0.0137788	11	0	15.0798	-1.3098e-05
2	1	0	0	0	0	87.42	0.512939	0.512195	-0.0247366	1	0.0137736	11	0	15.2795	-1.267e-05
2	1	0	1	0	0	87.6197	0.51194	0.511145	-0.0258248	1	0.0137683	11	0	15.4792	-1.32002e-05
2	1	0	1	0	0	87.8195	0.510941	0.510195	-0.0275836	1	0.013763	11	0	15.679	-1.4073e-05
2	1	0	0	0	0	88.0192	0.509943	0.509259	-0.0274219	1	0.0137579	11	0	15.8787	-1.39648e-05
2	1	0	1	0	0	88.2189	0.508944	0.508202	-0.0260442	1	0.0137527	11	0	16.0784	-1.32357e-05
2	1	0	1	0	0	88.4187	0.507945	0.50721	-0.0249587	1	0.0137474	11	0	16.2782	-1.26593e-05
2	1	0	0	0	0	88.6184	0.506947	0.506221	-0.0256925	1	0.013742	11	0	16.4779	-1.30061e-05
2	0	0	1	0	0	88.8181	0.505948	0.505263	-0.0275416	1	0.0137366	11	0	16.6776	-1.39158e-05
2	0	0	1	0	0	89.0179	0.504949	0.504228	-0.0283729	1	0.0137314	11	0	16.8774	-1.43064e-05
2	0	0	0	0	0	89.2176	0.503951	0.503127	-0.0266122	1	0.0137261	11	0	17.0771	-1.33893e-05
2	0	0	1	0	0	89.4173	0.502952	0.502172	-0.0252251	1	0.0137207	11	0	17.2768	-1.26673e-05
2	0	0	1	0	0	89.6171	0.501953	0.501278	-0.0258785	1	0.0137153	11	0	17.4766	-1.29723e-05
2	0	0	0	0	0	89.8168	0.500955	0.500172	-0.02769	1	0.0137099	11	0	17.6763	-1.38498e-05
2	0	0	1	0	0	90.0165	0.499956	0.499144	-0.0286675	1	0.0137045	11	0	17.876	-1.43092e-05
2	0	0	1	0	0	90.2163	0.498957	0.498302	-0.0269449	1	0.0136992	11	0	18.0758	-1.34267e-05
2	0	0	0	0	0	90.416	0.497959	0.497176	-0.025619	1	0.0136938	11	0	18.2755	-1.27371e-05
2	0	0	1	0	0	90.6157	0.49696	0.496262	-0.0262802	1	0.0136883	11	0	18.4752	-1.30419e-05
2	0	0	1	0	0	90.8155	0.495961	0.495283	-0.0277642	1	0.0136828	11	0	18.675	-1.37511e-05
2	0	0	0	0	0	91.0152	0.494963	0.494277	-0.0288222	1	0.0136773	11	0	18.8747	-1.42461e-05
2	0	0	1	0	0	91.2149	0.493964	0.493241	-0.027672	1	0.0136719	11	0	19.0744	-1.3649e-05
2	0	0	1	0	0	91.4147	0.492965	0.492157	-0.0261167	1	0.0136664	11	0	19.2742	-1.28535e-05
2	0	0	0	0	0	91.6144	0.491967	0.491268	-0.0265489	1	0.0136608	11	0	19.4739	-1.30426e-05
2	0	0	1	0	0	91.8141	0.490968	0.490289	-0.0277987	1	0.0136553	11	0	19.6736	-1.36294e-05
2	0	0	1	0	0	92.0138	0.48997	0.489199	-0.029256	1	0.0136498	11	0	19.8733	-1.4312e-05
2	0	0	0	0	0	92.2136	0.488971	0.488194	-0.0285152	1	0.0136443	11	0	20.0731	-1.39209e-05
2	0	0	1	0	0	92.4133	0.487972	0.487213	-0.0267548	1	0.0136388	11	0	20.2728	-1.30353e-05
2	0	0	1	0	0	92.613	0.486974	0.486235	-0.0268141	1	0.0136331	11	0	20.4725	-1.3038e-05
2	0	0	0	0	0	92.8128	0.485975	0.485217	-0.0281869	1	0.0136275	11	0	20.6723	-1.36767e-05
2	0	0	1	0	0	93.0125	0.484976	0.484207	-0.0296553	1	0.0136219	11	0	20.872	-1.43593e-05
2	0	0	1	0	0	93.2122	0.483978	0.483299	-0.0292075	1	0.0136164	11	0	21.0717	-1.41159e-05
2	0	0	1	0	0	93.4119	0.482979	0.482278	-0.0272864	1	0.0136108	11	0	21.2714	-1.31596e-05
2	0	0	1	0	0	93.6117	0.48198	0.481123	-0.0269293	1	0.013605	11	0	21.4712	-1.29563e-05
2	0	0	1	0	0	93.8114	0.480982	0.480336	-0.0285827	1	0.0135993	11	0	21.6709	-1.37293e-05
2	0	0	1	0	0	94.0111	0.479983	0.479209	-0.0300199	1	0.0135936	11	0	21.8706	-1.43858e-05
2	0	0	1	0	0	94.2109	0.478984	0.478183	-0.0293731	1	0.013588	11	0	22.0704	-1.40457e-05
2	0	0	1	0	0	94.4106	0.477986	0.477216	-0.0274725	1	0.0135824	11	0	22.2701	-1.31103e-05
2	0	0	1	0	0	94.6103	0.476987	0.476222	-0.0270609	1	0.0135766	11	0	22.4698	-1.2887e-05
2	0	0	1	0	0	94.8101	0.475988	0.475258	-0.0288503	1	0.0135708	11	0	22.6696	-1.37114e-05
2	0	0	1	0	0	95.0098	0.47499	0.47419	-0.0299931	1	0.013565	11	0	22.8693	-1.42224e-05
2	0	0	1	0	0	95.2095	0.473991	0.473242	-0.0298118	1	0.0135593	11	0	23.069	-1.41082e-05
2	0	0	1	0	0	95.4093	0.472992	0.472276	-0.0283767	1	0.0135536	11	0	23.2688	-1.34016e-05
2	0	0	1	0	0	95.609	0.471994	0.47128	-0.0277191	1	0.0135477	11	0	23.4685	-1.30634e-05
2	0	0	1	0	0	95.8087	0.470995	0.47019	-0.0289556	1	0.0135418	11	0	23.6682	-1.36146e-05
2	0	0	1	0	0	96.0085	0.469996	0.469231	-0.0304522	1	0.0135359	11	0	23.868	-1.42891e-05
2	1	0	1	0	0	96.2082	0.468998	0.468179	-0.0304963	1	0.0135301	11	0	24.0677	-1.42777e-05
2	1	0	1	0	0	96.4079	0.467999	0.467269	-0.0289958	1	0.0135243	11	0	24.2674	-1.35489e-05
2	1	0	1	0	0	96.6077	0.467	0.466224	-0.0277069	1	0.0135183	11	0	24.4672	-1.29176e-05
2	1	0	1	0	0	96.8074	0.466002	0.465266	-0.0291857	1	0.0135123	11	0	24.6669	-1.35791e-05
2	1	0	1	0	0	97.0071	0.465003	0.464251	-0.0309351	1	0.0135064	11	0	24.8666	-1.43617e-05
2	1	0	1	0	0	97.2069	0.464004	0.463146	-0.0308648	1	0.0135006	11	0	25.0664	-1.42949e-05
2	1	0	1	0	0	97.4066	0.463006	0.462232	-0.029546	1	0.0134946	11	0	25.2661	-1.36571e-05
2	1	0	1	0	0	97.6063	0.462007	0.461259	-0.0282681	1	0.0134886	11	0	25.4658	-1.30389e-05
2	1	0	1	0	0	97.8061	0.461008	0.460238	-0.0295781	1	0.0134825	11	0	25.6656	-1.3613e-05
2	1	0	1	0	0	98.0058	0.46001	0.459204	-0.0316667	1	0.0134765	11	0	25.8653	-1.45415e-05
2	1	0	1	0	0	98.2055	0.459011	0.458224	-0.031648	1	0.0134705	11	0	26.065	-1.45019e-05
2	1	0	1	0	0	98.4053	0.458012	0.457226	-0.0302456	1	0.0134645	11	0	26.2648	-1.3829e-05
2	1	0	1	0	0	98.605	0.457014	0.45635	-0.0289685	1	0.0134584	11	0	26.4645	-1.32198e-05
2	1	0	1	0	0	98.8047	0.456015	0.45519	-0.0297049	1	0.0134522	11	0	26.6642	-1.35214e-05
2	1	0	0	0	0	99.0044	0.455017	0.454253	-0.031701	1	0.0134461	11	0	26.8639	-1.44003e-05
2	1	0	1	0	0	99.2042	0.454018	0.45332	-0.0319349	1	0.01344	11	0	27.0637	-1.44767e-05
2	1	0	1	0	0	99.4039	0.453019	0.452316	-0.0306584	1	0.013434	11	0	27.2634	-1.38673e-05
2	0	0	0	0	0	99.6036	0.452021	0.451298	-0.0294775	1	0.0134278	11	0	27.4631	-1.33031e-05
2	0	0	1	0	0	99.8034	0.451022	0.450205	-0.0300183	1	0.0134215	11	0	27.6629	-1.35144e-05
2	0	0	0	0	0	99.9782	0.450148	0.449434	-0.0293237	1	0.013416	11	0	27.8377	-1.31791e-05
2	1	0	1	0	0	100.003	0.449999	0.449208	0.0303149	1	0.0134155	11	0	27.8623	1.36177e-05