File: ACS_Catal_2026/Figures_Na_K/main_figures/data/EC/20240321_2-125_012_CV_all_03_CVA_C01.mpt
EC-Lab ASCII FILE
Nb header lines : 66

Cyclic Voltammetry Advanced

Run on channel : 1 (SN 66412)
User :
CE vs. WE compliance from -10 V to 10 V
Electrode connection : standard
Potential control : Ewe
Ewe ctrl range : min = -2.00 V, max = 2.00 V
Safety Limits :
	Do not start on E overload
Acquisition started on : 03/22/2024 09:42:28.384
Loaded Setting File :  NONE
Saved on :
	File : 20240321_2-125_012_CV_all_03_CVA_C01.mpr
	Directory : C:\Users\NakamuraT\Documents\EC-Lab\Data\Yatsuzuka\20240321_2-125_UV-vis_Na_addition\
	Host : 192.109.209.100
Device : SP-150e (SN .003411)
Address : 192.109.209.236
EC-Lab for windows v11.50 (software)
Internet server v11.50 (firmware)
Command interpretor v11.50 (firmware)
Electrode material :
Initial state :
Electrolyte :
Comments :
Electrode surface area : 0.001 cm2
Characteristic mass : 0.001 g
Equivalent Weight : 0.000 g/eq.
Density : 0.000 g/cm3
Volume (V) : 0.001 cm3
Cycle Definition : Charge/Discharge alternance
Ei (V)              0.000
vs.                 Ref
ti (h:m:s)          0:00:10.0000
dti (s)             1.0000
dE/dt               5.000
dE/dt unit          mV/s
E1 (V)              0.700
vs.                 Ref
t1 (h:m:s)          0:00:0.0000
dt1 (s)             0.1000
Step percent        50
N                   10
E range min (V)     -2.000
E range max (V)     2.000
I Range             Auto
I Range min         Unset
I Range max         Unset
I Range init        Unset
Bandwidth           5
E2 (V)              0.000
vs.                 Ref
t2 (h:m:s)          0:00:0.0000
dt2 (s)             0.1000
nc cycles           0
nr                  1
Reverse Scan        0
Ef (V)              0.000
vs.                 Eoc
tf (h:m:s)          0:00:0.0000
dtf (s)             0.1000

mode	ox/red	error	control changes	Ns changes	counter inc.	time/s	control/V	Ewe/V	<I>/mA	cycle number	(Q-Qo)/C	I Range	Ns	step time/s	P/W
2	0	0	0	0	0	21.0002	-4.76023e-05	0.000246447	-0.0420458	1	0.0000000E+000	13	0	0.000000000000000E+000	-1.03621e-08
2	0	0	0	0	0	24.0002	-4.76023e-05	0.000322841	-0.0303928	1	-0.00010221	13	0	2	-9.81203e-09
2	0	0	0	0	0	27.0002	-4.76023e-05	0.000284644	-0.0231571	1	-0.00017815	13	0	5	-6.59153e-09
2	0	0	0	0	0	30.0002	-4.76023e-05	0.000246447	-0.0188616	1	-0.0002385	13	0	8	-4.64837e-09
2	1	0	1	0	0	30.331	0.00159781	0.00189422	0.0196384	1	-0.00023728	13	0	0.000000000000000E+000	3.71994e-08
2	1	0	1	0	0	30.931	0.00459821	0.0048131	0.0553504	1	-0.000213156	13	0	0.6	2.66407e-07
2	1	0	1	0	0	31.531	0.0075986	0.00787309	0.0719922	1	-0.000174265	13	0	1.2	5.66801e-07
2	1	0	0	0	0	32.1312	0.010599	0.0108715	0.0808694	1	-0.000128101	13	0	1.8002	8.79176e-07
2	1	0	0	0	0	32.7312	0.0135994	0.0138785	0.0862334	1	-7.78605e-05	13	0	2.4002	1.19679e-06
2	1	0	1	0	0	33.3314	0.0165998	0.0168738	0.0894838	1	-2.5053e-05	13	0	3.0004	1.50993e-06
2	1	0	1	0	0	33.9314	0.0196002	0.0198871	0.0915491	1	2.92905e-05	13	0	3.6004	1.82064e-06
2	1	0	1	0	0	34.5314	0.0226006	0.022894	0.0931227	1	8.46838e-05	13	0	4.2004	2.13195e-06
2	1	0	0	0	0	35.1316	0.025601	0.0258628	0.0946008	1	0.000141026	13	0	4.8006	2.44664e-06
2	1	0	0	0	0	35.7316	0.0286014	0.0289365	0.095869	1	0.000198182	13	0	5.4006	2.77412e-06
2	1	0	1	0	0	36.3318	0.0316018	0.0318873	0.0966932	1	0.000255967	13	0	6.0008	3.08328e-06
2	1	0	1	0	0	36.9318	0.0346022	0.0349218	0.0973541	1	0.000314117	13	0	6.6008	3.39978e-06
2	1	0	1	0	0	37.5318	0.0376026	0.0379118	0.0981107	1	0.00037272	13	0	7.2008	3.71955e-06
2	1	0	0	0	0	38.132	0.040603	0.0409113	0.0988552	1	0.000431833	13	0	7.801	4.04429e-06
2	1	0	0	0	0	38.732	0.0436034	0.04388	0.0993103	1	0.000491322	13	0	8.401	4.35774e-06
2	1	0	1	0	0	39.3322	0.0466038	0.0468944	0.0999491	1	0.000551151	13	0	9.0012	4.68705e-06
2	1	0	1	0	0	39.9322	0.0496042	0.0499066	0.100775	1	0.000611397	13	0	9.6012	5.02932e-06
2	1	0	1	0	0	40.5322	0.0526046	0.0528977	0.101495	1	0.000672046	13	0	10.2012	5.36882e-06
2	1	0	0	0	0	41.1324	0.055605	0.0558908	0.102316	1	0.000733215	13	0	10.8014	5.7185e-06
2	1	0	0	0	0	41.7324	0.0586054	0.0588797	0.102931	1	0.000794803	13	0	11.4014	6.06056e-06
2	1	0	1	0	0	42.3326	0.0616058	0.0619058	0.103816	1	0.000856843	13	0	12.0016	6.42684e-06
2	1	0	1	0	0	42.9326	0.0646062	0.0648745	0.104869	1	0.00091941	13	0	12.6016	6.80333e-06
2	1	0	1	0	0	43.5326	0.0676066	0.0678613	0.105722	1	0.00098257	13	0	13.2016	7.17445e-06
2	1	0	0	0	0	44.1328	0.070607	0.0709234	0.106553	1	0.00104627	13	0	13.8018	7.55711e-06
2	1	0	0	0	0	44.7328	0.0736074	0.0739113	0.107482	1	0.00111044	13	0	14.4018	7.94411e-06
2	1	0	1	0	0	45.373	0.0768078	0.0771018	0.108154	1	0.00117955	12	0	15.042	8.33887e-06
2	1	0	1	0	0	45.973	0.0798082	0.0800864	0.109348	1	0.00124486	12	0	15.642	8.75728e-06
2	1	0	1	0	0	46.573	0.0828086	0.0831018	0.110484	1	0.00131079	12	0	16.242	9.18142e-06
2	1	0	0	0	0	47.1732	0.085809	0.0860653	0.111234	1	0.00137725	12	0	16.8422	9.57342e-06
2	1	0	0	0	0	47.7732	0.0888094	0.0890383	0.112369	1	0.00144433	12	0	17.4422	1.00052e-05
2	1	0	1	0	0	48.3734	0.0918098	0.092077	0.113567	1	0.00151217	12	0	18.0424	1.04569e-05
2	1	0	1	0	0	48.9734	0.0948102	0.0950957	0.114467	1	0.00158057	12	0	18.6424	1.08853e-05
2	1	0	1	0	0	49.5734	0.0978106	0.0980697	0.115354	1	0.00164956	12	0	19.2424	1.13128e-05
2	1	0	0	0	0	50.1736	0.100811	0.101067	0.116579	1	0.00171921	12	0	19.8426	1.17823e-05
2	1	0	0	0	0	50.7736	0.103811	0.104085	0.118053	1	0.00178958	12	0	20.4426	1.22875e-05
2	1	0	1	0	0	51.3738	0.106812	0.107095	0.118814	1	0.00186069	12	0	21.0428	1.27243e-05
2	1	0	1	0	0	51.9738	0.109812	0.110108	0.11964	1	0.00193228	12	0	21.6428	1.31733e-05
2	1	0	1	0	0	52.5738	0.112813	0.113103	0.120806	1	0.00200444	12	0	22.2428	1.36636e-05
2	1	0	0	0	0	53.174	0.115813	0.116109	0.121929	1	0.00207727	12	0	22.843	1.41571e-05
2	1	0	0	0	0	53.774	0.118813	0.119053	0.122968	1	0.00215079	12	0	23.443	1.46397e-05
2	1	0	1	0	0	54.3742	0.121814	0.122075	0.123906	1	0.00222489	12	0	24.0432	1.51258e-05
2	1	0	1	0	0	54.9742	0.124814	0.12511	0.124661	1	0.00229943	12	0	24.6432	1.55964e-05
2	1	0	1	0	0	55.5742	0.127815	0.128091	0.125698	1	0.00237455	12	0	25.2432	1.61008e-05
2	1	0	0	0	0	56.1744	0.130815	0.131108	0.126872	1	0.00245038	12	0	25.8434	1.66339e-05
2	1	0	0	0	0	56.7744	0.133815	0.134103	0.127735	1	0.00252675	12	0	26.4434	1.71297e-05
2	1	0	1	0	0	57.3746	0.136816	0.137048	0.128531	1	0.00260364	12	0	27.0436	1.76149e-05
2	1	0	1	0	0	57.9746	0.139816	0.140148	0.129687	1	0.0026811	12	0	27.6436	1.81754e-05
2	1	0	1	0	0	58.5746	0.142817	0.143057	0.130931	1	0.00275933	12	0	28.2436	1.87306e-05
2	1	0	0	0	0	59.1748	0.145817	0.146095	0.132004	1	0.00283828	12	0	28.8438	1.92852e-05
2	1	0	0	0	0	59.7748	0.148817	0.149155	0.13279	1	0.00291779	12	0	29.4438	1.98063e-05
2	1	0	1	0	0	60.375	0.151818	0.152155	0.133638	1	0.00299781	12	0	30.044	2.03337e-05
2	1	0	1	0	0	60.975	0.154818	0.155145	0.134595	1	0.00307829	12	0	30.644	2.08818e-05
2	1	0	1	0	0	61.575	0.157819	0.158136	0.135372	1	0.00315929	12	0	31.244	2.14072e-05
2	1	0	0	0	0	62.1752	0.160819	0.161108	0.135869	1	0.00324075	12	0	31.8442	2.18897e-05
2	1	0	0	0	0	62.7752	0.163819	0.164106	0.136823	1	0.0033226	12	0	32.4442	2.24535e-05
2	1	0	1	0	0	63.3754	0.16682	0.167124	0.137132	1	0.00340484	12	0	33.0444	2.29181e-05
2	1	0	1	0	0	63.9754	0.16982	0.170119	0.13649	1	0.00348703	12	0	33.6444	2.32194e-05
2	1	0	1	0	0	64.5754	0.172821	0.173122	0.134997	1	0.0035685	12	0	34.2444	2.3371e-05
2	1	0	0	0	0	65.1756	0.175821	0.176143	0.13272	1	0.00364878	12	0	34.8446	2.33778e-05
2	1	0	0	0	0	65.7756	0.178821	0.179122	0.130428	1	0.00372769	12	0	35.4446	2.33625e-05
2	1	0	1	0	0	66.3758	0.181822	0.182117	0.128275	1	0.00380532	12	0	36.0448	2.3361e-05
2	1	0	1	0	0	66.9758	0.184822	0.185124	0.12586	1	0.00388151	12	0	36.6448	2.32997e-05
2	1	0	1	0	0	67.5758	0.187823	0.188116	0.123499	1	0.00395627	12	0	37.2448	2.32321e-05
2	1	0	0	0	0	68.176	0.190823	0.191057	0.121711	1	0.00402985	12	0	37.845	2.32537e-05
2	1	0	0	0	0	68.776	0.193823	0.194134	0.120289	1	0.00410244	12	0	38.445	2.33522e-05
2	1	0	1	0	0	69.3762	0.196824	0.197095	0.1187	1	0.00417419	12	0	39.0452	2.33951e-05
2	1	0	1	0	0	69.9762	0.199824	0.200112	0.117357	1	0.00424504	12	0	39.6452	2.34845e-05
2	1	0	1	0	0	70.5762	0.202824	0.203077	0.116391	1	0.00431515	12	0	40.2452	2.36364e-05
2	1	0	0	0	0	71.1764	0.205825	0.206145	0.115327	1	0.00438463	12	0	40.8454	2.3774e-05
2	1	0	0	0	0	71.7764	0.208825	0.20911	0.114148	1	0.00445346	12	0	41.4454	2.38696e-05
2	1	0	1	0	0	72.3766	0.211826	0.212093	0.112873	1	0.0045216	12	0	42.0456	2.39395e-05
2	1	0	1	0	0	72.9766	0.214826	0.215074	0.111745	1	0.00458896	12	0	42.6456	2.40336e-05
2	1	0	1	0	0	73.5766	0.217827	0.218096	0.110748	1	0.00465571	12	0	43.2456	2.41536e-05
2	1	0	0	0	0	74.1768	0.220827	0.221118	0.109836	1	0.00472194	12	0	43.8458	2.42866e-05
2	1	0	0	0	0	74.7768	0.223827	0.224131	0.108647	1	0.00478748	12	0	44.4458	2.43511e-05
2	1	0	1	0	0	75.377	0.226828	0.22711	0.107391	1	0.00485224	12	0	45.046	2.43897e-05
2	1	0	1	0	0	75.977	0.229828	0.230038	0.10622	1	0.00491626	12	0	45.646	2.44347e-05
2	1	0	1	0	0	76.577	0.232828	0.23314	0.10525	1	0.0049797	12	0	46.246	2.4538e-05
2	1	0	0	0	0	77.1772	0.235829	0.236085	0.104105	1	0.00504249	12	0	46.8462	2.45775e-05
2	1	0	0	0	0	77.7772	0.238829	0.239117	0.102734	1	0.00510452	12	0	47.4462	2.45654e-05
2	1	0	1	0	0	78.3774	0.24183	0.242096	0.101529	1	0.00516583	12	0	48.0464	2.45798e-05
2	1	0	1	0	0	78.9774	0.24483	0.245112	0.100595	1	0.00522648	12	0	48.6464	2.46571e-05
2	1	0	1	0	0	79.5774	0.247831	0.248193	0.0993032	1	0.0052865	12	0	49.2464	2.46464e-05
2	1	0	0	0	0	80.1776	0.250831	0.251133	0.0980826	1	0.00534578	12	0	49.8466	2.46318e-05
2	1	0	0	0	0	80.7776	0.253831	0.254133	0.0971611	1	0.00540433	12	0	50.4466	2.46918e-05
2	1	0	1	0	0	81.3778	0.256832	0.257093	0.0959458	1	0.00546226	12	0	51.0468	2.4667e-05
2	1	0	1	0	0	81.9778	0.259832	0.260135	0.094975	1	0.00551954	12	0	51.6468	2.47063e-05
2	1	0	1	0	0	82.5778	0.262832	0.263104	0.093732	1	0.00557615	12	0	52.2468	2.46612e-05
2	1	0	0	0	0	83.178	0.265833	0.26613	0.0924693	1	0.00563197	12	0	52.847	2.46088e-05
2	1	0	0	0	0	83.778	0.268833	0.269139	0.0914365	1	0.00568712	12	0	53.447	2.46091e-05
2	1	0	1	0	0	84.3782	0.271834	0.27214	0.0903112	1	0.00574167	12	0	54.0472	2.45773e-05
2	1	0	1	0	0	84.9782	0.274834	0.275107	0.0892571	1	0.0057955	12	0	54.6472	2.45553e-05
2	1	0	1	0	0	85.5782	0.277834	0.278134	0.0881833	1	0.00584863	12	0	55.2472	2.45268e-05
2	1	0	0	0	0	86.1784	0.280835	0.281069	0.0870355	1	0.00590116	12	0	55.8474	2.4463e-05
2	1	0	0	0	0	86.7784	0.283835	0.28412	0.086152	1	0.00595309	12	0	56.4474	2.44776e-05
2	1	0	1	0	0	87.3786	0.286836	0.287158	0.0849682	1	0.00600441	12	0	57.0476	2.43993e-05
2	1	0	1	0	0	87.9786	0.289836	0.290125	0.0835683	1	0.00605496	12	0	57.6476	2.42452e-05
2	1	0	1	0	0	88.5786	0.292836	0.293124	0.0826558	1	0.00610484	12	0	58.2476	2.42284e-05
2	1	0	0	0	0	89.1788	0.295837	0.296146	0.0818229	1	0.00615417	12	0	58.8478	2.42315e-05
2	1	0	0	0	0	89.7788	0.298837	0.299104	0.0807135	1	0.00620291	12	0	59.4478	2.41417e-05
2	1	0	1	0	0	90.379	0.301838	0.30211	0.0795398	1	0.00625104	12	0	60.048	2.40298e-05
2	1	0	1	0	0	90.979	0.304838	0.305124	0.0787286	1	0.0062985	12	0	60.648	2.4022e-05
2	1	0	1	0	0	91.579	0.307838	0.308138	0.0780234	1	0.00634546	12	0	61.248	2.4042e-05
2	1	0	0	0	0	92.1792	0.310839	0.31114	0.0770216	1	0.00639201	12	0	61.8482	2.39645e-05
2	1	0	0	0	0	92.7792	0.313839	0.314121	0.0759369	1	0.00643789	12	0	62.4482	2.38534e-05
2	1	0	1	0	0	93.3794	0.31684	0.317113	0.0751073	1	0.00648317	12	0	63.0484	2.38175e-05
2	1	0	1	0	0	93.9794	0.31984	0.320143	0.0742829	1	0.00652797	12	0	63.6484	2.37812e-05
2	1	0	1	0	0	94.5794	0.32284	0.32314	0.0735093	1	0.00657232	12	0	64.2484	2.37538e-05
2	1	0	0	0	0	95.1796	0.325841	0.32615	0.0727526	1	0.00661616	12	0	64.8486	2.37282e-05
2	1	0	0	0	0	95.7796	0.328841	0.329115	0.0717867	1	0.00665944	12	0	65.4486	2.36261e-05
2	1	0	1	0	0	96.3798	0.331842	0.332124	0.0710554	1	0.00670228	12	0	66.0488	2.35992e-05
2	1	0	1	0	0	96.9798	0.334842	0.335121	0.0704259	1	0.00674472	12	0	66.6488	2.36012e-05
2	1	0	1	0	0	97.5798	0.337842	0.338143	0.0695814	1	0.00678671	12	0	67.2488	2.35285e-05
2	1	0	0	0	0	98.18	0.340843	0.341144	0.068657	1	0.0068282	12	0	67.849	2.34219e-05
2	1	0	0	0	0	98.78	0.343843	0.344077	0.068182	1	0.00686926	12	0	68.449	2.34598e-05
2	1	0	1	0	0	99.3801	0.346843	0.347099	0.0676117	1	0.00690997	12	0	69.0491	2.3468e-05
2	1	0	1	0	0	99.9802	0.349844	0.350143	0.0669026	1	0.00695032	12	0	69.6492	2.34255e-05
2	1	0	1	0	0	100.58	0.352844	0.353113	0.0661558	1	0.00699025	12	0	70.2492	2.33605e-05
2	1	0	0	0	0	101.18	0.355845	0.35617	0.0656727	1	0.00702976	12	0	70.8494	2.33906e-05
2	1	0	0	0	0	101.78	0.358845	0.359142	0.0649254	1	0.00706893	12	0	71.4494	2.33175e-05
2	1	0	1	0	0	102.381	0.361846	0.362156	0.0643281	1	0.0071077	12	0	72.0496	2.32968e-05
2	1	0	1	0	0	102.981	0.364846	0.36512	0.0638276	1	0.00714614	12	0	72.6496	2.33047e-05
2	1	0	1	0	0	103.581	0.367846	0.368106	0.0631801	1	0.00718416	12	0	73.2496	2.3257e-05
2	1	0	0	0	0	104.181	0.370847	0.371086	0.062742	1	0.00722193	12	0	73.8498	2.32827e-05
2	1	0	0	0	0	104.781	0.373847	0.374094	0.0623894	1	0.00725945	12	0	74.4498	2.33395e-05
2	1	0	1	0	0	105.381	0.376847	0.377188	0.0617049	1	0.00729663	12	0	75.0499	2.32743e-05
2	1	0	1	0	0	105.981	0.379848	0.380077	0.0610985	1	0.00733343	12	0	75.65	2.32221e-05
2	1	0	1	0	0	106.581	0.382848	0.383101	0.0607471	1	0.00736999	12	0	76.25	2.32723e-05
2	1	0	0	0	0	107.181	0.385849	0.386161	0.0603407	1	0.00740631	12	0	76.8502	2.33012e-05
2	1	0	0	0	0	107.781	0.388849	0.389113	0.0597923	1	0.00744236	12	0	77.4502	2.3266e-05
2	1	0	1	0	0	108.381	0.391849	0.392118	0.0592263	1	0.00747809	12	0	78.0503	2.32237e-05
2	1	0	1	0	0	108.981	0.39485	0.395147	0.0589256	1	0.00751354	12	0	78.6504	2.32843e-05
2	1	0	1	0	0	109.581	0.39785	0.398124	0.0586547	1	0.00754878	12	0	79.2504	2.33519e-05
2	1	0	0	0	0	110.182	0.400851	0.401106	0.0581619	1	0.00758382	12	0	79.8506	2.33291e-05
2	1	0	0	0	0	110.782	0.403851	0.404133	0.0576289	1	0.00761857	12	0	80.4506	2.32897e-05
2	1	0	1	0	0	111.382	0.406851	0.407094	0.0572655	1	0.00765304	12	0	81.0507	2.33124e-05
2	1	0	1	0	0	111.982	0.409852	0.410115	0.0570407	1	0.00768734	12	0	81.6508	2.33933e-05
2	1	0	1	0	0	112.582	0.412852	0.413106	0.0567495	1	0.00772155	12	0	82.2508	2.34436e-05
2	1	0	0	0	0	113.182	0.415853	0.41612	0.0563558	1	0.00775549	12	0	82.851	2.34508e-05
2	1	0	0	0	0	113.782	0.418853	0.419177	0.0560622	1	0.00778914	12	0	83.451	2.35e-05
2	1	0	1	0	0	114.382	0.421853	0.42216	0.0557796	1	0.00782266	12	0	84.0511	2.35479e-05
2	1	0	1	0	0	114.982	0.424854	0.425138	0.0555419	1	0.00785606	12	0	84.6512	2.3613e-05
2	1	0	1	0	0	115.582	0.427854	0.428139	0.0552713	1	0.00788926	12	0	85.2512	2.36638e-05
2	1	0	0	0	0	116.182	0.430855	0.431156	0.0547933	1	0.00792225	12	0	85.8514	2.36245e-05
2	1	0	0	0	0	116.782	0.433855	0.434114	0.0546654	1	0.00795511	12	0	86.4514	2.3731e-05
2	1	0	1	0	0	117.383	0.436856	0.437142	0.054537	1	0.00798789	12	0	87.0516	2.38404e-05
2	1	0	1	0	0	117.983	0.439856	0.440124	0.0541834	1	0.00802051	12	0	87.6516	2.38474e-05
2	1	0	1	0	0	118.583	0.442856	0.443119	0.0538626	1	0.00805295	12	0	88.2516	2.38676e-05
2	1	0	0	0	0	119.183	0.445857	0.446123	0.0538507	1	0.00808527	12	0	88.8518	2.4024e-05
2	1	0	0	0	0	119.783	0.448857	0.449101	0.0537569	1	0.00811752	12	0	89.4518	2.41423e-05
2	1	0	1	0	0	120.383	0.451857	0.452157	0.0534999	1	0.00814971	12	0	90.0519	2.41904e-05
2	1	0	1	0	0	120.983	0.454858	0.455167	0.0531976	1	0.00818173	12	0	90.652	2.42138e-05
2	1	0	1	0	0	121.583	0.457858	0.458133	0.0530473	1	0.00821359	12	0	91.252	2.43027e-05
2	1	0	0	0	0	122.183	0.460859	0.46114	0.052989	1	0.00824542	12	0	91.8522	2.44353e-05
2	1	0	0	0	0	122.783	0.463859	0.464053	0.0528199	1	0.00827717	12	0	92.4522	2.45113e-05
2	1	0	1	0	0	123.383	0.466859	0.46721	0.0527646	1	0.00830885	12	0	93.0523	2.46522e-05
2	1	0	1	0	0	123.983	0.46986	0.470124	0.0526587	1	0.00834043	12	0	93.6524	2.47561e-05
2	1	0	1	0	0	124.583	0.47286	0.47316	0.0525365	1	0.00837198	12	0	94.2524	2.48581e-05
2	1	0	0	0	0	125.184	0.475861	0.47613	0.0526241	1	0.00840355	12	0	94.8526	2.50559e-05
2	1	0	0	0	0	125.784	0.478861	0.479168	0.0524117	1	0.00843506	12	0	95.4526	2.5114e-05
2	1	0	1	0	0	126.384	0.481861	0.482183	0.052189	1	0.00846647	12	0	96.0527	2.51646e-05
2	1	0	1	0	0	126.984	0.484862	0.485125	0.0523072	1	0.00849788	12	0	96.6528	2.53755e-05
2	1	0	1	0	0	127.584	0.487862	0.488131	0.0524413	1	0.00852933	12	0	97.2528	2.55982e-05
2	1	0	0	0	0	128.184	0.490863	0.491182	0.0523579	1	0.0085608	12	0	97.853	2.57173e-05
2	1	0	0	0	0	128.784	0.493863	0.494124	0.0521275	1	0.0085922	12	0	98.453	2.57574e-05
2	1	0	1	0	0	129.384	0.496863	0.497131	0.0522598	1	0.00862359	12	0	99.0531	2.598e-05
2	1	0	1	0	0	129.984	0.499864	0.500169	0.0525184	1	0.00865504	12	0	99.6532	2.62681e-05
2	1	0	1	0	0	130.584	0.502864	0.503119	0.0524468	1	0.00868657	12	0	100.253	2.6387e-05
2	1	0	0	0	0	131.184	0.505865	0.506134	0.0524994	1	0.0087181	12	0	100.853	2.65718e-05
2	1	0	0	0	0	131.784	0.508865	0.50917	0.0526165	1	0.00874963	12	0	101.453	2.67907e-05
2	1	0	1	0	0	132.384	0.511865	0.512129	0.0527129	1	0.00878127	12	0	102.053	2.69958e-05
2	1	0	1	0	0	132.985	0.514866	0.515157	0.053071	1	0.00881311	12	0	102.654	2.73399e-05
2	1	0	1	0	0	133.585	0.517866	0.518149	0.0531198	1	0.00884495	12	0	103.254	2.7524e-05
2	1	0	0	0	0	134.185	0.520867	0.521119	0.053219	1	0.00887684	12	0	103.854	2.77335e-05
2	1	0	0	0	0	134.785	0.523867	0.524181	0.0535768	1	0.0089089	12	0	104.454	2.8084e-05
2	1	0	1	0	0	135.385	0.526867	0.527158	0.053788	1	0.00894115	12	0	105.054	2.83548e-05
2	1	0	1	0	0	135.985	0.529868	0.530158	0.0540653	1	0.00897355	12	0	105.654	2.86631e-05
2	1	0	1	0	0	136.585	0.532868	0.533164	0.0543834	1	0.00900613	12	0	106.254	2.89953e-05
2	1	0	0	0	0	137.185	0.535869	0.536106	0.0548572	1	0.00903895	12	0	106.854	2.94093e-05
2	1	0	0	0	0	137.785	0.538869	0.539226	0.0556535	1	0.0090721	12	0	107.454	3.00098e-05
2	1	0	1	0	0	138.385	0.541869	0.542167	0.0560969	1	0.00910563	12	0	108.054	3.04139e-05
2	1	0	1	0	0	138.985	0.54487	0.545182	0.0565772	1	0.00913947	12	0	108.654	3.08449e-05
2	1	0	1	0	0	139.585	0.54787	0.548181	0.0575198	1	0.00917371	12	0	109.254	3.15312e-05
2	1	0	0	0	0	140.186	0.550871	0.551183	0.0584372	1	0.00920849	12	0	109.855	3.22096e-05
2	1	0	0	0	0	140.786	0.553871	0.554148	0.0594115	1	0.00924387	12	0	110.455	3.29228e-05
2	1	0	1	0	0	141.386	0.556871	0.557185	0.060597	1	0.00927988	12	0	111.055	3.37638e-05
2	1	0	1	0	0	141.986	0.559872	0.560168	0.0618171	1	0.00931656	12	0	111.655	3.4628e-05
2	1	0	1	0	0	142.586	0.562872	0.563196	0.0635154	1	0.00935414	12	0	112.255	3.57717e-05
2	1	0	0	0	0	143.186	0.565873	0.566128	0.0652158	1	0.00939273	12	0	112.855	3.69205e-05
2	1	0	0	0	0	143.786	0.568873	0.569177	0.0671245	1	0.00943242	12	0	113.455	3.82057e-05
2	1	0	1	0	0	144.386	0.571873	0.572126	0.0693345	1	0.00947334	12	0	114.055	3.96681e-05
2	1	0	1	0	0	144.986	0.574874	0.575163	0.0718564	1	0.00951571	12	0	114.655	4.13291e-05
2	1	0	1	0	0	145.586	0.577874	0.578211	0.0749223	1	0.00955979	12	0	115.255	4.33209e-05
2	1	0	0	0	0	146.186	0.580875	0.581139	0.078138	1	0.00960574	12	0	115.855	4.54091e-05
2	1	0	0	0	0	146.786	0.583875	0.584159	0.0816805	1	0.00965373	12	0	116.455	4.77144e-05
2	1	0	1	0	0	147.386	0.586875	0.587081	0.0861115	1	0.00970414	12	0	117.055	5.05544e-05
2	1	0	1	0	0	147.987	0.589876	0.590164	0.0910998	1	0.00975731	12	0	117.656	5.37639e-05
2	1	0	1	0	0	148.587	0.592876	0.593185	0.0964031	1	0.00981362	12	0	118.256	5.71849e-05
2	1	0	0	0	0	149.187	0.595877	0.596159	0.102498	1	0.00987338	12	0	118.856	6.11052e-05
2	1	0	0	0	0	149.787	0.598877	0.599144	0.109397	1	0.009937	12	0	119.456	6.55446e-05
2	1	0	1	0	0	150.387	0.601877	0.60221	0.117228	1	0.0100051	12	0	120.056	7.05957e-05
2	1	0	1	0	0	150.987	0.604878	0.605148	0.126072	1	0.0100782	12	0	120.656	7.62924e-05
2	1	0	1	0	0	151.587	0.607878	0.608157	0.135794	1	0.0101569	12	0	121.256	8.25842e-05
2	1	0	0	0	0	152.187	0.610879	0.611191	0.146794	1	0.0102417	12	0	121.856	8.97194e-05
2	1	0	0	0	0	152.787	0.613879	0.614172	0.158984	1	0.0103335	12	0	122.456	9.76436e-05
2	1	0	1	0	0	153.387	0.616879	0.617155	0.17276	1	0.0104332	12	0	123.056	0.00010662
2	1	0	1	0	0	153.987	0.61988	0.620182	0.187935	1	0.0105415	12	0	123.656	0.000116554
2	1	0	1	0	0	154.587	0.62288	0.623135	0.204494	1	0.0106593	12	0	124.256	0.000127427
2	1	0	0	0	0	155.188	0.625881	0.626216	0.223052	1	0.0107877	12	0	124.857	0.000139679
2	1	0	0	0	0	155.788	0.628881	0.629146	0.243455	1	0.0109278	12	0	125.457	0.000153169
2	1	0	1	0	0	156.388	0.631881	0.632176	0.26576	1	0.0110808	12	0	126.057	0.000168007
2	1	0	1	0	0	156.988	0.634882	0.635168	0.290055	1	0.0112477	12	0	126.657	0.000184234
2	1	0	1	0	0	157.588	0.637882	0.638122	0.316552	1	0.0114299	12	0	127.257	0.000201999
2	1	0	0	0	0	158.188	0.640883	0.641115	0.345299	1	0.0116287	12	0	127.857	0.000221376
2	1	0	0	0	0	158.788	0.643883	0.644176	0.376157	1	0.0118453	12	0	128.457	0.000242311
2	1	0	1	0	0	159.388	0.646883	0.64707	0.409139	1	0.0120812	12	0	129.057	0.000264741
2	1	0	1	0	0	159.988	0.649884	0.65013	0.444795	1	0.0123376	12	0	129.657	0.000289174
2	1	0	1	0	0	160.588	0.652884	0.653164	0.482277	1	0.0126161	12	0	130.257	0.000315006
2	1	0	0	0	0	161.188	0.655885	0.656185	0.521485	1	0.0129176	12	0	130.857	0.000342191
2	1	0	0	0	0	161.788	0.658885	0.659153	0.56355	1	0.0132434	12	0	131.457	0.000371466
2	1	0	1	0	0	162.388	0.661886	0.662153	0.606758	1	0.0135948	12	0	132.057	0.000401767
2	1	0	1	0	0	162.989	0.664886	0.665196	0.651514	1	0.0139727	12	0	132.658	0.000433384
2	1	0	1	0	0	163.589	0.667886	0.668156	0.698706	1	0.0143781	12	0	133.258	0.000466845
2	1	0	0	0	0	164.189	0.670887	0.671132	0.748159	1	0.0148127	12	0	133.858	0.000502114
2	1	0	0	0	0	164.789	0.673887	0.674169	0.798048	1	0.015277	12	0	134.458	0.000538019
2	1	0	1	0	0	165.389	0.676888	0.677145	0.849044	1	0.0157717	12	0	135.058	0.000574926
2	1	0	1	0	0	165.989	0.679888	0.680135	0.900975	1	0.0162973	12	0	135.658	0.000612785
2	1	0	1	0	0	166.589	0.682888	0.683165	0.954368	1	0.0168543	12	0	136.258	0.000651991
2	1	0	0	0	0	167.189	0.685889	0.686151	1.00912	1	0.0174441	12	0	136.858	0.000692409
2	1	0	0	0	0	167.789	0.688889	0.689172	1.06539	1	0.0180669	12	0	137.458	0.000734235
2	1	0	1	0	0	168.409	0.691989	0.692181	1.12317	1	0.018746	11	0	138.078	0.000777439
2	1	0	1	0	0	169.009	0.69499	0.69531	1.18293	1	0.0194385	11	0	138.678	0.0008225
2	1	0	1	0	0	169.609	0.69799	0.698254	1.24251	1	0.0201668	11	0	139.278	0.00086759
2	1	0	1	0	0	170.001	0.700041	0.7003	1.28507	1	0.0206614	11	0	139.67	0.000899935
2	1	0	0	0	0	170.332	0.69839	0.698698	1.24357	1	0.0210771	11	0	140.001	0.000868881
2	1	0	0	0	0	170.932	0.69539	0.695641	1.18334	1	0.0218046	11	0	140.601	0.000823178
2	1	0	1	0	0	171.532	0.69239	0.692615	1.12469	1	0.0224963	11	0	141.201	0.00077898
2	1	0	1	0	0	172.132	0.689389	0.689655	1.06935	1	0.023154	11	0	141.801	0.000737484
2	1	0	1	0	0	172.732	0.686389	0.686696	1.01684	1	0.0237793	11	0	142.401	0.000698262
2	1	0	0	0	0	173.332	0.683388	0.683678	0.964323	1	0.0243734	11	0	143.001	0.000659286
2	1	0	0	0	0	173.932	0.680388	0.680618	0.911513	1	0.0249357	11	0	143.601	0.000620392
2	1	0	1	0	0	174.532	0.677387	0.677634	0.858209	1	0.0254661	11	0	144.201	0.000581551
2	1	0	1	0	0	175.132	0.674387	0.674608	0.80685	1	0.0259651	11	0	144.801	0.000544308
2	1	0	1	0	0	175.732	0.671387	0.671659	0.757488	1	0.0264339	11	0	145.401	0.000508774
2	1	0	0	0	0	176.332	0.668386	0.668617	0.708321	1	0.0268732	11	0	146.001	0.000473595
2	1	0	0	0	0	176.932	0.665386	0.665644	0.659361	1	0.027283	11	0	146.601	0.000438899
2	1	0	1	0	0	177.532	0.662385	0.662635	0.611334	1	0.0276637	11	0	147.201	0.000405091
2	1	0	1	0	0	178.133	0.659385	0.659653	0.567823	1	0.0280169	11	0	147.802	0.000374566
2	1	0	1	0	0	178.733	0.656385	0.656649	0.524604	1	0.0283443	11	0	148.402	0.000344481
2	1	0	0	0	0	179.333	0.653384	0.65366	0.4812	1	0.0286457	11	0	149.002	0.000314541
2	1	0	0	0	0	179.973	0.650184	0.650448	0.438342	1	0.0289391	12	0	149.642	0.000285119
2	1	0	1	0	0	180.573	0.647183	0.647426	0.398039	1	0.0291896	12	0	150.242	0.000257701
2	1	0	1	0	0	181.173	0.644183	0.644494	0.360359	1	0.0294166	12	0	150.842	0.00023225
2	1	0	1	0	0	181.773	0.641183	0.641475	0.324866	1	0.0296218	12	0	151.442	0.000208393
2	1	0	0	0	0	182.373	0.638182	0.638426	0.290694	1	0.0298061	12	0	152.042	0.000185587
2	1	0	0	0	0	182.973	0.635182	0.635477	0.258369	1	0.0299704	12	0	152.642	0.000164188
2	1	0	1	0	0	183.573	0.632181	0.632472	0.228257	1	0.030116	12	0	153.242	0.000144366
2	1	0	1	0	0	184.173	0.629181	0.629476	0.200642	1	0.0302444	12	0	153.842	0.000126299
2	1	0	1	0	0	184.773	0.626181	0.626455	0.175095	1	0.0303567	12	0	154.442	0.000109689
2	1	0	0	0	0	185.374	0.62318	0.623439	0.152014	1	0.0304546	12	0	155.043	9.47712e-05
2	1	0	0	0	0	185.974	0.62018	0.620472	0.131052	1	0.0305392	12	0	155.643	8.13143e-05
2	1	0	1	0	0	186.574	0.617179	0.617371	0.111855	1	0.0306117	12	0	156.243	6.90559e-05
2	1	0	1	0	0	187.174	0.614179	0.614484	0.0945608	1	0.0306734	12	0	156.843	5.81061e-05
2	1	0	1	0	0	187.774	0.611179	0.611452	0.07917	1	0.0307252	12	0	157.443	4.84086e-05
2	1	0	0	0	0	188.374	0.608178	0.608479	0.0657708	1	0.0307685	12	0	158.043	4.00201e-05
2	1	0	0	0	0	188.974	0.605178	0.605496	0.0533885	1	0.030804	12	0	158.643	3.23265e-05
2	1	0	1	0	0	189.594	0.602078	0.602373	0.0422216	1	0.0308334	13	0	159.263	2.54332e-05
2	1	0	1	0	0	190.194	0.599077	0.59935	0.0327322	1	0.0308557	13	0	159.863	1.9618e-05
2	1	0	1	0	0	190.794	0.596077	0.596365	0.024325	1	0.0308727	13	0	160.463	1.45066e-05
2	1	0	0	0	0	191.394	0.593076	0.593361	0.0170253	1	0.030885	13	0	161.063	1.01021e-05
2	1	0	0	0	0	191.994	0.590076	0.590353	0.0105445	1	0.0308931	13	0	161.663	6.22498e-06
2	1	0	1	0	0	192.614	0.586975	0.587285	0.0046274	1	0.0308977	13	0	162.283	2.7176e-06
2	1	0	1	0	0	193.235	0.583875	0.58415	-0.000511089	1	0.0308989	14	0	162.904	-2.98553e-07
2	0	0	1	0	0	193.835	0.580875	0.581185	-0.00494844	1	0.0308972	14	0	0.4	-2.87596e-06
2	0	0	0	0	0	194.435	0.577874	0.578107	-0.00875074	1	0.0308931	14	0	1.0002	-5.05886e-06
2	0	0	0	0	0	195.055	0.574774	0.574979	-0.0124236	1	0.0308865	13	0	1.6202	-7.14331e-06
2	0	0	1	0	0	195.655	0.571774	0.572024	-0.0152947	1	0.0308782	13	0	2.2203	-8.74896e-06
2	0	0	1	0	0	196.255	0.568773	0.569064	-0.0179599	1	0.0308682	13	0	2.8204	-1.02204e-05
2	0	0	1	0	0	196.855	0.565773	0.56601	-0.0204278	1	0.0308566	13	0	3.4204	-1.15623e-05
2	0	0	0	0	0	197.455	0.562772	0.563021	-0.0224231	1	0.0308438	13	0	4.0206	-1.26247e-05
2	0	0	0	0	0	198.055	0.559772	0.560038	-0.0243832	1	0.0308297	13	0	4.6206	-1.36555e-05
2	0	0	1	0	0	198.655	0.556772	0.557035	-0.0258199	1	0.0308146	13	0	5.2207	-1.43826e-05
2	0	0	1	0	0	199.255	0.553771	0.554079	-0.0274629	1	0.0307986	13	0	5.8208	-1.52166e-05
2	0	0	1	0	0	199.855	0.550771	0.550965	-0.0289731	1	0.0307817	13	0	6.4208	-1.59632e-05
2	0	0	0	0	0	200.456	0.54777	0.548091	-0.0300398	1	0.030764	13	0	7.021	-1.64645e-05
2	0	0	0	0	0	201.056	0.54477	0.54504	-0.0310987	1	0.0307457	13	0	7.621	-1.69501e-05
2	0	0	1	0	0	201.656	0.541769	0.542021	-0.0320152	1	0.0307268	13	0	8.2211	-1.73529e-05
2	0	0	1	0	0	202.256	0.538769	0.539061	-0.0329122	1	0.0307073	13	0	8.8212	-1.77417e-05
2	0	0	1	0	0	202.856	0.535769	0.536051	-0.0337792	1	0.0306873	13	0	9.4212	-1.81074e-05
2	0	0	0	0	0	203.456	0.532768	0.533042	-0.0344146	1	0.0306668	13	0	10.0214	-1.83444e-05
2	0	0	0	0	0	204.056	0.529768	0.530015	-0.0351002	1	0.030646	13	0	10.6214	-1.86036e-05
2	0	0	1	0	0	204.656	0.526767	0.527029	-0.0356207	1	0.0306249	13	0	11.2215	-1.87731e-05
2	0	0	1	0	0	205.256	0.523767	0.524096	-0.0362472	1	0.0306033	13	0	11.8216	-1.8997e-05
2	0	0	1	0	0	205.856	0.520767	0.521069	-0.0366915	1	0.0305815	13	0	12.4216	-1.91188e-05
2	0	0	0	0	0	206.456	0.517766	0.518048	-0.0369857	1	0.0305594	13	0	13.0218	-1.91603e-05
2	0	0	0	0	0	207.056	0.514766	0.515094	-0.0374658	1	0.030537	13	0	13.6218	-1.92984e-05
2	0	0	1	0	0	207.656	0.511765	0.511985	-0.0381148	1	0.0305144	13	0	14.2219	-1.95142e-05
2	0	0	1	0	0	208.257	0.508765	0.50901	-0.0382399	1	0.0304915	13	0	14.822	-1.94645e-05
2	0	0	1	0	0	208.857	0.505765	0.506044	-0.0384615	1	0.0304685	13	0	15.422	-1.94632e-05
2	0	0	0	0	0	209.457	0.502764	0.503067	-0.0388134	1	0.0304453	13	0	16.0222	-1.95257e-05
2	0	0	0	0	0	210.057	0.499764	0.500042	-0.039298	1	0.0304219	13	0	16.6222	-1.96507e-05
2	0	0	1	0	0	210.657	0.496763	0.497063	-0.0394743	1	0.0303983	13	0	17.2223	-1.96212e-05
2	0	0	1	0	0	211.257	0.493763	0.494061	-0.0396642	1	0.0303745	13	0	17.8224	-1.95965e-05
2	0	0	1	0	0	211.857	0.490763	0.491012	-0.0399801	1	0.0303507	13	0	18.4224	-1.96307e-05
2	0	0	0	0	0	212.457	0.487762	0.487997	-0.0402073	1	0.0303267	13	0	19.0226	-1.9621e-05
2	0	0	0	0	0	213.057	0.484762	0.48502	-0.0405366	1	0.0303024	13	0	19.6226	-1.96611e-05
2	0	0	1	0	0	213.657	0.481761	0.482056	-0.04077	1	0.0302781	13	0	20.2227	-1.96534e-05
2	0	0	1	0	0	214.257	0.478761	0.479025	-0.0408791	1	0.0302537	13	0	20.8228	-1.95821e-05
2	0	0	1	0	0	214.857	0.475761	0.476103	-0.0412083	1	0.0302291	13	0	21.4228	-1.96194e-05
2	0	0	0	0	0	215.458	0.47276	0.473056	-0.0413995	1	0.0302043	13	0	22.023	-1.95843e-05
2	0	0	0	0	0	216.058	0.46976	0.470015	-0.0415241	1	0.0301795	13	0	22.623	-1.95169e-05
2	0	0	1	0	0	216.658	0.466759	0.467074	-0.041704	1	0.0301545	13	0	23.2231	-1.94788e-05
2	0	0	1	0	0	217.258	0.463759	0.464055	-0.0419342	1	0.0301294	13	0	23.8232	-1.94598e-05
2	0	0	1	0	0	217.858	0.460759	0.461037	-0.0422826	1	0.0301042	13	0	24.4232	-1.94939e-05
2	0	0	0	0	0	218.458	0.457758	0.458021	-0.0424399	1	0.0300788	13	0	25.0234	-1.94384e-05
2	0	0	0	0	0	219.058	0.454758	0.454999	-0.0425109	1	0.0300533	13	0	25.6234	-1.93424e-05
2	0	0	1	0	0	219.658	0.451757	0.452099	-0.042909	1	0.0300277	13	0	26.2235	-1.93991e-05
2	0	0	1	0	0	220.258	0.448757	0.44904	-0.0431334	1	0.0300019	13	0	26.8236	-1.93686e-05
2	0	0	1	0	0	220.858	0.445757	0.44599	-0.0433671	1	0.029976	13	0	27.4236	-1.93413e-05
2	0	0	0	0	0	221.458	0.442756	0.443009	-0.0435584	1	0.0299499	13	0	28.0238	-1.92968e-05
2	0	0	0	0	0	222.058	0.439756	0.440059	-0.0437619	1	0.0299238	13	0	28.6238	-1.92578e-05
2	0	0	1	0	0	222.658	0.436755	0.437049	-0.0441132	1	0.0298974	13	0	29.2239	-1.92796e-05
2	0	0	1	0	0	223.259	0.433755	0.434003	-0.0443892	1	0.0298709	13	0	29.824	-1.9265e-05
2	0	0	1	0	0	223.859	0.430755	0.431019	-0.0446028	1	0.0298442	13	0	30.424	-1.92247e-05
2	0	0	0	0	0	224.459	0.427754	0.428036	-0.0447922	1	0.0298174	13	0	31.0242	-1.91727e-05
2	0	0	0	0	0	225.059	0.424754	0.424927	-0.0450081	1	0.0297905	13	0	31.6242	-1.91252e-05
2	0	0	1	0	0	225.659	0.421753	0.421999	-0.0454546	1	0.0297633	13	0	32.2243	-1.91818e-05
2	0	0	1	0	0	226.259	0.418753	0.41904	-0.0455791	1	0.029736	13	0	32.8244	-1.90995e-05
2	0	0	1	0	0	226.859	0.415753	0.415989	-0.0457455	1	0.0297086	13	0	33.4244	-1.90296e-05
2	0	0	0	0	0	227.459	0.412752	0.413041	-0.0462204	1	0.0296809	13	0	34.0246	-1.90909e-05
2	0	0	0	0	0	228.059	0.409752	0.409995	-0.0468105	1	0.029653	13	0	34.6246	-1.91921e-05
2	0	0	1	0	0	228.659	0.406751	0.407028	-0.0469066	1	0.0296249	13	0	35.2247	-1.90923e-05
2	0	0	1	0	0	229.259	0.403751	0.404038	-0.0470908	1	0.0295967	13	0	35.8248	-1.90265e-05
2	0	0	1	0	0	229.859	0.400751	0.401054	-0.0474976	1	0.0295683	13	0	36.4248	-1.90491e-05
2	0	0	0	0	0	230.46	0.39775	0.398044	-0.047915	1	0.0295397	13	0	37.025	-1.90722e-05
2	0	0	0	0	0	231.06	0.39475	0.395133	-0.0482964	1	0.0295108	13	0	37.625	-1.90835e-05
2	0	0	1	0	0	231.66	0.391749	0.392013	-0.0486232	1	0.0294817	13	0	38.2251	-1.90609e-05
2	0	0	1	0	0	232.26	0.388749	0.389058	-0.0490266	1	0.0294525	13	0	38.8252	-1.90742e-05
2	0	0	1	0	0	232.86	0.385749	0.386035	-0.0494268	1	0.029423	13	0	39.4252	-1.90805e-05
2	0	0	0	0	0	233.46	0.382748	0.383065	-0.0499166	1	0.0293931	13	0	40.0254	-1.91213e-05
2	0	0	0	0	0	234.06	0.379748	0.380028	-0.050325	1	0.0293631	13	0	40.6254	-1.91249e-05
2	0	0	1	0	0	234.66	0.376747	0.377034	-0.0505365	1	0.0293329	13	0	41.2255	-1.9054e-05
2	0	0	1	0	0	235.26	0.373747	0.374007	-0.0510799	1	0.0293024	13	0	41.8256	-1.91043e-05
2	0	0	1	0	0	235.86	0.370747	0.371029	-0.0516065	1	0.0292716	13	0	42.4256	-1.91475e-05
2	0	0	0	0	0	236.46	0.367746	0.368022	-0.0519046	1	0.0292406	13	0	43.0258	-1.91021e-05
2	0	0	0	0	0	237.06	0.364746	0.365033	-0.0522904	1	0.0292093	13	0	43.6258	-1.90877e-05
2	0	0	1	0	0	237.66	0.361745	0.361966	-0.0528194	1	0.0291778	13	0	44.2259	-1.91188e-05
2	0	0	1	0	0	238.261	0.358745	0.358995	-0.0533841	1	0.0291459	13	0	44.826	-1.91646e-05
2	0	0	1	0	0	238.861	0.355745	0.356013	-0.0538737	1	0.0291138	13	0	45.426	-1.91797e-05
2	0	0	0	0	0	239.461	0.352744	0.353038	-0.0541698	1	0.0290813	13	0	46.0262	-1.9124e-05
2	0	0	0	0	0	240.061	0.349744	0.350039	-0.0548551	1	0.0290486	13	0	46.6262	-1.92014e-05
2	0	0	1	0	0	240.661	0.346743	0.347056	-0.055365	1	0.0290156	13	0	47.2263	-1.92147e-05
2	0	0	1	0	0	241.261	0.343743	0.343964	-0.0559237	1	0.0289821	13	0	47.8264	-1.92357e-05
2	0	0	1	0	0	241.861	0.340743	0.340969	-0.0565185	1	0.0289484	13	0	48.4264	-1.92711e-05
2	0	0	0	0	0	242.461	0.337742	0.338065	-0.0570136	1	0.0289144	13	0	49.0266	-1.92743e-05
2	0	0	0	0	0	243.061	0.334742	0.335024	-0.0576744	1	0.02888	13	0	49.6266	-1.93223e-05
2	0	0	1	0	0	243.661	0.331741	0.332041	-0.0583571	1	0.0288451	13	0	50.2267	-1.9377e-05
2	0	0	1	0	0	244.261	0.328741	0.329034	-0.0588786	1	0.02881	13	0	50.8268	-1.9373e-05
2	0	0	1	0	0	244.861	0.325741	0.326002	-0.0594082	1	0.0287745	13	0	51.4268	-1.93672e-05
2	0	0	0	0	0	245.462	0.32274	0.323019	-0.060016	1	0.0287386	13	0	52.027	-1.93863e-05
2	0	0	0	0	0	246.062	0.31974	0.320011	-0.0608931	1	0.0287023	13	0	52.627	-1.94864e-05
2	0	0	1	0	0	246.662	0.316739	0.317051	-0.0615078	1	0.0286655	13	0	53.2271	-1.95011e-05
2	0	0	1	0	0	247.262	0.313739	0.314051	-0.0619856	1	0.0286284	13	0	53.8272	-1.94666e-05
2	0	0	1	0	0	247.862	0.310739	0.311049	-0.0629397	1	0.0285909	13	0	54.4272	-1.95773e-05
2	0	0	0	0	0	248.462	0.307738	0.30809	-0.0638506	1	0.028553	13	0	55.0274	-1.96717e-05
2	0	0	0	0	0	249.062	0.304738	0.305028	-0.064472	1	0.0285144	13	0	55.6274	-1.96657e-05
2	0	0	1	0	0	249.662	0.301737	0.302063	-0.0650609	1	0.0284756	13	0	56.2275	-1.96525e-05
2	0	0	1	0	0	250.262	0.298737	0.299004	-0.0657633	1	0.0284364	13	0	56.8276	-1.96635e-05
2	0	0	1	0	0	250.862	0.295737	0.296005	-0.0667095	1	0.0283966	13	0	57.4276	-1.97463e-05
2	0	0	0	0	0	251.462	0.292736	0.293059	-0.0675481	1	0.0283563	13	0	58.0278	-1.97956e-05
2	0	0	0	0	0	252.062	0.289736	0.289953	-0.068421	1	0.0283156	13	0	58.6278	-1.98389e-05
2	0	0	1	0	0	252.662	0.286735	0.287001	-0.0691918	1	0.0282744	13	0	59.2279	-1.98581e-05
2	0	0	1	0	0	253.263	0.283735	0.284065	-0.0699414	1	0.0282327	13	0	59.828	-1.98679e-05
2	0	0	1	0	0	253.863	0.280735	0.281006	-0.0710049	1	0.0281904	13	0	60.428	-1.99528e-05
2	0	0	0	0	0	254.463	0.277734	0.277981	-0.0716234	1	0.0281476	13	0	61.0282	-1.991e-05
2	0	0	0	0	0	255.063	0.274734	0.275037	-0.0724086	1	0.0281044	13	0	61.6282	-1.9915e-05
2	0	0	1	0	0	255.663	0.271734	0.272039	-0.0734942	1	0.0280606	13	0	62.2282	-1.99933e-05
2	0	0	1	0	0	256.263	0.268733	0.269008	-0.0745499	1	0.0280162	13	0	62.8284	-2.00545e-05
2	0	0	1	0	0	256.863	0.265733	0.266024	-0.0754907	1	0.0279712	13	0	63.4284	-2.00823e-05
2	0	0	0	0	0	257.463	0.262732	0.263017	-0.0761657	1	0.0279257	13	0	64.0286	-2.00329e-05
2	0	0	0	0	0	258.063	0.259732	0.259999	-0.0771939	1	0.0278797	13	0	64.6286	-2.00703e-05
2	0	0	0	0	0	258.663	0.256732	0.257031	-0.0781975	1	0.0278331	13	0	65.2286	-2.00992e-05
2	0	0	1	0	0	259.263	0.253731	0.253977	-0.0790701	1	0.0277859	13	0	65.8288	-2.0082e-05
2	0	0	1	0	0	259.863	0.250731	0.251027	-0.0801165	1	0.0277382	13	0	66.4288	-2.01114e-05
2	0	0	0	0	0	260.464	0.24773	0.247995	-0.0809438	1	0.0276899	13	0	67.029	-2.00736e-05
2	0	0	0	0	0	261.064	0.24473	0.245025	-0.0821274	1	0.027641	13	0	67.629	-2.01233e-05
2	0	0	0	0	0	261.664	0.24173	0.242037	-0.0832843	1	0.0275913	13	0	68.229	-2.01579e-05
2	0	0	1	0	0	262.264	0.238729	0.238976	-0.0841232	1	0.0275411	13	0	68.8292	-2.01034e-05
2	0	0	1	0	0	262.864	0.235729	0.236033	-0.0850444	1	0.0274904	13	0	69.4292	-2.00732e-05
2	0	0	0	0	0	263.464	0.232728	0.233029	-0.0860504	1	0.0274391	13	0	70.0294	-2.00522e-05
2	0	0	1	0	0	264.064	0.229728	0.230053	-0.0872559	1	0.0273871	13	0	70.6294	-2.00735e-05
2	0	0	1	0	0	264.664	0.226728	0.226998	-0.088197	1	0.0273344	13	0	71.2294	-2.00205e-05
2	0	0	0	0	0	265.264	0.223727	0.224006	-0.089009	1	0.0272812	13	0	71.8296	-1.99385e-05
2	0	0	0	0	0	265.864	0.220727	0.220982	-0.0903612	1	0.0272273	13	0	72.4296	-1.99682e-05
2	0	0	1	0	0	266.464	0.217727	0.218014	-0.0915414	1	0.0271727	13	0	73.0298	-1.99573e-05
2	0	0	1	0	0	267.064	0.214726	0.215047	-0.0926538	1	0.0271175	13	0	73.6298	-1.99249e-05
2	0	0	1	0	0	267.664	0.211726	0.212045	-0.093711	1	0.0270615	13	0	74.2298	-1.98709e-05
2	0	0	0	0	0	268.265	0.208725	0.208995	-0.0947569	1	0.0270049	13	0	74.83	-1.98037e-05
2	0	0	0	0	0	268.865	0.205725	0.206015	-0.0959806	1	0.0269477	13	0	75.43	-1.97735e-05
2	0	0	1	0	0	269.465	0.202725	0.202976	-0.0972074	1	0.0268896	13	0	76.0302	-1.97308e-05
2	0	0	1	0	0	270.065	0.199724	0.199977	-0.0982369	1	0.026831	13	0	76.6302	-1.96451e-05
2	0	0	1	0	0	270.665	0.196724	0.197014	-0.099304	1	0.0267718	13	0	77.2302	-1.95643e-05
2	0	0	0	0	0	271.265	0.193723	0.19404	-0.100491	1	0.0267118	13	0	77.8304	-1.94993e-05
2	0	0	0	0	0	271.865	0.190723	0.191019	-0.101848	1	0.0266511	13	0	78.4304	-1.94548e-05
2	0	0	1	0	0	272.465	0.187723	0.187964	-0.10308	1	0.0265896	13	0	79.0306	-1.93752e-05
2	0	0	1	0	0	273.065	0.184722	0.184995	-0.104056	1	0.0265275	13	0	79.6306	-1.92498e-05
2	0	0	1	0	0	273.665	0.181722	0.181952	-0.105445	1	0.0264646	13	0	80.2306	-1.9186e-05
2	0	0	0	0	0	274.265	0.178721	0.179003	-0.107044	1	0.0264008	13	0	80.8308	-1.91612e-05
2	0	0	0	0	0	274.885	0.175621	0.175902	-0.10859	1	0.0263338	12	0	81.4508	-1.91012e-05
2	0	0	1	0	0	275.486	0.172621	0.1729	-0.110039	1	0.0262681	12	0	82.051	-1.90256e-05
2	0	0	1	0	0	276.086	0.16962	0.169923	-0.111929	1	0.0262015	12	0	82.651	-1.90193e-05
2	0	0	1	0	0	276.686	0.16662	0.166875	-0.114143	1	0.0261336	12	0	83.251	-1.90476e-05
2	0	0	0	0	0	277.286	0.163619	0.163898	-0.11627	1	0.0260645	12	0	83.8512	-1.90564e-05
2	0	0	0	0	0	277.886	0.160619	0.160915	-0.11826	1	0.025994	12	0	84.4512	-1.90299e-05
2	0	0	1	0	0	278.486	0.157619	0.157895	-0.120622	1	0.0259223	12	0	85.0514	-1.90456e-05
2	0	0	1	0	0	279.086	0.154618	0.154898	-0.123088	1	0.0258492	12	0	85.6514	-1.90661e-05
2	0	0	1	0	0	279.686	0.151618	0.151902	-0.12543	1	0.0257745	12	0	86.2514	-1.90531e-05
2	0	0	0	0	0	280.286	0.148617	0.148886	-0.127412	1	0.0256986	12	0	86.8516	-1.89699e-05
2	0	0	0	0	0	280.886	0.145617	0.145906	-0.129174	1	0.0256217	12	0	87.4516	-1.88473e-05
2	0	0	1	0	0	281.486	0.142617	0.142875	-0.130792	1	0.0255436	12	0	88.0518	-1.86869e-05
2	0	0	1	0	0	282.086	0.139616	0.139882	-0.132312	1	0.0254646	12	0	88.6518	-1.8508e-05
2	0	0	1	0	0	282.686	0.136616	0.136898	-0.133443	1	0.0253849	12	0	89.2518	-1.8268e-05
2	0	0	0	0	0	283.287	0.133615	0.133905	-0.134134	1	0.0253046	12	0	89.852	-1.79612e-05
2	0	0	0	0	0	283.887	0.130615	0.130884	-0.134974	1	0.0252238	12	0	90.452	-1.7666e-05
2	0	0	1	0	0	284.487	0.127615	0.127857	-0.135779	1	0.0251425	12	0	91.0522	-1.73603e-05
2	0	0	1	0	0	285.087	0.124614	0.124904	-0.136037	1	0.0250609	12	0	91.6522	-1.69916e-05
2	0	0	1	0	0	285.687	0.121614	0.121909	-0.136158	1	0.0249792	12	0	92.2522	-1.65988e-05
2	0	0	0	0	0	286.287	0.118613	0.118892	-0.13661	1	0.0248973	12	0	92.8524	-1.62418e-05
2	0	0	0	0	0	286.887	0.115613	0.115874	-0.137133	1	0.0248153	12	0	93.4524	-1.58901e-05
2	0	0	1	0	0	287.487	0.112613	0.112911	-0.137262	1	0.0247329	12	0	94.0526	-1.54984e-05
2	0	0	1	0	0	288.087	0.109612	0.109912	-0.137354	1	0.0246505	12	0	94.6526	-1.50969e-05
2	0	0	1	0	0	288.687	0.106612	0.106921	-0.137472	1	0.024568	12	0	95.2526	-1.46987e-05
2	0	0	0	0	0	289.287	0.103611	0.103867	-0.137636	1	0.0244855	12	0	95.8528	-1.42959e-05
2	0	0	0	0	0	289.887	0.100611	0.10096	-0.138237	1	0.0244026	12	0	96.4528	-1.39564e-05
2	0	0	1	0	0	290.488	0.0976106	0.0978681	-0.138188	1	0.0243197	12	0	97.053	-1.35242e-05
2	0	0	1	0	0	291.088	0.0946102	0.094893	-0.138429	1	0.0242368	12	0	97.653	-1.31359e-05
2	0	0	1	0	0	291.688	0.0916098	0.0918595	-0.139047	1	0.0241535	12	0	98.253	-1.27728e-05
2	0	0	0	0	0	292.288	0.0886094	0.0888303	-0.139195	1	0.02407	12	0	98.8532	-1.23647e-05
2	0	0	0	0	0	292.888	0.085609	0.0858945	-0.139193	1	0.0239866	12	0	99.4532	-1.19559e-05
2	0	0	1	0	0	293.488	0.0826086	0.0828833	-0.139113	1	0.023903	12	0	100.053	-1.15302e-05
2	0	0	1	0	0	294.088	0.0796082	0.0798869	-0.139468	1	0.0238194	12	0	100.653	-1.11417e-05
2	0	0	1	0	0	294.688	0.0766078	0.0768598	-0.139826	1	0.0237357	12	0	101.253	-1.0747e-05
2	0	0	0	0	0	295.288	0.0736074	0.0739006	-0.140128	1	0.0236517	12	0	101.854	-1.03555e-05
2	0	0	0	0	0	295.888	0.070607	0.0708937	-0.140322	1	0.0235675	12	0	102.454	-9.94792e-06
2	0	0	1	0	0	296.488	0.0676066	0.0678783	-0.140954	1	0.023483	12	0	103.054	-9.56771e-06
2	0	0	1	0	0	297.088	0.0646062	0.0648883	-0.141126	1	0.0233985	12	0	103.654	-9.15743e-06
2	0	0	1	0	0	297.688	0.0616058	0.0619079	-0.141179	1	0.0233137	12	0	104.254	-8.74011e-06
2	0	0	0	0	0	298.289	0.0586054	0.0588829	-0.141388	1	0.023229	12	0	104.854	-8.32533e-06
2	0	0	0	0	0	298.889	0.055605	0.055859	-0.141567	1	0.0231442	12	0	105.454	-7.90782e-06
2	0	0	1	0	0	299.489	0.0526046	0.0529274	-0.141795	1	0.0230591	12	0	106.054	-7.50482e-06
2	0	0	1	0	0	300.089	0.0496042	0.0498844	-0.142295	1	0.0229739	12	0	106.654	-7.09832e-06
2	0	0	1	0	0	300.689	0.0466038	0.0469029	-0.142157	1	0.0228887	12	0	107.254	-6.66759e-06
2	0	0	0	0	0	301.289	0.0436034	0.043914	-0.142328	1	0.0228034	12	0	107.854	-6.25021e-06
2	0	0	0	0	0	301.889	0.040603	0.0408911	-0.142783	1	0.0227178	12	0	108.454	-5.83854e-06
2	0	0	1	0	0	302.489	0.0376026	0.0378651	-0.143337	1	0.022632	12	0	109.055	-5.42745e-06
2	0	0	1	0	0	303.089	0.0346022	0.0348411	-0.1437	1	0.0225459	12	0	109.655	-5.00666e-06
2	0	0	1	0	0	303.689	0.0316018	0.0319095	-0.144056	1	0.0224595	12	0	110.255	-4.59674e-06
2	0	0	0	0	0	304.289	0.0286014	0.0288602	-0.144763	1	0.0223728	12	0	110.855	-4.1779e-06
2	0	0	0	0	0	304.889	0.025601	0.0258712	-0.14563	1	0.0222857	12	0	111.455	-3.76762e-06
2	0	0	1	0	0	305.49	0.0226006	0.0228314	-0.145937	1	0.0221982	12	0	112.055	-3.33195e-06
2	0	0	1	0	0	306.09	0.0196002	0.0198892	-0.1462	1	0.0221105	12	0	112.655	-2.90781e-06
2	0	0	1	0	0	306.69	0.0165998	0.0168727	-0.146994	1	0.0220226	12	0	113.255	-2.48019e-06
2	0	0	0	0	0	307.29	0.0135994	0.0138827	-0.147941	1	0.021934	12	0	113.855	-2.05383e-06
2	0	0	0	0	0	307.89	0.010599	0.0108652	-0.148948	1	0.0218449	12	0	114.455	-1.61835e-06
2	0	0	1	0	0	308.49	0.0075986	0.00784338	-0.149892	1	0.0217552	12	0	115.055	-1.17566e-06
2	0	0	1	0	0	309.09	0.00459821	0.00484599	-0.150838	1	0.021665	12	0	115.655	-7.30961e-07
2	0	0	1	0	0	309.69	0.00159781	0.00191968	-0.152176	1	0.0215741	12	0	116.255	-2.92129e-07
2	0	0	1	0	0	310	4.76023e-05	0.000246447	-0.155134	1	0.0215265	12	0	116.565	-3.82322e-08