File: ACS_Catal_2026/Figures_Na_K/main_figures/data/XAS/20240410_2-132_CEY_after_electrolysis/merge_4-K_CEY.nor
# XDI/1.0 Athena/0.9.26
# Element.edge:                  K
# Element.symbol:                Mn
# Column.1:                      energy eV
# Column.2:                      norm
# Column.3:                      nbkg
# Column.4:                      flat
# Column.5:                      fbkg
# Column.6:                      nder
# Column.7:                      nsec
# Athena.e0:                     6553.78
# Athena.eshift:                 0
# Athena.rbkg:                   1.0
# Athena.importance:             1
# Athena.standard:               None
# Athena.bkg_kweight:            2
# Athena.edge_step:              0.3695525
# Athena.fixed_step:             no
# Athena.pre_edge_range:         -150.000 -30.000
# Athena.pre_edge_line:          -0.371072 + 8.17752e-005 * E
# Athena.normalization_range:    150.000 1390.562
# Athena.post_edge_polynomial:   1.513267 - 0.000358575 * E + 3.19233e-08 * E^2 + 0 * E^3
# Athena.spline_range_energy:    0.000 1490.499
# Athena.clamps:                 0 24
# Athena.spline_range_k:         0.000 19.779
# Athena.kweight:                2
# Athena.window:                 hanning
# Athena.phase_correction:       no
# Athena.k_range:                1 12
# Athena.dk:                     1
# Athena.r_range:                1 2
# Athena.dr:                     0.0
# Athena.window:                 hanning
# Athena.plot_multiplier:        1
# Athena.y_offset:               0
# ///
#------------------------
#   e         norm        nbkg        flat        fbkg        nder        nsec
  6213.39       0.00529221   0.00529221   0.00529221   0.00529221  -2.39496e-05   1.7051e-06
  6224.91       0.00512938   0.00512938   0.00512938   0.00512938  -1.93418e-05  -2.39436e-06
  6236.52       0.00464417   0.00464417   0.00464417   0.00464417  -3.04266e-05   3.21295e-06
  6248.09       0.00459489   0.00459489   0.00459489   0.00459489  -1.5479e-06  -2.43879e-06
  6259.52       0.00422777   0.00422777   0.00422777   0.00422777  -3.81829e-05  -4.55639e-09
  6271.22       0.00385135   0.00385135   0.00385135   0.00385135  -1.41564e-05   2.56007e-06
  6282.94       0.00383079   0.00383079   0.00383079   0.00383079  -7.14539e-06  -2.21594e-06
  6294.7       0.00350847   0.00350847   0.00350847   0.00350847  -4.25738e-05   4.92878e-07
  6306.48       0.00325518   0.00325518   0.00325518   0.00325518  -8.30848e-06  -6.93315e-07
  6318.31       0.00290536   0.00290536   0.00290536   0.00290536  -3.48169e-05   1.34211e-06
  6330.14       0.00274602   0.00274602   0.00274602   0.00274602  -1.9794e-05  -1.45604e-06
  6342.04       0.00238338   0.00238338   0.00238338   0.00238338  -3.38696e-05   1.08762e-06
  6354.01       0.00217643   0.00217643   0.00217643   0.00217643  -2.70775e-05   1.7854e-07
  6366       0.00199426   0.00199426   0.00199426   0.00199426  -1.31804e-05  -2.21404e-06
  6378.22       0.00147867   0.00147867   0.00147867   0.00147867  -2.68888e-05   2.333e-06
  6390.1       0.00131116   0.00131116   0.00131116   0.00131116  -1.69362e-05  -6.55165e-07
  6402.41       0.00104019   0.00104019   0.00104019   0.00104019  -3.32803e-05  -1.36601e-06
  6414.56       0.000568294   0.000568294   0.000568294   0.000568294  -2.59146e-05   2.56393e-06
  6426.81       0.000470175   0.000470175   0.000470175   0.000470175  -1.65028e-05  -1.26738e-06
  6439.11       0.000177586   0.000177586   0.000177586   0.000177586  -1.89843e-05  -2.29357e-07
  6451.53      -0.000152658  -0.000152658  -0.000152658  -0.000152658  -1.76773e-05  -3.37641e-07
  6463.99      -0.000536843  -0.000536843  -0.000536843  -0.000536843  -2.8439e-05   1.6835e-06
  6476.49      -0.000663786  -0.000663786  -0.000663786  -0.000663786  -8.59376e-06   9.80815e-07
  6488.86      -0.000637187  -0.000637187  -0.000637187  -0.000637187  -7.52799e-06  -2.39026e-07
  6499.86      -0.000646064  -0.000646064  -0.000646064  -0.000646064   4.04e-05  -8.59111e-07
  6502.25      -0.000661978  -0.000661978  -0.000661978  -0.000661978  -1.86986e-05  -0.000455856
  6502.91      -0.000883167  -0.000883167  -0.000883167  -0.000883167  -0.000425852   2.65028e-05
  6503.53      -0.0010766  -0.0010766  -0.0010766  -0.0010766   0.000124975   0.000772188
  6504.26      -0.000939934  -0.000939934  -0.000939934  -0.000939934   0.000250913   0.000298887
  6505.05      -0.000604001  -0.000604001  -0.000604001  -0.000604001  -0.000462813  -0.000204805
  6505.8      -0.000406497  -0.000406497  -0.000406497  -0.000406497   0.000566048  -0.000385249
  6506.47      -0.000414062  -0.000414062  -0.000414062  -0.000414062  -0.000801591   0.000346443
  6507.09      -0.000286549  -0.000286549  -0.000286549  -0.000286549   0.000284124  -0.000347914
  6507.82      -0.000301766  -0.000301766  -0.000301766  -0.000301766   0.000738813  -0.000692978
  6508.61      -0.000751804  -0.000751804  -0.000751804  -0.000751804  -0.000266041   0.00173632
  6509.37      -0.000144018  -0.000144018  -0.000144018  -0.000144018   0.000120158  -0.000575503
  6510.04       0.000116307   0.000116307   0.000116307   0.000116307  -0.000480138  -0.00126343
  6510.67      -0.000137281  -0.000137281  -0.000137281  -0.000137281   0.000556877   0.000522578
  6511.42      -0.000176229  -0.000176229  -0.000176229  -0.000176229   0.000433688   0.000497247
  6512.21       9.9574e-05   9.9574e-05   9.9574e-05   9.9574e-05  -0.000387591  -0.000924757
  6512.97      -0.000190722  -0.000190722  -0.000190722  -0.000190722   0.000460702  -0.000320032
  6513.64      -0.000599238  -0.000599238  -0.000599238  -0.000599238  -0.000608688   0.00337253
  6514.26       0.00033398   0.00033398   0.00033398   0.00033398   0.000560784  -0.00321397
  6515.01      -0.000151938  -0.000151938  -0.000151938  -0.000151938   0.000308436   0.00100066
  6515.8      -3.9453e-05  -3.9453e-05  -3.9453e-05  -3.9453e-05  -0.000376188   0.00039576
  6516.55       0.000300206   0.000300207   0.000300206   0.000300207   0.000237839  -0.00148413
  6517.22      -9.99319e-05  -9.99318e-05  -9.99319e-05  -9.99318e-05  -0.000415066   0.00227442
  6517.84       0.00040482   0.00040482   0.00040482   0.00040482   0.000636503  -0.000279392
  6518.58       0.000868773   0.000868774   0.000868773   0.000868774   0.00035877  -0.0014112
  6519.38       0.000475952   0.000475953   0.000475952   0.000475953   0.000109056   0.000695727
  6520.13       0.00051502   0.00051502   0.00051502   0.00051502   0.00016074   0.000113291
  6520.79       0.000603538   0.000603538   0.000603538   0.000603538  -0.000384998   0.00060295
  6521.42       0.000921782   0.000921782   0.000921782   0.000921782   0.000899223  -0.000345556
  6522.15       0.00112789   0.00112789   0.00112789   0.00112789  -6.53171e-05  -0.000714934
  6522.95       0.000898767   0.000898767   0.000898767   0.000898767  -0.000102115   0.00101503
  6523.7       0.00128018   0.00128018   0.00128018   0.00128018   0.000439564   0.000103018
  6524.36       0.00166464   0.00166464   0.00166464   0.00166464   4.45359e-05  -0.000339365
  6524.98       0.00189397   0.00189397   0.00189397   0.00189397   0.00093322  -0.0005737
  6525.72       0.00188807   0.00188807   0.00188807   0.00188807  -0.000276746   0.000187082
  6526.52       0.00199954   0.00199954   0.00199954   0.00199954   0.000488899  -0.000380071
  6527.27       0.00187948   0.00187948   0.00187948   0.00187948   0.000601864   0.00198608
  6527.94       0.00272228   0.00272228   0.00272228   0.00272228   0.000141054  -0.000613736
  6528.56       0.00326464   0.00326464   0.00326464   0.00326464   0.000744606  -0.000801108
  6529.3       0.00352006   0.00352006   0.00352006   0.00352006  -4.46244e-05   0.000508045
  6530.1       0.00412026   0.00412026   0.00412026   0.00412026   0.000186364  -0.000903923
  6530.86       0.00414813   0.00414813   0.00414813   0.00414813   0.00165854   0.000916339
  6531.53       0.00461423   0.00461423   0.00461423   0.00461423   0.000528112  -0.000206031
  6532.15       0.00496562   0.00496562   0.00496562   0.00496562   0.00172721   0.00231923
  6532.88       0.00650979   0.00650979   0.00650979   0.00650979   0.00131711  -0.00147799
  6533.68       0.00724724   0.00724724   0.00724724   0.00724724   0.000899259   0.000879898
  6534.44       0.00846715   0.00846715   0.00846715   0.00846715   0.00236897   0.00273782
  6535.11       0.010869   0.010869   0.010869   0.010869   0.00408833   0.00452852
  6535.73       0.014852   0.014852   0.014852   0.014852   0.00964297   0.00902329
  6536.47       0.0239704   0.0239704   0.0239704   0.0239704   0.0170141   0.0121714
  6537.27       0.0416459   0.0416459   0.0416459   0.0416459   0.0245368   0.00238523
  6538.03       0.0598065   0.0598065   0.0598065   0.0598065   0.0181754  -0.0177612
  6538.7       0.0673098   0.0673098   0.0673098   0.0673098   0.0113433   0.00635911
  6539.32       0.0767308   0.0767308   0.0767308   0.0767308   0.0140777  -0.0135669
  6540.06       0.0813056   0.0813056   0.0813056   0.0813056  -0.00295997  -0.0167828
  6540.86       0.0755182   0.0755182   0.0755182   0.0755182  -0.00771202  -0.000197208
  6541.62       0.0699222   0.0699222   0.0699222   0.0699222  -0.00385737   0.0115444
  6542.3       0.0705612   0.0705612   0.0705612   0.0705612   0.00332059   0.00844321
  6542.92       0.0744502   0.0744502   0.0744502   0.0744502   0.0106842   0.0105206
  6543.65       0.0841351   0.0841351   0.0841351   0.0841351   0.0173161   0.0129724
  6544.45       0.102943       0.102943       0.102943       0.102943       0.0298451   0.0194939
  6545.21       0.132527       0.132527       0.132527       0.132527       0.0506606   0.0332554
  6545.89       0.17492       0.17492       0.17492       0.17492       0.0776576   0.040534
  6546.51       0.230015       0.230015       0.230015       0.230015       0.0943472   0.00728102
  6547.25       0.298178       0.298178       0.298178       0.298178       0.0909153   0.00251464
  6548.05       0.374338       0.374338       0.374338       0.374338       0.0982317   0.0084329
  6548.81       0.452208       0.452208       0.452208       0.452208       0.106382       0.0171256
  6549.49       0.529298       0.529298       0.529298       0.529298       0.121183       0.0100989
  6550.11       0.605052       0.605052       0.605052       0.605052       0.11462      -0.0266618
  6550.85       0.680907       0.680907       0.680907       0.680907       0.096018  -0.00565625
  6551.65       0.759855       0.759855       0.759855       0.759855       0.100694       0.00761506
  6552.42       0.839901       0.839901       0.839901       0.839901       0.112969       0.023404
  6553.1       0.922395       0.922395       0.922395       0.922395       0.132453       0.0259881
  6553.72        1.0081        1.0081        1.0081        1.0081       0.13517      -0.0186697
  6554.45        1.10027        2.67765        1.10031        2.67769       0.117237      -0.0149368
  6555.26        1.19154        2.40852        1.19163        2.40861       0.108174      -0.0128082
  6556.02        1.27091        2.17988        1.27104        2.18001       0.0986512  -0.01758
  6556.71        1.33294        1.9981        1.33311        1.99827       0.0819358  -0.0301823
  6557.34        1.37796        1.84812        1.37817        1.84833       0.0548612  -0.0534612
  6558.07        1.40448        1.69371        1.40473        1.69396       0.0233648  -0.0312933
  6558.88        1.41364        1.54623        1.41394        1.54653      -0.00123116  -0.026809
  6559.64        1.40596        1.42677        1.40631        1.42711      -0.0221274  -0.0366841
  6560.33        1.3806        1.33554        1.38099        1.33593      -0.0504538  -0.0387548
  6560.96        1.34202        1.26449        1.34244        1.26491      -0.0662013  -0.00607634
  6561.69        1.29379        1.19451        1.29425        1.19498      -0.0615832   0.00632014
  6562.5        1.24508        1.13295        1.24559        1.13347      -0.0603465   0.00117824
  6563.27        1.19928        1.08712        1.19984        1.08767      -0.0565371   0.00705102
  6563.95        1.16216        1.05574        1.16276        1.05634      -0.0553288   0.0100402
  6564.58        1.132        1.03356        1.13263        1.03419      -0.0375119   0.0294118
  6565.31        1.11102        1.01464        1.1117        1.01531      -0.0205679   0.0156987
  6566.11        1.09795        1.00074        1.09867        1.00146      -0.0116427   0.0128596
  6566.88        1.09336       0.992655        1.09413       0.993417      -0.00214443   0.0101072
  6567.57        1.09434       0.988371        1.09514       0.989172       0.00717024   0.0179306
  6568.2        1.10238       0.985892        1.10322       0.986728       0.0142701   0.00237693
  6568.93        1.11292       0.983549        1.1138       0.984427       0.0152286   0.00348084
  6569.74        1.12687       0.981106        1.12779       0.98203       0.0185705   0.000253407
  6570.51        1.14034       0.978916        1.14131       0.979883       0.0178284  -0.000976806
  6571.2        1.15187       0.977077        1.15288       0.978083       0.0128385  -0.010576
  6571.83        1.15811       0.975494        1.15916       0.976536       0.00371837  -0.0141789
  6572.55        1.15854       0.973781        1.15963       0.974864       0.000147241  -0.00659094
  6573.36        1.1548       0.972002        1.15593       0.97313      -0.0094015  -0.00921717
  6574.13        1.14554       0.97043        1.14671       0.971601      -0.0153489  -0.0113797
  6574.82        1.13146       0.969125        1.13267       0.970334      -0.0250131  -0.0103259
  6575.45        1.11458       0.968025        1.11583       0.969269      -0.0295062  -0.00259927
  6576.17        1.09383       0.966848        1.09511       0.968133      -0.0274592  -0.00139017
  6576.99        1.06966       0.965649        1.07099       0.966978      -0.0317607  -0.00189442
  6577.76        1.04551       0.964622        1.04688       0.965994      -0.0334355  -0.00725067
  6578.45        1.02001       0.96379        1.02142       0.9652      -0.0365193  -0.00201411
  6579.08       0.996243       0.963113       0.997687       0.964558      -0.0361915   0.00890028
  6579.81       0.972945       0.962415       0.974429       0.963899      -0.0279667   0.00794845
  6580.62       0.95199       0.961737       0.953519       0.963266      -0.0266967  -0.000773882
  6581.4       0.931389       0.961188       0.932961       0.96276      -0.0256431  -0.000197992
  6582.1       0.912895       0.960779       0.914505       0.962389      -0.0268163   0.00118316
  6582.72       0.896714       0.960474       0.898358       0.962118      -0.0238872   0.00886842
  6583.44       0.882341       0.960198       0.884024       0.96188      -0.0167583   0.00619119
  6584.25       0.870114       0.959975       0.87184       0.961702      -0.0141053   0.00333447
  6585.04       0.860416       0.959848       0.862185       0.961617      -0.0130028   0.000176099
  6585.73       0.851895       0.959804       0.853701       0.96161      -0.0112139   0.00205444
  6586.36       0.844974       0.959818       0.846814       0.961658      -0.00861995   0.00663721
  6587.08       0.840221       0.959895       0.842099       0.961773      -0.0054836   0.00341471
  6587.89       0.837018       0.960058       0.83894       0.961979      -0.00315412   0.00151121
  6588.67       0.834899       0.960287       0.836863       0.96225      -0.000554111   0.00532539
  6589.38       0.835785       0.96055       0.837786       0.962551       0.00036159  -0.00188258
  6590.01       0.835813       0.960831       0.837847       0.962866       0.000813644   0.000611589
  6590.73       0.836131       0.961203       0.838204       0.963275       0.00147002   0.000734548
  6591.54       0.83697       0.961685       0.839086       0.963801       0.000552605   0.00268963
  6592.68       0.840623       0.962462       0.842799       0.964637       0.00490701   0.00168536
  6596.12       0.863739       0.965441       0.866094       0.967797       0.00792235   0.000365675
  6599.97       0.895186       0.969642       0.89774       0.972196       0.00953159   0.000839179
  6603.63       0.936434       0.974186       0.939175       0.976927       0.0125931   0.000677255
  6607.46       0.989065       0.97915       0.991999       0.982084       0.0140139  -0.000182523
  6611.14        1.037       0.983789        1.04011       0.986906       0.0105371  -0.00141853
  6615        1.06602       0.988187        1.06932       0.991493       0.0039745  -0.00186116
  6618.85        1.06863       0.991973        1.07213       0.995466      -0.00184245  -0.00122043
  6622.55        1.05357       0.995076        1.05724       0.998745      -0.00550114  -0.000475768
  6626.25        1.03203       0.997681        1.03587        1.00152      -0.00524912   0.000459867
  6630.12        1.01638       0.999918        1.02041        1.00394      -0.00214516   0.00103996
  6634        1.01569        1.00169        1.01989        1.00589       0.0011541   0.000466332
  6637.71        1.02178        1.00297        1.02615        1.00734       0.00148388  -0.000216269
  6641.59        1.02489        1.00393        1.02943        1.00847      -0.00019968  -0.000560101
  6645.31        1.02013        1.00451        1.02483        1.00921      -0.00209438  -0.000245796
  6649.2        1.01158        1.00479        1.01645        1.00966      -0.00204952   0.000118192
  6652.92        1.00513        1.00479        1.01016        1.00982      -0.00122129   0.000201195
  6656.81        1.00147        1.00454        1.00666        1.00974      -0.000500536   0.000168771
  6660.53        1.00029        1.0041        1.00563        1.00945      -0.000863994  -0.000340777
  6664.46       0.994058        1.00346       0.999562        1.00896      -0.00228776  -0.000387126
  6668.56       0.981029        1.00263       0.986696        1.0083      -0.0037442  -0.00016576
  6673.67       0.961045        1.00144       0.966913        1.0073      -0.00403946   8.69245e-05
  6678.87       0.943077        1.00012       0.949143        1.00619      -0.00203409   0.00063624
  6684.14       0.942648       0.998787       0.94891        1.00505       0.00185928   0.000652654
  6689.43       0.960209       0.997521       0.966663        1.00398       0.00427116   0.000248223
  6694.67       0.984509       0.996381       0.991148        1.00302       0.00443509  -0.000127891
  6700.04        1.00575       0.995323        1.01257        1.00215       0.00305105  -0.00032638
  6705.28        1.01749       0.994394        1.02449        1.00139       0.00156115  -0.000250616
  6710.54        1.02226       0.993553        1.02944        1.00073       0.000475645  -0.000128838
  6715.85        1.02352       0.992795        1.03086        1.00014       0.00022114  -1.88596e-05
  6721.06        1.02423       0.992131        1.03173       0.999633      -5.91065e-06  -7.40986e-05
  6726.38        1.02287       0.99153        1.03053       0.999191      -0.000775725  -0.000244918
  6731.83        1.01451       0.990988        1.02233       0.998807      -0.00234536  -0.000214656
  6737.1       0.999914       0.990526        1.00788       0.998493      -0.00268442   0.000102136
  6742.63       0.987484       0.990102       0.995601       0.998219      -0.00165575   0.000197699
  6747.89       0.981389       0.989749       0.989644       0.998004      -0.00058912   0.000220514
  6753.25       0.981465       0.989434       0.989856       0.997824       0.000450225   0.000101599
  6758.57       0.984392       0.989157       0.992912       0.997678       0.000482824  -3.14816e-05
  6763.88       0.986414       0.988911       0.995059       0.997556       0.000109886  -0.000102558
  6769.47       0.9855       0.988678       0.994271       0.997449      -0.000415593  -7.78775e-05
  6774.8       0.98232       0.988473       0.991206       0.997359      -0.000617588   2.18283e-05
  6781.56       0.979166       0.988226       0.98819       0.997251      -0.000129368   8.2381e-05
  6788.34       0.979881       0.987981       0.989037       0.997137       0.000236614   3.98005e-05
  6794.94       0.98231       0.987733       0.991585       0.997009       0.000409721  -2.52335e-05
  6801.76       0.983677       0.987467       0.993069       0.996859       7.2817e-05  -1.71705e-05
  6808.58       0.984225       0.987191       0.993725       0.996692       3.7494e-05   1.16092e-05
  6815.39       0.985297       0.98691       0.994897       0.99651       0.00025645   1.93108e-06
  6822.02       0.986428       0.986632       0.996118       0.996322       0.0001249  -9.63736e-06
  6828.86       0.987144       0.986344       0.996918       0.996119       0.000100321  -3.10189e-07
  6835.75       0.98785       0.986055       0.997702       0.995907       0.000197737   2.10866e-05
  6842.44       0.989507       0.985777       0.999426       0.995696       5.5038e-05  -2.92189e-05
  6849.34       0.989828       0.985497       0.999807       0.995476      -1.34737e-06  -2.72672e-05
  6856.32       0.988869       0.985221       0.998901       0.995254      -0.000127691   2.03615e-05
  6863.11       0.988903       0.984963       0.99898       0.99504       8.86776e-05   1.35071e-05
  6869.91       0.989561       0.984719       0.999673       0.994831       0.000101749  -3.53636e-08
  6876.92       0.990238       0.984482        1.00038       0.994623      -9.16734e-05  -6.28451e-05
  6883.97       0.987892       0.984263       0.998053       0.994424      -0.000307245   1.7016e-06
  6890.82       0.985694       0.984071       0.995866       0.994243      -0.000481982  -1.9639e-05
  6897.66       0.982583       0.983902       0.992758       0.994078      -0.000337817   1.31411e-05
  6904.73       0.980024       0.983754       0.990195       0.993925      -0.000513906  -2.72165e-05
  6911.83       0.976122       0.983636       0.986278       0.993792      -0.000370028   4.07728e-05
  6920.14       0.974164       0.983539       0.984293       0.993668      -8.73885e-05   3.79621e-05
  6928.28       0.974823       0.983491       0.984915       0.993582       0.000206289   3.60671e-05
  6936.47       0.977896       0.98349       0.987937       0.993531       0.000494392   2.1222e-05
  6944.65       0.982391       0.983533       0.99237       0.993513       0.000539813  -9.37904e-06
  6952.85       0.986262       0.983621       0.996168       0.993527       0.000399439  -1.55888e-05
  6961.08       0.989092       0.98375       0.998913       0.993571       0.000244077  -2.73939e-05
  6969.35       0.990071       0.98392       0.999794       0.993644      -6.68736e-06  -2.62639e-05
  6977.62       0.989252       0.984129       0.998867       0.993743      -0.000140583  -4.21402e-06
  6985.91       0.988143       0.984375       0.997636       0.993868      -0.000123617  -1.04381e-06
  6994.24       0.986957       0.984657       0.996316       0.994016      -9.9393e-05   2.69194e-06
  7002.58       0.985956       0.984973       0.995169       0.994186      -0.000181459  -9.93657e-06
  7010.93       0.984261       0.985321       0.993316       0.994375      -0.00016843   2.20629e-05
  7019.3       0.984108       0.985699       0.992991       0.994582       8.98283e-06   3.55761e-06
  7027.69       0.984203       0.986105       0.992904       0.994805       0.000118479   1.91667e-05
  7036.5       0.985756       0.98656       0.99425       0.995054       0.000228687   6.7381e-06
  7044.9       0.987723       0.987018       0.996009       0.995304       0.000220227  -1.03858e-06
  7053.31       0.989619       0.987498       0.997685       0.995563       0.000178043  -1.78804e-05
  7061.75       0.990252       0.987999       0.998083       0.99583      -3.6101e-05  -2.04481e-05
  7070.19       0.989427       0.988519       0.997011       0.996103      -0.00012976  -7.47394e-06
  7078.85       0.988036       0.989068       0.995355       0.996387      -9.57215e-05   9.29191e-06
  7088.59       0.987311       0.989703       0.994316       0.996707      -8.38923e-05   4.36446e-06
  7098.18       0.986998       0.990344       0.993677       0.997024       7.77119e-05   1.7754e-05
  7107.76       0.988352       0.991001       0.99469       0.997339       4.88376e-05  -9.82735e-06
  7117.6       0.988812       0.991691       0.994784       0.997663       0.000254943   3.46737e-05
  7127.24       0.992484       0.992382       0.99808       0.997979       0.000268858  -2.21837e-05
  7137.1       0.994081       0.993105       0.999277       0.9983       0.000136056  -4.1822e-07
  7146.8       0.995614       0.99383        1.0004       0.998615       0.000172388  -5.77508e-06
  7156.53       0.996617       0.994572        1.00097       0.998929       7.30185e-05   2.04831e-06
  7166.47       0.997843       0.995344        1.00175       0.999247       5.21283e-05  -8.24984e-06
  7176.42       0.998256       0.996131        1.00169       0.999562       4.76695e-05  -5.79202e-06
  7186.21       0.998095       0.996919        1.00104       0.999869       1.09768e-05   6.01693e-07
  7196.04       0.99799       0.997723        1.00044        1.00017      -1.4865e-05   2.54851e-06
  7206.12       0.998141       0.99856        1.00006        1.00048       1.87517e-05   5.67423e-06
  7216.02       0.998856       0.999395        1.00024        1.00078       9.70414e-05   1.70702e-06
  7226.21       0.999765        1.00027        1.00058        1.00108       5.7171e-05  -2.13972e-06
  7236        1.00043        1.00112        1.00068        1.00136       6.70559e-05  -3.99129e-06
  7246.25        1.00071        1.00202        1.00035        1.00166       4.23202e-05   7.4279e-06
  7256.32        1.00174        1.00291        1.00077        1.00194       0.000116755  -4.09184e-06
  7266.42        1.00235        1.00382        1.00074        1.00221       0.000116323   8.75813e-06
  7276.55        1.00384        1.00474        1.00157        1.00248       0.000145127  -8.23934e-07
  7287.8        1.00539        1.00578        1.00238        1.00276       0.000110055  -5.18526e-06
  7298.69        1.00627        1.0068        1.00251        1.00303       0.000115971   4.90637e-06
  7309.79        1.00776        1.00784        1.00321        1.00329       7.98284e-05  -2.69649e-06
  7320.98        1.00891        1.0089        1.00356        1.00355       0.000188173   3.04101e-06
  7332.17        1.01044        1.00997        1.00426        1.00379       7.75243e-05  -4.21586e-06
  7343.39        1.01144        1.01105        1.0044        1.00402       0.000106037   3.06458e-06
  7354.62        1.01281        1.01214        1.00489        1.00423       9.97037e-05  -3.98231e-06
  7365.88        1.01367        1.01324        1.00485        1.00443       6.18237e-05   2.66238e-06
  7377.2        1.01487        1.01435        1.00513        1.00461       0.00015109  -1.7069e-06
  7388.51        1.01585        1.01547        1.00516        1.00478       4.12488e-05  -2.86745e-06
  7400.14        1.01648        1.01662        1.00478        1.00493       9.80359e-05   7.82113e-06
  7411.76        1.01815        1.01778        1.00544        1.00506       0.00011089  -8.56144e-06
  7423        1.01868        1.01889        1.00495        1.00517       0.000109149   9.95075e-06
  7434.68        1.02056        1.02006        1.00576        1.00526       7.60511e-05  -5.99354e-06
  7446.02        1.0216        1.02119        1.00574        1.00533       0.000128376  -3.01422e-06
  7457.81        1.02227        1.02237        1.00528        1.00537       2.32153e-05   2.01664e-06
  7469.21        1.02319        1.0235        1.00508        1.00539       9.51094e-05   3.21461e-06
  7481.11        1.02459        1.02469        1.00529        1.00539       9.78884e-05  -2.37747e-06
  7492.56        1.02562        1.02582        1.00516        1.00536       0.000115501  -5.44208e-07
  7504.75        1.02664        1.02703        1.00491        1.0053       5.58192e-05  -9.75169e-07
  7516.98        1.02752        1.02824        1.00449        1.00521       0.000122994   1.74763e-06
  7529.69        1.02871        1.02949        1.0043        1.00508       9.45512e-05   4.9682e-06
  7542.29        1.03068        1.03073        1.00488        1.00493       0.000131527  -4.21727e-06
  7554.85        1.03198        1.03196        1.00477        1.00476       0.0001147   1.3754e-06
  7567.53        1.03351        1.03322        1.00485        1.00455       0.000103207  -5.5959e-07
  7580.14        1.03495        1.03446        1.00481        1.00432       6.81907e-05  -4.97201e-06
  7592.95        1.0356        1.03573        1.00394        1.00407       0.000133993   4.52979e-06
  7605.89        1.03703        1.03702        1.0038        1.00379       7.88522e-05  -1.50256e-06
  7618.55        1.03819        1.03829        1.00339        1.0035       8.95511e-05   8.59607e-07
  7631.57        1.03952        1.03961        1.00309        1.00317       8.70097e-05   5.43601e-07
  7644.37        1.04092        1.04091        1.00285        1.00284       0.000151134   1.38112e-06
  7657.45        1.04258        1.04226        1.00281        1.00248       0.000121474  -3.4123e-06
  7670.44        1.04365        1.04361        1.00215        1.00211       5.80995e-05   8.05701e-07
  7683.43        1.04486        1.04497        1.00161        1.00172       0.00010899   1.72553e-06
  7696.52        1.04636        1.04636        1.00132        1.00132       8.8193e-05   8.21124e-07
  7709.6        1.04801        1.04777        1.00115        1.00091       0.000133064  -1.96151e-06
  7723.2        1.04937        1.04926        1.00058        1.00047       0.000117699   1.33938e-06
  7736.49        1.05093        1.05074        1.00023        1.00003       0.000108814  -5.61662e-07
  7749.74        1.05239        1.05223       0.999748       0.999593       0.000118577   1.16121e-06
  7763.14        1.05407        1.05377       0.999441       0.99914       9.83194e-05  -2.14947e-06
  7776.91        1.0554        1.05537       0.998697       0.998667       0.000111338  -2.5718e-07
  7790.92        1.05671        1.05703       0.997857       0.998177       0.000110148   2.10608e-06
  7805.01        1.05844        1.05872       0.997395       0.997672       0.000135468   1.31149e-06
  7818.93        1.06041        1.06041       0.997162       0.997161       0.000120599  -2.64733e-06
  7833.12        1.06189        1.06215       0.996369       0.996624       0.000110272   3.26581e-06
  7847.34        1.06404        1.06391       0.996201       0.99607       0.000162216  -1.68728e-06
  7861.42        1.06584        1.06567       0.995668       0.995503       9.93818e-05  -9.84405e-07
  7876.06        1.0675        1.06752       0.994867       0.994893       0.000133654   4.96928e-07
  7890.45        1.06923        1.06935       0.994147       0.99427       0.000110054   9.91566e-08
  7904.71        1.07096        1.07117       0.993419       0.993628       0.000111174   3.26248e-07
  7919.03        1.07278        1.07301       0.99272       0.992959       0.000171539  -1.33083e-07
  7933.65        1.0746        1.0749       0.991941       0.992246       9.12927e-05   2.86947e-06
  7948.03        1.07698        1.07676       0.991735       0.991516       0.000133639  -6.44686e-06
  7962.77        1.07804        1.07868       0.990095       0.990734       0.000141555   8.36811e-06
  7977.24        1.08086        1.08056       0.990232       0.989933       0.000174765  -3.81941e-06
  7992.29        1.08295        1.08252       0.989499       0.989061       0.00013449   1.03148e-06
  8007.15        1.08525        1.08445       0.988967       0.988161       0.000131767  -3.46405e-06
  8021.75        1.08676        1.08634       0.987659       0.987236       0.000133217   3.04959e-06
  8036.62        1.08897        1.08826       0.986954       0.986251       0.000129282  -2.20444e-06
  8044.14        1.08983        1.08924       0.986334       0.985735       0.000115208  -1.86972e-06