File: ACS_Catal_2026/Figures_Na_K/main_figures/data/XAS/20240410_2-132_CEY_after_electrolysis/merge_4-Na_CEY.nor
# XDI/1.0 Athena/0.9.26
# Element.edge:                  K
# Element.symbol:                Mn
# Column.1:                      energy eV
# Column.2:                      norm
# Column.3:                      nbkg
# Column.4:                      flat
# Column.5:                      fbkg
# Column.6:                      nder
# Column.7:                      nsec
# Athena.e0:                     6553.78
# Athena.eshift:                 0
# Athena.rbkg:                   1.0
# Athena.importance:             1
# Athena.standard:               None
# Athena.bkg_kweight:            2
# Athena.edge_step:              0.3749037
# Athena.fixed_step:             no
# Athena.pre_edge_range:         -150.000 -30.000
# Athena.pre_edge_line:          -0.397705 + 8.43239e-005 * E
# Athena.normalization_range:    150.000 1390.562
# Athena.post_edge_polynomial:   1.478770 - 0.000351385 * E + 3.15229e-08 * E^2 + 0 * E^3
# Athena.spline_range_energy:    0.000 1490.499
# Athena.clamps:                 0 24
# Athena.spline_range_k:         0.000 19.779
# Athena.kweight:                2
# Athena.window:                 hanning
# Athena.phase_correction:       no
# Athena.k_range:                1 12
# Athena.dk:                     1
# Athena.r_range:                1 2
# Athena.dr:                     0.0
# Athena.window:                 hanning
# Athena.plot_multiplier:        1
# Athena.y_offset:               0
# ///
#------------------------
#   e         norm        nbkg        flat        fbkg        nder        nsec
  6213.46       0.0074625   0.0074625   0.0074625   0.0074625   1.20715e-05  -6.78347e-06
  6224.98       0.00715199   0.00715199   0.00715199   0.00715199  -4.85408e-05  -1.45154e-08
  6236.42       0.00684158   0.00684158   0.00684158   0.00684158  -2.57883e-05  -2.7731e-08
  6247.99       0.00652417   0.00652417   0.00652417   0.00652417  -3.24459e-05  -1.4611e-06
  6259.59       0.00600685   0.00600685   0.00600685   0.00600685  -5.17846e-05   3.63709e-07
  6271.29       0.00553382   0.00553382   0.00553382   0.00553382  -2.52067e-05   1.8564e-06
  6282.84       0.00531802   0.00531802   0.00531802   0.00531802  -3.75542e-05  -4.74091e-06
  6294.77       0.00443176   0.00443176   0.00443176   0.00443176  -4.57337e-05   5.1285e-06
  6306.38       0.00427029   0.00427029   0.00427029   0.00427029  -3.34853e-05  -5.48362e-06
  6318.37       0.00332802   0.00332802   0.00332802   0.00332802  -0.000106941   4.59764e-06
  6330.21       0.0030511   0.0030511   0.0030511   0.0030511   4.10611e-05   3.22498e-07
  6342.11       0.00281754   0.00281754   0.00281754   0.00281754  -4.36727e-05  -1.5206e-06
  6354.08       0.002362   0.002362   0.002362   0.002362  -4.97525e-05   2.24964e-06
  6366.07       0.00222389   0.00222389   0.00222389   0.00222389  -2.53651e-05  -1.10606e-06
  6378.12       0.00192238   0.00192238   0.00192238   0.00192238   3.29455e-06  -1.30932e-07
  6390.18       0.00160209   0.00160209   0.00160208   0.00160209  -3.70255e-05  -3.31095e-07
  6402.48       0.00122522   0.00122522   0.00122522   0.00122522  -3.63598e-05  -9.79581e-07
  6414.47       0.000715527   0.000715527   0.000715527   0.000715527  -3.50254e-05   2.04302e-06
  6426.9       0.000496941   0.000496941   0.000496941   0.000496941  -2.64825e-05  -6.34989e-07
  6439.03       0.000188949   0.000188949   0.000188949   0.000188949  -2.19253e-06  -8.02474e-07
  6451.63      -0.000255904  -0.000255904  -0.000255904  -0.000255904  -5.74142e-05   9.70048e-07
  6463.95      -0.000541935  -0.000541935  -0.000541935  -0.000541935   8.52813e-06   1.02908e-06
  6476.27      -0.00067183  -0.00067183  -0.00067183  -0.00067183  -2.19183e-05   1.21618e-06
  6488.81      -0.000612874  -0.000612874  -0.000612874  -0.000612874  -1.76516e-07  -8.56673e-07
  6499.98      -0.00067877  -0.00067877  -0.00067877  -0.00067877  -1.23078e-05  -3.95931e-06
  6502.01      -0.000745315  -0.000745315  -0.000745315  -0.000745315   0.00107921   0.00123547
  6502.86      -0.000193023  -0.000193023  -0.000193023  -0.000193023  -0.000442616  -0.00136522
  6503.64      -0.000706162  -0.000706162  -0.000706162  -0.000706162  -0.000138497   0.00140217
  6504.39      -0.000494119  -0.000494119  -0.000494119  -0.000494119   0.000577858  -0.000444367
  6505.18      -0.000548271  -0.000548271  -0.000548271  -0.000548271  -0.000505743  -3.5819e-05
  6505.56      -0.000582363  -0.000582363  -0.000582363  -0.000582363   0.000930186   0.000401663
  6506.42      -0.000470108  -0.000470108  -0.000470108  -0.000470108  -0.000794975  -0.000677282
  6507.2      -0.000871642  -0.000871641  -0.000871642  -0.000871641  -0.000762147   0.00134244
  6507.95      -0.000575905  -0.000575905  -0.000575905  -0.000575905   0.000893033  -0.000203791
  6508.74      -0.000391889  -0.000391889  -0.000391889  -0.000391889   0.000210807  -0.00133035
  6509.12      -0.000600884  -0.000600884  -0.000600884  -0.000600884  -0.000127376   0.00124175
  6509.98      -0.000484679  -0.000484679  -0.000484679  -0.000484679   8.35115e-05  -0.000411254
  6510.77      -0.000689252  -0.000689252  -0.000689252  -0.000689252  -0.000174574   0.00139152
  6511.52      -0.000173336  -0.000173336  -0.000173336  -0.000173336   0.000153615  -0.00129159
  6512.12      -0.000378071  -0.000378071  -0.000378071  -0.000378071   0.00032469   0.000542671
  6512.7      -0.000453367  -0.000453367  -0.000453367  -0.000453367   0.000568143   0.000468488
  6513.55      -0.000267262  -0.000267262  -0.000267262  -0.000267262  -5.5485e-05  -0.000358626
  6514.33      -0.000365365  -0.000365365  -0.000365365  -0.000365365  -0.000342708   0.000663576
  6515.09      -0.000122458  -0.000122458  -0.000122458  -0.000122458   0.000542102  -0.00070719
  6515.88      -0.000313201  -0.000313201  -0.000313201  -0.000313201  -0.000429683   0.00266137
  6516.26       0.000192356   0.000192356   0.000192356   0.000192356  -0.000444484  -0.00262907
  6517.12       8.23805e-05   8.23805e-05   8.23805e-05   8.23805e-05   0.000653483   0.000894742
  6517.9       0.000653833   0.000653833   0.000653833   0.000653833   0.000468752  -0.00166912
  6518.66       0.00035559   0.00035559   0.00035559   0.00035559   0.000153999   0.00109965
  6519.45       0.000736008   0.000736008   0.000736008   0.000736008   0.000302943   0.000796602
  6519.84       0.00109892   0.00109892   0.00109892   0.00109892  -0.000981157  -0.00203505
  6520.7       0.000941104   0.000941104   0.000941104   0.000941104   0.000515553   0.000321391
  6521.49       0.00104038   0.00104038   0.00104038   0.00104038   0.000668609   0.000337011
  6522.24       0.00130768   0.00130768   0.00130768   0.00130768   2.32001e-05  -0.000218263
  6523.03       0.00145055   0.00145055   0.00145055   0.00145055   0.000172233   8.38182e-05
  6523.42       0.00153953   0.00153953   0.00153953   0.00153953   0.000419669  -0.00012963
  6524.28       0.00167559   0.00167559   0.00167559   0.00167559  -0.00014813  -2.24121e-05
  6525.05       0.00178243   0.00178243   0.00178243   0.00178243   0.000352635  -0.000381334
  6525.81       0.00169095   0.00169095   0.00169095   0.00169095   0.00012034   0.00068265
  6526.61       0.00202814   0.00202814   0.00202814   0.00202814   0.000555531   0.000931359
  6526.99       0.00239766   0.00239766   0.00239766   0.00239766   0.000337445  -0.000978196
  6527.85       0.00277072   0.00277072   0.00277072   0.00277072   0.000626802  -0.000194672
  6528.64       0.00296299   0.00296299   0.00296299   0.00296299   0.00096151  -0.000829232
  6529.4       0.00272478   0.00272478   0.00272478   0.00272478  -0.000455501   0.00187831
  6530.19       0.00367066   0.00367066   0.00367066   0.00367066   0.000655386  -0.0015005
  6530.58       0.00378668   0.00378668   0.00378668   0.00378668   0.00134347   0.000357258
  6531.44       0.00421773   0.00421773   0.00421773   0.00421773   0.000291274   0.000933357
  6532.23       0.00531367   0.00531367   0.00531367   0.00531367   0.00133445  -0.000211745
  6532.98       0.00626341   0.00626341   0.00626341   0.00626341   0.000961763  -0.00057858
  6533.78       0.00689512   0.00689512   0.00689512   0.00689512   0.00121434   0.000643723
  6534.16       0.0073412   0.0073412   0.0073412   0.0073412   0.00271208   0.00345987
  6535.03       0.0100076   0.0100076   0.0100076   0.0100076   0.00411407   0.00383842
  6535.81       0.0153444   0.0153444   0.0153444   0.0153444   0.0109792   0.010869
  6536.57       0.0260195   0.0260195   0.0260195   0.0260195   0.0181378   0.0113779
  6537.37       0.0445565   0.0445565   0.0445565   0.0445565   0.0250686   0.00248538
  6537.75       0.0540585   0.0540585   0.0540585   0.0540585   0.0186831  -0.0151835
  6538.77       0.0679865   0.0679865   0.0679865   0.0679865   0.0110542  -0.00101236
  6539.4       0.0760642   0.0760642   0.0760642   0.0760642   0.0111034  -0.0134327
  6540.16       0.0788915   0.0788914   0.0788914   0.0788914  -0.0042443  -0.0139955
  6540.96       0.0728763   0.0728763   0.0728763   0.0728763  -0.00691589   0.00263356
  6541.35       0.0705709   0.0705709   0.0705709   0.0705709  -0.0032642   0.00852974
  6542.37       0.0708835   0.0708835   0.0708835   0.0708835   0.00394324   0.0106623
  6543       0.0764274   0.0764274   0.0764274   0.0764274   0.0139011   0.0109262
  6543.75       0.0885931   0.0885931   0.0885931   0.0885931   0.0212599   0.0148269
  6544.55       0.110966       0.110966       0.110966       0.110966       0.0353634   0.0238985
  6545.3       0.146015       0.146015       0.146015       0.146015       0.0603358   0.0367363
  6545.96       0.194074       0.194074       0.194074       0.194074       0.0880531   0.0424239
  6546.59       0.256746       0.256746       0.256746       0.256746       0.102161      -0.000558709
  6547.34       0.330971       0.330971       0.330971       0.330971       0.0956451  -0.00332429
  6548.15       0.408425       0.408425       0.408425       0.408425       0.0969732   0.00518123
  6548.9       0.48411       0.48411       0.48411       0.48411       0.104909       0.0156038
  6549.57       0.558163       0.558163       0.558163       0.558163       0.116111       0.0051856
  6550.2       0.630668       0.630668       0.630668       0.630668       0.109133      -0.0235247
  6550.95       0.705288       0.705288       0.705288       0.705288       0.0950981  -0.00166486
  6551.76       0.783846       0.783846       0.783846       0.783846       0.0988478   0.00672704
  6552.51       0.86112       0.86112       0.86112       0.86112       0.110187       0.0257217
  6553.18       0.942171       0.942171       0.942171       0.942171       0.132563       0.0243724
  6553.81        1.028        2.36544        1.028        2.36544       0.132368      -0.0249547
  6554.56        1.11801        2.64512        1.11806        2.64517       0.111113      -0.0147504
  6555.36        1.20459        2.38079        1.20469        2.38089       0.102894      -0.0114825
  6556.12        1.27928        2.15902        1.27942        2.15916       0.093411  -0.0141507
  6556.79        1.33859        1.98341        1.33877        1.98359       0.0837384  -0.0285358
  6557.42        1.38307        1.83504        1.38328        1.83526       0.0543129  -0.0509417
  6558.17        1.41056        1.67714        1.41082        1.6774       0.0212186  -0.0334945
  6558.98        1.41813        1.53212        1.41844        1.53243      -0.00285748  -0.0332785
  6559.74        1.40522        1.41493        1.40557        1.41528      -0.0322152  -0.0419383
  6560.41        1.37341        1.32612        1.37381        1.32651      -0.0614016  -0.0390314
  6561.04        1.32806        1.25483        1.32849        1.25526      -0.0741682   0.00466957
  6561.8        1.27594        1.18304        1.27642        1.18351      -0.0659008   0.00849151
  6562.6        1.22608        1.12176        1.2266        1.12228      -0.0590727   0.00365327
  6563.36        1.1813        1.0766        1.18187        1.07717      -0.0551878   0.0103224
  6564.03        1.14682        1.04571        1.14743        1.04631      -0.0487415   0.0133585
  6564.66        1.11966        1.02328        1.1203        1.02392      -0.0329456   0.0310784
  6565.41        1.10282        1.00359        1.10351        1.00428      -0.0156996   0.0137593
  6566.21        1.09377       0.98983        1.0945       0.990563      -0.00768265   0.0102349
  6566.98        1.09137       0.982003        1.09215       0.982781       8.22108e-05   0.0121776
  6567.65        1.09514       0.97812        1.09595       0.978937       0.0114601   0.0122109
  6568.28        1.10356       0.976073        1.10441       0.976926       0.014897   0.00569373
  6569.03        1.11645       0.974458        1.11735       0.975354       0.0168822  -0.00159628
  6569.84        1.12925       0.972887        1.13019       0.97383       0.0171785  -0.000141903
  6570.61        1.14133       0.971496        1.14231       0.972483       0.0134881  -0.00447111
  6571.28        1.14979       0.970351        1.15082       0.971376       0.011711  -0.00747605
  6571.91        1.15469       0.969353        1.15575       0.970414       0.00227359  -0.0129021
  6572.66        1.15402       0.968246        1.15513       0.96935      -0.00492023  -0.0103439
  6573.47        1.14662       0.967152        1.14777       0.968302      -0.0106771  -0.0053534
  6574.23        1.13636       0.966209        1.13755       0.967402      -0.0172983  -0.00914098
  6574.9        1.12286       0.96545        1.12409       0.966681      -0.025816  -0.0131893
  6575.54        1.10487       0.964796        1.10614       0.966063      -0.0289366  -0.000924545
  6576.28        1.08321       0.9641        1.08452       0.965409      -0.026488   0.00188447
  6577.09        1.06098       0.963432        1.06233       0.964787      -0.0300084  -0.00451244
  6577.86        1.03718       0.962883        1.03858       0.96428      -0.0328355  -0.00466323
  6578.54        1.01368       0.962459        1.01511       0.963894      -0.0361974  -0.0037305
  6579.17       0.990435       0.962119       0.991905       0.96359      -0.0337957   0.0104671
  6579.92       0.968024       0.96178       0.969536       0.963293      -0.0276939   0.00221849
  6580.73       0.945217       0.961491       0.946775       0.963048      -0.0255672   0.00553201
  6581.5       0.927047       0.961289       0.928648       0.962889      -0.0264715  -0.0026612
  6582.18       0.909716       0.961167       0.911354       0.962805      -0.0252146  -0.00129088
  6582.81       0.893073       0.9611       0.894745       0.962773      -0.0231205   0.0128663
  6583.56       0.879773       0.961076       0.881488       0.962791      -0.0160632   0.00348638
  6584.37       0.867691       0.961117       0.86945       0.962875      -0.0141283   0.0033437
  6585.14       0.858203       0.961217       0.860004       0.963017      -0.0109794   0.000869992
  6585.82       0.850228       0.961354       0.852066       0.963192      -0.01173   0.0036397
  6586.45       0.844344       0.961518       0.846217       0.963391      -0.00700203   0.00521017
  6587.19       0.839946       0.961761       0.841859       0.963674      -0.00431351   0.00434297
  6588.01       0.837991       0.962079       0.839949       0.964037      -0.00154951  -0.00042062
  6588.78       0.835862       0.962435       0.837861       0.964435      -0.000690787   0.00197317
  6589.47       0.83497       0.962792       0.837007       0.964828      -0.00167865   0.00596029
  6590.1       0.836562       0.963152       0.838633       0.965222       0.00214758  -0.00273447
  6590.85       0.837074       0.963614       0.839185       0.965725       0.00196818   0.00122237
  6591.66       0.83843       0.964162       0.840585       0.966317       0.00134235   0.00170902
  6592.78       0.841852       0.964992       0.844067       0.967206       0.00556752   0.00227277
  6596.06       0.867271       0.967826       0.869661       0.970215       0.0088757   0.000266874
  6599.89       0.900705       0.971746       0.903296       0.974337       0.00954695   0.000592173
  6603.73       0.943525       0.976092       0.946316       0.978883       0.0124336   0.000664026
  6607.4       0.993207       0.98036       0.996186       0.983339       0.0135894  -0.000407395
  6611.24        1.03954       0.98471        1.04272       0.987884       0.0097346  -0.0014092
  6614.92        1.06385       0.988516        1.06721       0.991874       0.00321956  -0.00158505
  6618.78        1.06562       0.991993        1.06917       0.995542      -0.00209531  -0.00119939
  6622.48        1.05094       0.994846        1.05467       0.998576      -0.00516677  -0.000445767
  6626.34        1.02926       0.997355        1.03317        1.00127      -0.0050087   0.000504161
  6630.05        1.01574       0.999341        1.01983        1.00343      -0.00169907   0.000903151
  6633.93        1.01528        1.00101        1.01955        1.00529       0.00109761   0.000478829
  6637.63        1.0214        1.00224        1.02584        1.00669       0.00134969  -0.000274868
  6641.52        1.02386        1.00318        1.02848        1.0078      -0.0004132  -0.000464162
  6645.4        1.01891        1.00379        1.02371        1.00859      -0.00194094  -0.000247162
  6649.11        1.01078        1.00409        1.01574        1.00906      -0.00186635   0.000169609
  6653.02        1.00467        1.00415        1.0098        1.00929      -0.00135763   0.000136531
  6656.74        1.00086        1.00399        1.00615        1.00928      -0.000668882   0.000117881
  6660.63       0.998651        1.00362        1.00411        1.00908      -0.00082801  -0.000273249
  6664.37       0.99272        1.0031       0.998335        1.00872      -0.0023704  -0.000362808
  6668.3       0.981176        1.00242       0.986952        1.0082      -0.00341842  -0.00012835
  6673.65       0.962227        1.00132       0.96822        1.00731      -0.00361712   6.83931e-05
  6678.84       0.945669        1.00013       0.951866        1.00633      -0.00186358   0.000578899
  6684.09       0.946141       0.998892       0.95254        1.00529       0.00194844   0.000598062
  6689.55       0.963054       0.997645       0.96966        1.00425       0.00391477   0.000232223
  6694.41       0.984017       0.99662       0.990801        1.0034       0.0040625  -0.000116163
  6700.11        1.00517       0.995516        1.01216        1.00251       0.00309855  -0.000304801
  6705.17        1.01586       0.994623        1.02302        1.00179       0.00142039  -0.000211958
  6710.62        1.02098       0.993746        1.02834        1.0011       0.00065398  -0.000102415
  6715.93        1.02314       0.992971        1.03067        1.0005       0.000289035  -3.09152e-05
  6721.14        1.02441       0.992282        1.03211       0.99998       4.8112e-05  -0.000108449
  6726.48        1.02265       0.991644        1.03052       0.99951      -0.00091599  -0.00023468
  6731.72        1.01447       0.991079        1.0225       0.999106      -0.00215247  -0.000211398
  6737        1.0003       0.990568        1.00849       0.998752      -0.00271235   6.40481e-05
  6742.52       0.987314       0.990088       0.995657       0.998431      -0.00186974   0.000207999
  6747.79       0.980955       0.989678       0.989445       0.998167      -0.000593428   0.000217485
  6753.34       0.980911       0.989291       0.98955       0.99793       0.000452343   0.000104629
  6758.65       0.983813       0.988958       0.99259       0.997736       0.000446291  -5.38753e-05
  6763.98       0.98517       0.988656       0.994082       0.997568       3.99871e-05  -9.34898e-05
  6769.39       0.983867       0.988376       0.99291       0.997419      -0.000237906  -1.64782e-05
  6774.89       0.982055       0.988113       0.991227       0.997284      -0.000608367  -1.01315e-05
  6781.66       0.979406       0.987812       0.988728       0.997135      -3.37731e-05   8.3054e-05
  6788.24       0.980531       0.987533       0.989993       0.996995       0.00024686   2.60603e-05
  6794.82       0.982784       0.987259       0.992378       0.996853       0.000366259  -2.16272e-05
  6801.67       0.984118       0.986971       0.993842       0.996695      -4.19147e-05  -4.97135e-05
  6808.48       0.983199       0.986684       0.993045       0.996529       1.07995e-05   5.14877e-05
  6815.3       0.984741       0.986398       0.9947       0.996357       0.000256885   3.08901e-06
  6821.91       0.986371       0.986123       0.996433       0.996185       0.000125679  -2.88409e-05
  6828.77       0.986749       0.985842       0.996909       0.996002       8.71136e-05   1.03798e-05
  6835.84       0.987657       0.985558       0.997912       0.995812       0.000245754   1.48475e-05
  6842.54       0.989202       0.985296       0.999537       0.995631       0.000127144  -2.83085e-05
  6849.26       0.989481       0.985042       0.99989       0.99545      -6.19733e-05  -1.88406e-05
  6856.23       0.988858       0.984788       0.999335       0.995265       3.82659e-05   6.06751e-06
  6863.22       0.988521       0.984547       0.999058       0.995084      -7.45893e-05   1.72377e-05
  6870.02       0.989014       0.984325       0.999602       0.994913       4.74829e-05  -6.80215e-06
  6876.84       0.989194       0.984118       0.999825       0.994749      -0.000155993  -4.84283e-05
  6883.88       0.986977       0.983922       0.997644       0.994589      -0.00030552   1.06232e-06
  6890.92       0.984813       0.983745       0.995508       0.994441      -0.000331136  -1.62381e-05
  6897.77       0.981925       0.983594       0.99264       0.994308      -0.000456085   1.69273e-05
  6904.65       0.979825       0.983463       0.990551       0.994189      -0.00039063  -2.41954e-05
  6911.94       0.976341       0.98335       0.98707       0.994079      -0.000316006   2.78055e-05
  6919.85       0.974217       0.983259       0.98494       0.993982      -8.96503e-05   5.10653e-05
  6927.98       0.975409       0.983203       0.986113       0.993908       0.000179093   1.66537e-05
  6936.15       0.977711       0.983187       0.988387       0.993863       0.000403247   2.56502e-05
  6944.74       0.98198       0.983211       0.992614       0.993844       0.000509368  -7.01924e-06
  6952.95       0.985574       0.983272       0.996155       0.993853       0.000401492  -1.42956e-05
  6961.2       0.988215       0.983371       0.998732       0.993888       0.000232859  -2.33043e-05
  6969.47       0.989269       0.983505       0.99971       0.993947      -4.99064e-06  -2.62818e-05
  6977.74       0.988527       0.983673       0.998882       0.994028      -7.91335e-05   2.04729e-06
  6986.03       0.987925       0.983875       0.998181       0.994131      -0.00013476  -3.43071e-06
  6994.35       0.987083       0.98411       0.997228       0.994255      -9.22638e-05  -1.14461e-05
  7002.69       0.985445       0.984376       0.995468       0.994398      -0.000211936   7.61019e-06
  7011.04       0.984336       0.984671       0.994223       0.994559      -0.000157401   2.98039e-06
  7019.42       0.983432       0.984996       0.993172       0.994737      -1.13034e-06   1.88435e-05
  7027.81       0.983852       0.985349       0.993434       0.994931       0.000105411   1.00369e-05
  7036.19       0.984976       0.985726       0.994388       0.995137       0.000185989   6.31877e-07
  7044.59       0.986148       0.986129       0.995377       0.995357       0.000213171   1.28892e-05
  7053.42       0.988362       0.986576       0.997386       0.9956       9.16299e-05  -2.74676e-05
  7061.86       0.98848       0.987026       0.997296       0.995842       3.70239e-06  -8.04303e-06
  7070.31       0.988024       0.987497       0.99662       0.996092      -6.48196e-05  -6.05664e-06
  7078.96       0.987115       0.987998       0.995472       0.996355      -0.00015231  -2.30659e-06
  7088.49       0.985913       0.988572       0.993993       0.996652      -3.90302e-05   1.56169e-05
  7098.25       0.986167       0.98918       0.993948       0.996961       6.46976e-05   7.36336e-06
  7107.85       0.987109       0.989797       0.99458       0.997268       0.000131444   4.56486e-06
  7117.5       0.988471       0.990436       0.995615       0.99758       0.000217517   1.63121e-05
  7127.35       0.991444       0.991107       0.998238       0.997901       0.000220646  -1.5924e-05
  7136.99       0.992842       0.991782       0.999277       0.998217       0.000148442  -2.13457e-06
  7146.94       0.994078       0.992495        1.00013       0.998544       9.46794e-05  -4.4212e-07
  7156.45       0.995219       0.993193        1.00088       0.998856       0.000101627   1.35721e-06
  7166.39       0.996542       0.993938        1.00179       0.999182       0.000108779  -1.45455e-05
  7176.35       0.996428       0.994699        1.00124       0.999508      -2.21423e-07   3.18186e-06
  7186.35       0.996631       0.995478        1.00099       0.999832      -3.38392e-06  -4.07654e-07
  7195.96       0.996788       0.99624        1.00069        1.00014      -3.62495e-06  -3.74197e-06
  7206.04       0.996581       0.997051       0.999991        1.00046       3.24568e-05   1.03654e-05
  7216.16       0.997431       0.997879        1.00033        1.00078       6.98137e-05  -7.55621e-06
  7225.9       0.997517       0.998687       0.999908        1.00108       5.59349e-05   7.77589e-06
  7236.13       0.998403       0.999545        1.00024        1.00139       6.98701e-05  -2.14916e-06
  7246.17       0.999055        1.0004        1.00034        1.00168       4.73664e-05   6.78099e-07
  7256.23       0.99978        1.00126        1.00049        1.00197       0.000107478   4.06081e-06
  7266.34        1.00091        1.00214        1.00102        1.00225       0.000109806   4.51618e-07
  7276.69        1.00212        1.00304        1.00161        1.00253       0.000169528   4.27427e-06
  7287.48        1.00387        1.00399        1.00268        1.00281       0.000105651  -5.34167e-06
  7298.6        1.00502        1.00498        1.00312        1.00308       0.000103371   6.43485e-07
  7309.7        1.00626        1.00597        1.00362        1.00334       9.54033e-05  -3.33849e-06
  7320.88        1.0071        1.00698        1.0037        1.00358       9.70088e-05   3.7496e-06
  7332.27        1.00844        1.00801        1.00425        1.00382       0.000111354   6.80019e-09
  7343.5        1.00976        1.00903        1.00476        1.00403       0.000106847  -3.11952e-06
  7354.73        1.0107        1.01006        1.00487        1.00423       6.85956e-05  -2.92339e-06
  7366        1.01126        1.01109        1.00458        1.00441       8.53687e-05   3.66116e-06
  7377.32        1.01229        1.01214        1.00473        1.00458       7.43168e-05  -9.43701e-07
  7388.64        1.01319        1.01318        1.00474        1.00473       5.31573e-05   5.3741e-08
  7400.03        1.0141        1.01424        1.00473        1.00486       0.000111417   3.75233e-06
  7411.42        1.01552        1.0153        1.00519        1.00498       0.000115065  -7.72924e-07
  7423.12        1.01686        1.01639        1.00554        1.00507       0.000107188  -2.11774e-06
  7434.58        1.0179        1.01747        1.00558        1.00514       8.18403e-05  -1.44683e-06
  7446.15        1.01875        1.01855        1.0054        1.0052       9.98549e-05   1.98022e-06
  7457.7        1.01987        1.01963        1.00546        1.00523       8.1346e-05  -2.32119e-06
  7469.34        1.02067        1.02072        1.00518        1.00524       0.000104079   8.83314e-07
  7481.01        1.02159        1.02182        1.005        1.00523       4.80431e-05   1.55868e-06
  7492.73        1.02273        1.02292        1.005        1.00519       8.47129e-05  -2.62798e-06
  7504.44        1.02352        1.02401        1.00463        1.00513       8.60251e-05   9.57515e-07
  7516.89        1.0245        1.02518        1.00436        1.00504       9.86737e-05   1.03597e-06
  7529.6        1.02567        1.02636        1.00422        1.00492       9.16752e-05   1.56432e-06
  7541.95        1.02705        1.02752        1.0043        1.00477       0.000141185   3.995e-06
  7554.75        1.02912        1.02872        1.005        1.0046       0.000112  -2.72825e-06
  7567.4        1.03074        1.0299        1.00524        1.0044       0.000111535  -3.07531e-06
  7580.25        1.03187        1.03111        1.00494        1.00418       0.00010148  -3.68943e-06
  7592.82        1.03239        1.0323        1.00403        1.00394       4.77046e-05   3.15896e-06
  7605.53        1.03342        1.03351        1.00359        1.00368       6.32826e-05   2.12392e-07
  7618.67        1.03452        1.03476        1.00315        1.00338       0.000111413   2.04547e-06
  7631.44        1.03594        1.03599        1.00302        1.00308       0.000120922  -1.82917e-06
  7644.26        1.03705        1.03724        1.00257        1.00276       3.26703e-05  -1.38249e-06
  7657.57        1.03797        1.03854        1.00184        1.00241       0.000128921   4.84097e-06
  7670.57        1.0397        1.03983        1.00191        1.00205       0.000100378  -1.38897e-06
  7683.56        1.04118        1.04113        1.00173        1.00168       9.32162e-05  -1.4829e-06
  7696.64        1.04243        1.04246        1.00126        1.00129       0.000136139  -1.04885e-06
  7709.77        1.0435        1.04381        1.00058        1.00089       0.000109159   4.64008e-06
  7723.11        1.0454        1.04519        1.00068        1.00047       9.34136e-05  -2.13846e-06
  7736.1        1.04688        1.04657        1.00037        1.00005       0.000125061  -1.29877e-06
  7749.62        1.04819        1.04802       0.99979       0.999615       9.33497e-05   1.68714e-06
  7763.02        1.04979        1.04948       0.999479       0.999174       0.000124567  -1.88482e-06
  7776.78        1.05106        1.05101       0.998768       0.998714       0.000108866   4.25248e-07
  7790.78        1.05244        1.05259       0.998093       0.998239       7.49372e-05   1.15304e-06
  7805.13        1.05409        1.05423       0.997601       0.99774       0.000129776   1.1713e-06
  7819.06        1.05593        1.05585       0.997324       0.997242       0.000121534  -8.68275e-07
  7833.25        1.05762        1.05751       0.996837       0.99672       9.57584e-05   9.87986e-07
  7847.21        1.05949        1.05916       0.996518       0.996187       0.000146776  -3.19104e-06
  7861.57        1.06075        1.06086       0.995503       0.995616       9.98577e-05   2.08598e-06
  7875.66        1.06241        1.06255       0.994892       0.995033       0.000145649  -5.19897e-07
  7890.05        1.064        1.06428       0.994128       0.994408       0.000100667   3.2195e-06
  7904.58        1.06628        1.06602       0.993999       0.993748       0.000121226  -5.03546e-06
  7919.2        1.0675        1.06779       0.992762       0.993048       0.000112911   1.24052e-06
  7933.78        1.06899        1.06954       0.991756       0.992313       0.00010743   2.71413e-06
  7948.15        1.07101        1.07127       0.991293       0.991549       0.000130544  -1.23557e-06
  7962.63        1.07279        1.073       0.990528       0.990737       0.000125227   1.54444e-06
  7977.38        1.07493        1.07475       0.990042       0.989863       0.000134543  -1.22635e-06
  7992.16        1.07681        1.07649       0.98925       0.988937       0.000129462   6.64191e-07
  8007.02        1.07884        1.07823       0.988562       0.987952       0.000135777  -8.60774e-07
  8021.9        1.08068        1.07995       0.987647       0.986909       0.000118855   8.98934e-08
  8036.77        1.08255        1.08164       0.986715       0.985806       0.000120144  -2.60666e-06
  8044.01        1.08318        1.08246       0.98597       0.985246       8.71279e-05  -4.55923e-06