File: ACS_Catal_2026/Figures_Na_K/main_figures/data/EC/20240401_2-128_CV_cycles_alpha_gamma/alpha/20240328_2-128_005_alpha_K-2_02_PEIS_C01.mpt
EC-Lab ASCII FILE
Nb header lines : 63

Potentio Electrochemical Impedance Spectroscopy

Run on channel : 1 (SN 66412)
User :
CE vs. WE compliance from -10 V to 10 V
Electrode connection : standard
Potential control : Ewe
Ewe ctrl range : min = -1.00 V, max = 1.00 V
Safety Limits :
	Do not start on E overload
Acquisition started on : 04/01/2024 19:56:53.320
Loaded Setting File :  C:\Users\NakamuraT\Documents\EC-Lab\Data\Yatsuzuka\20240328_2-129_UV-vis_K_Na_diff\20240328_2-129_001_preconditioning+CV_inK.mps
Saved on :
	File : 20240328_2-128_005_alpha_K-2_02_PEIS_C01.mpr
	Directory : C:\Users\NakamuraT\Documents\EC-Lab\Data\Yatsuzuka\20240401_2-128_CV_cycles_alpha_gamma\
	Host : 192.109.209.100
Device : SP-150e (SN .003411)
Address : 192.109.209.236
EC-Lab for windows v11.50 (software)
Internet server v11.50 (firmware)
Command interpretor v11.50 (firmware)
Electrode material :
Initial state :
Electrolyte :
Comments :
Electrode surface area : 0.001 cm2
Characteristic mass : 0.001 g
Equivalent Weight : 0.000 g/eq.
Density : 0.000 g/cm3
Volume (V) : 0.001 cm3
Cycle Definition : Charge/Discharge alternance
Mode                Single sine
E (V)               0.4500
vs.                 Ref
tE (h:m:s)          0:00:0.0000
record              0
dI                  0.000
unit dI             mA
dt (s)              0.000
fi                  500.000
unit fi             kHz
ff                  1.000
unit ff             Hz
Nd                  6
Points              per decade
spacing             Logarithmic
Va (mV)             10.0
pw                  0.10
Na                  2
corr                0
E range min (V)     -1.000
E range max (V)     1.000
I Range             Auto
Bandwidth           5
nc cycles           0
goto Ns'            0
nr cycles           0
inc. cycle          0

freq/Hz	Re(Z)/Ohm	-Im(Z)/Ohm	|Z|/Ohm	Phase(Z)/deg	time/s	<Ewe>/V	<I>/mA	Cs/uF	Cp/uF	cycle number	I Range	|Ewe|/V	|I|/A	Ns	(Q-Qo)/mA.h	Re(Y)/Ohm-1	Im(Y)/Ohm-1	|Y|/Ohm-1	Phase(Y)/deg	Re(C)/nF	Im(C)/nF	|C|/nF	Phase(C)/deg	Re(M)	Im(M)	|M|	Phase(M)/deg	Re(Permittivity)	Im(Permittivity)	|Permittivity|	Phase(Permittivity)/deg	Re(Resistivity)/Ohm.cm	Im(Resistivity)/Ohm.cm	|Resistivity|/Ohm.cm	Phase(Resistivity)/deg	Re(Conductivity)/mS/cm	Im(Conductivity)/mS/cm	|Conductivity|/mS/cm	Phase(Conductivity)/deg	Tan(Delta)	Loss Angle(Delta)/deg	dq/mA.h
500019	34.9619	-0.400609	34.9642	0.656492	200.666	0.450429	0.104444	-0.794536	-0.000104306	1	11	0.00816427	0.000233504	0	4.93794e-05	0.0285988	-0.000327698	0.0286007	-0.656492	-0.104306	9.10295	9.10355	-90.6565	0.0000000E+000	0.0000000E+000	0.0000000E+000	90.6565	0.0000000E+000	0.0000000E+000	0.0000000E+000	-90.6565	0.0000000E+000	0.0000000E+000	0.0000000E+000	0.656492	0.0000000E+000	0.0000000E+000	0.0000000E+000	-0.656492	87.2719	89.3435	4.93794e-05
339899	25.8515	-2.81616	26.0044	6.21708	201.527	0.450288	-0.00021824	-0.166269	-0.00195	1	10	0.00986075	0.000379195	0	5.22772e-05	0.0382289	-0.00416451	0.038455	-6.21708	-1.95	17.9003	18.0062	-96.2171	0.0000000E+000	0.0000000E+000	0.0000000E+000	96.2171	0.0000000E+000	0.0000000E+000	0.0000000E+000	-96.2171	0.0000000E+000	0.0000000E+000	0.0000000E+000	6.21708	0.0000000E+000	0.0000000E+000	0.0000000E+000	-6.21708	9.17967	83.7829	2.89784e-06
231063	21.8589	-1.92473	21.9435	5.03204	201.949	0.450263	-0.00588316	-0.357867	-0.00275326	1	10	0.010787	0.000491582	0	5.14273e-05	0.0453959	-0.00399721	0.0455716	-5.03204	-2.75326	31.2685	31.3895	-95.032	0.0000000E+000	0.0000000E+000	0.0000000E+000	95.032	0.0000000E+000	0.0000000E+000	0.0000000E+000	-95.032	0.0000000E+000	0.0000000E+000	0.0000000E+000	5.03204	0.0000000E+000	0.0000000E+000	0.0000000E+000	-5.03204	11.3569	84.968	-8.49962e-07
157076	20.5015	-1.0667	20.5292	2.97842	202.371	0.450261	-0.00899737	-0.949883	-0.00256452	1	10	0.0109579	0.000533773	0	4.97166e-05	0.0486452	-0.00253102	0.048711	-2.97842	-2.56452	49.2891	49.3558	-92.9784	0.0000000E+000	0.0000000E+000	0.0000000E+000	92.9784	0.0000000E+000	0.0000000E+000	0.0000000E+000	-92.9784	0.0000000E+000	0.0000000E+000	0.0000000E+000	2.97842	0.0000000E+000	0.0000000E+000	0.0000000E+000	-2.97842	19.2196	87.0216	-1.7107e-06
106786	20.0844	-0.616891	20.0939	1.75928	202.793	0.450266	-0.0107401	-2.416	-0.00227711	1	10	0.0107359	0.000534286	0	4.85148e-05	0.0497429	-0.00152785	0.0497664	-1.75928	-2.27711	74.1371	74.1721	-91.7593	0.0000000E+000	0.0000000E+000	0.0000000E+000	91.7593	0.0000000E+000	0.0000000E+000	0.0000000E+000	-91.7593	0.0000000E+000	0.0000000E+000	0.0000000E+000	1.75928	0.0000000E+000	0.0000000E+000	0.0000000E+000	-1.75928	32.5575	88.2407	-1.20172e-06
72595	19.8772	-0.380197	19.8809	1.09578	203.215	0.450273	-0.0119679	-5.7664	-0.00210888	1	10	0.0105226	0.00052928	0	4.68768e-05	0.0502904	-0.000961917	0.0502996	-1.09578	-2.10888	110.255	110.275	-91.0958	0.0000000E+000	0.0000000E+000	0.0000000E+000	91.0958	0.0000000E+000	0.0000000E+000	0.0000000E+000	-91.0958	0.0000000E+000	0.0000000E+000	0.0000000E+000	1.09578	0.0000000E+000	0.0000000E+000	0.0000000E+000	-1.09578	52.2814	88.9042	-1.63807e-06
49352.4	19.7681	-0.248269	19.7697	0.719543	203.637	0.450265	-0.012843	-12.9894	-0.0020485	1	10	0.0104511	0.000528645	0	4.51612e-05	0.0505785	-0.000635219	0.0505825	-0.719543	-2.0485	163.109	163.122	-90.7195	0.0000000E+000	0.0000000E+000	0.0000000E+000	90.7195	0.0000000E+000	0.0000000E+000	0.0000000E+000	-90.7195	0.0000000E+000	0.0000000E+000	0.0000000E+000	0.719543	0.0000000E+000	0.0000000E+000	0.0000000E+000	-0.719543	79.6238	89.2805	-1.71556e-06
33551.1	19.715	-0.160411	19.7156	0.466177	204.059	0.450269	-0.0137331	-29.5719	-0.00195762	1	10	0.0104087	0.000527942	0	4.26754e-05	0.0507195	-0.00041268	0.0507212	-0.466177	-1.95762	240.596	240.604	-90.4662	0.0000000E+000	0.0000000E+000	0.0000000E+000	90.4662	0.0000000E+000	0.0000000E+000	0.0000000E+000	-90.4662	0.0000000E+000	0.0000000E+000	0.0000000E+000	0.466177	0.0000000E+000	0.0000000E+000	0.0000000E+000	-0.466177	122.903	89.5338	-2.48582e-06
22806.6	19.6845	-0.115502	19.6849	0.336187	204.481	0.450271	-0.0144365	-60.4187	-0.0020801	1	10	0.010209	0.00051862	0	4.07798e-05	0.0507995	-0.000298073	0.0508004	-0.336187	-2.08011	354.503	354.509	-90.3362	0.0000000E+000	0.0000000E+000	0.0000000E+000	90.3362	0.0000000E+000	0.0000000E+000	0.0000000E+000	-90.3362	0.0000000E+000	0.0000000E+000	0.0000000E+000	0.336187	0.0000000E+000	0.0000000E+000	0.0000000E+000	-0.336187	170.426	89.6638	-1.89561e-06
15504.4	19.6638	-0.0748179	19.664	0.218001	204.903	0.450267	-0.0149478	-137.202	-0.00198623	1	10	0.010181	0.000517751	0	3.92363e-05	0.0508541	-0.000193492	0.0508545	-0.218001	-1.98624	522.025	522.029	-90.218	0.0000000E+000	0.0000000E+000	0.0000000E+000	90.218	0.0000000E+000	0.0000000E+000	0.0000000E+000	-90.218	0.0000000E+000	0.0000000E+000	0.0000000E+000	0.218001	0.0000000E+000	0.0000000E+000	0.0000000E+000	-0.218001	262.822	89.782	-1.54344e-06
10540.4	19.6702	-0.0535523	19.6703	0.155988	205.325	0.450277	-0.0150728	-281.959	-0.00208988	1	10	0.0101446	0.000515733	0	3.7372e-05	0.0508379	-0.000138407	0.0508381	-0.155988	-2.08992	767.63	767.633	-90.156	0.0000000E+000	0.0000000E+000	0.0000000E+000	90.156	0.0000000E+000	0.0000000E+000	0.0000000E+000	-90.156	0.0000000E+000	0.0000000E+000	0.0000000E+000	0.155988	0.0000000E+000	0.0000000E+000	0.0000000E+000	-0.155988	367.308	89.844	-1.86436e-06
7163.78	19.6898	-0.027005	19.6898	0.0785822	205.681	0.450248	-0.0165469	-822.686	-0.00154752	1	10	0.010598	0.000538245	0	3.61398e-05	0.0507876	-6.96561e-05	0.0507876	-0.0785822	-1.54753	1128.33	1128.33	-90.0786	0.0000000E+000	0.0000000E+000	0.0000000E+000	90.0786	0.0000000E+000	0.0000000E+000	0.0000000E+000	-90.0786	0.0000000E+000	0.0000000E+000	0.0000000E+000	0.0785822	0.0000000E+000	0.0000000E+000	0.0000000E+000	-0.0785822	729.119	89.9214	-1.23215e-06
4871.56	19.6725	-0.0134037	19.6725	0.0390379	206.149	0.450299	-0.0156699	-2437.41	-0.00113151	1	10	0.0108199	0.00055	0	3.36718e-05	0.0508324	-3.46342e-05	0.0508324	-0.0390379	-1.13156	1660.71	1660.71	-90.039	0.0000000E+000	0.0000000E+000	0.0000000E+000	90.039	0.0000000E+000	0.0000000E+000	0.0000000E+000	-90.039	0.0000000E+000	0.0000000E+000	0.0000000E+000	0.0390379	0.0000000E+000	0.0000000E+000	0.0000000E+000	-0.0390379	1467.69	89.961	-2.46806e-06
3311.06	19.6905	0.00612468	19.6905	-0.0178217	206.614	0.450295	-0.0160207	7848.2	0.000759314	1	10	0.0109375	0.000555468	0	3.17153e-05	0.0507858	1.57968e-05	0.0507858	0.0178217	0.759339	2441.16	2441.16	-89.9822	0.0000000E+000	0.0000000E+000	0.0000000E+000	89.9822	0.0000000E+000	0.0000000E+000	0.0000000E+000	-89.9822	0.0000000E+000	0.0000000E+000	0.0000000E+000	-0.0178217	0.0000000E+000	0.0000000E+000	0.0000000E+000	0.0178217	3214.95	89.9822	-1.95647e-06
2250.72	19.6756	0.0216268	19.6756	-0.0629778	207.079	0.450292	-0.0167969	3269.69	0.00395035	1	10	0.0109946	0.000558796	0	2.9153e-05	0.0508243	5.58646e-05	0.0508244	0.0629778	3.95053	3593.94	3593.94	-89.937	0.0000000E+000	0.0000000E+000	0.0000000E+000	89.937	0.0000000E+000	0.0000000E+000	0.0000000E+000	-89.937	0.0000000E+000	0.0000000E+000	0.0000000E+000	-0.0629778	0.0000000E+000	0.0000000E+000	0.0000000E+000	0.0629778	909.778	89.937	-2.56234e-06
1530.49	19.6671	0.0214176	19.6671	-0.0623955	207.767	0.450296	-0.0170115	4855.32	0.0057581	1	10	0.0100399	0.000510491	0	2.50993e-05	0.0508462	5.53719e-05	0.0508463	0.0623955	5.75789	5287.48	5287.48	-89.9376	0.0000000E+000	0.0000000E+000	0.0000000E+000	89.9376	0.0000000E+000	0.0000000E+000	0.0000000E+000	-89.9376	0.0000000E+000	0.0000000E+000	0.0000000E+000	-0.0623955	0.0000000E+000	0.0000000E+000	0.0000000E+000	0.0623955	918.268	89.9376	-4.05362e-06
1040.33	19.6764	0.0465828	19.6765	-0.135644	208.232	0.450294	-0.0163939	3284.15	0.0184068	1	10	0.0100578	0.000511158	0	2.32325e-05	0.050822	0.000120318	0.0508221	0.135644	18.4067	7774.98	7775	-89.8644	0.0000000E+000	0.0000000E+000	0.0000000E+000	89.8644	0.0000000E+000	0.0000000E+000	0.0000000E+000	-89.8644	0.0000000E+000	0.0000000E+000	0.0000000E+000	-0.135644	0.0000000E+000	0.0000000E+000	0.0000000E+000	0.135644	422.397	89.8644	-1.86687e-06
707.036	19.6819	0.0511695	19.6819	-0.148959	208.697	0.450294	-0.0176011	4399.14	0.029734	1	10	0.0100607	0.000511164	0	2.09782e-05	0.0508078	0.000132091	0.050808	0.148959	29.7335	11436.9	11437	-89.851	0.0000000E+000	0.0000000E+000	0.0000000E+000	89.851	0.0000000E+000	0.0000000E+000	0.0000000E+000	-89.851	0.0000000E+000	0.0000000E+000	0.0000000E+000	-0.148959	0.0000000E+000	0.0000000E+000	0.0000000E+000	0.148959	384.641	89.851	-2.25426e-06
480.769	19.6982	0.0763641	19.6983	-0.222118	209.162	0.450287	-0.0177336	4335.05	0.0651498	1	10	0.0100687	0.000511144	0	1.87025e-05	0.0507653	0.000196802	0.0507657	0.222118	65.1489	16805.5	16805.6	-89.7779	0.0000000E+000	0.0000000E+000	0.0000000E+000	89.7779	0.0000000E+000	0.0000000E+000	0.0000000E+000	-89.7779	0.0000000E+000	0.0000000E+000	0.0000000E+000	-0.222118	0.0000000E+000	0.0000000E+000	0.0000000E+000	0.222118	257.951	89.7779	-2.27572e-06
326.778	19.703	0.116722	19.7034	-0.339421	209.625	0.450293	-0.0182598	4172.66	0.146434	1	10	0.0100655	0.000510852	0	1.65698e-05	0.0507518	0.000300658	0.0507527	0.339421	146.435	24718.4	24718.8	-89.6606	0.0000000E+000	0.0000000E+000	0.0000000E+000	89.6606	0.0000000E+000	0.0000000E+000	0.0000000E+000	-89.6606	0.0000000E+000	0.0000000E+000	0.0000000E+000	-0.339421	0.0000000E+000	0.0000000E+000	0.0000000E+000	0.339421	168.802	89.6606	-2.13268e-06
222.061	19.6966	0.165737	19.6973	-0.482105	210.086	0.450302	-0.0185378	4324.42	0.306166	1	10	0.0100705	0.000511266	0	1.38216e-05	0.0507667	0.000427177	0.0507684	0.482105	306.168	36385.4	36386.7	-89.5179	0.0000000E+000	0.0000000E+000	0.0000000E+000	89.5179	0.0000000E+000	0.0000000E+000	0.0000000E+000	-89.5179	0.0000000E+000	0.0000000E+000	0.0000000E+000	-0.482105	0.0000000E+000	0.0000000E+000	0.0000000E+000	0.482105	118.842	89.5179	-2.74819e-06
151.015	19.6983	0.246016	19.6998	-0.715543	210.548	0.450293	-0.0182803	4283.87	0.668098	1	10	0.0100707	0.000511207	0	1.16524e-05	0.0507579	0.000633927	0.0507619	0.715543	668.1	53493.9	53498.1	-89.2845	0.0000000E+000	0.0000000E+000	0.0000000E+000	89.2845	0.0000000E+000	0.0000000E+000	0.0000000E+000	-89.2845	0.0000000E+000	0.0000000E+000	0.0000000E+000	-0.715543	0.0000000E+000	0.0000000E+000	0.0000000E+000	0.715543	80.069	89.2845	-2.16926e-06
102.667	19.7104	0.344384	19.7134	-1.00098	211.023	0.450295	-0.018883	4501.38	1.37375	1	10	0.010076	0.000511123	0	9.55424e-06	0.0507192	0.000886174	0.0507269	1.00098	1373.74	78624.8	78636.8	-88.999	0.0000000E+000	0.0000000E+000	0.0000000E+000	88.999	0.0000000E+000	0.0000000E+000	0.0000000E+000	-88.999	0.0000000E+000	0.0000000E+000	0.0000000E+000	-1.00098	0.0000000E+000	0.0000000E+000	0.0000000E+000	1.00098	57.2339	88.999	-2.09814e-06
69.7545	19.7257	0.477709	19.7315	-1.38729	211.49	0.450287	-0.0187766	4776.22	2.79957	1	10	0.0100762	0.000510667	0	7.21584e-06	0.0506655	0.001227	0.0506804	1.38729	2799.56	115601	115635	-88.6127	0.0000000E+000	0.0000000E+000	0.0000000E+000	88.6127	0.0000000E+000	0.0000000E+000	0.0000000E+000	-88.6127	0.0000000E+000	0.0000000E+000	0.0000000E+000	-1.38729	0.0000000E+000	0.0000000E+000	0.0000000E+000	1.38729	41.2923	88.6127	-2.33839e-06
47.4443	19.7665	0.678474	19.7781	-1.96587	212.178	0.450276	-0.00158185	4944.28	5.81833	1	11	0.0100775	0.00050953	0	5.86417e-06	0.0505311	0.00173445	0.0505609	1.96587	5818.33	169510	169610	-88.0341	0.0000000E+000	0.0000000E+000	0.0000000E+000	88.0341	0.0000000E+000	0.0000000E+000	0.0000000E+000	-88.0341	0.0000000E+000	0.0000000E+000	0.0000000E+000	-1.96587	0.0000000E+000	0.0000000E+000	0.0000000E+000	1.96587	29.1338	88.0341	-1.35168e-06
32.2387	19.7825	0.972657	19.8064	-2.81483	212.614	0.450271	-0.00130878	5075.56	12.2403	1	11	0.0100769	0.000508771	0	5.65062e-06	0.0504278	0.00247941	0.0504887	2.81483	12240.3	248951	249251	-87.1852	0.0000000E+000	0.0000000E+000	0.0000000E+000	87.1852	0.0000000E+000	0.0000000E+000	0.0000000E+000	-87.1852	0.0000000E+000	0.0000000E+000	0.0000000E+000	-2.81483	0.0000000E+000	0.0000000E+000	0.0000000E+000	2.81483	20.3386	87.1852	-2.13544e-07
21.9144	19.7925	1.41705	19.8432	-4.0951	213.045	0.450265	-0.000979577	5125.14	26.1367	1	11	0.0100789	0.000507928	0	4.35769e-06	0.0502664	0.00359882	0.0503951	4.0951	26136.7	365063	365997	-85.9049	0.0000000E+000	0.0000000E+000	0.0000000E+000	85.9049	0.0000000E+000	0.0000000E+000	0.0000000E+000	-85.9049	0.0000000E+000	0.0000000E+000	0.0000000E+000	-4.0951	0.0000000E+000	0.0000000E+000	0.0000000E+000	4.0951	13.9675	85.9049	-1.29293e-06
14.9093	19.8029	2.08507	19.9124	-6.01059	213.512	0.45028	-0.00185099	5119.65	56.1353	1	11	0.0100752	0.000505975	0	4.24258e-06	0.0499439	0.00525866	0.05022	6.01059	56135.4	533144	536091	-83.9894	0.0000000E+000	0.0000000E+000	0.0000000E+000	83.9894	0.0000000E+000	0.0000000E+000	0.0000000E+000	-83.9894	0.0000000E+000	0.0000000E+000	0.0000000E+000	-6.01059	0.0000000E+000	0.0000000E+000	0.0000000E+000	6.01059	9.49747	83.9894	-1.15109e-07
10.1329	19.8899	3.07396	20.1261	-8.78545	213.972	0.450285	-0.00295742	5109.6	119.196	1	11	0.010079	0.000500791	0	7.31022e-06	0.0491038	0.0075889	0.0496868	8.78545	119197	771258	780414	-81.2145	0.0000000E+000	0.0000000E+000	0.0000000E+000	81.2145	0.0000000E+000	0.0000000E+000	0.0000000E+000	-81.2145	0.0000000E+000	0.0000000E+000	0.0000000E+000	-8.78545	0.0000000E+000	0.0000000E+000	0.0000000E+000	8.78545	6.47047	81.2145	3.06764e-06
6.88933	19.9149	4.35075	20.3846	-12.3236	214.325	0.450267	-0.00101427	5309.81	241.882	1	11	0.0100872	0.000494847	0	3.26442e-06	0.0479263	0.0104703	0.0490567	12.3236	241882	1.10718e+06	1.13329e+06	-77.6764	0.0000000E+000	0.0000000E+000	0.0000000E+000	77.6764	0.0000000E+000	0.0000000E+000	0.0000000E+000	-77.6764	0.0000000E+000	0.0000000E+000	0.0000000E+000	-12.3236	0.0000000E+000	0.0000000E+000	0.0000000E+000	12.3236	4.57734	77.6764	-4.0458e-06
4.68375	20.0994	6.29452	21.062	-17.389	214.822	0.450283	-0.00230181	5398.38	482.159	1	11	0.0100877	0.000478953	0	9.29677e-06	0.045309	0.0141894	0.0474789	17.389	482159	1.53961e+06	1.61334e+06	-72.611	0.0000000E+000	0.0000000E+000	0.0000000E+000	72.611	0.0000000E+000	0.0000000E+000	0.0000000E+000	-72.611	0.0000000E+000	0.0000000E+000	0.0000000E+000	-17.389	0.0000000E+000	0.0000000E+000	0.0000000E+000	17.389	3.19316	72.611	6.03235e-06
3.18099	20.532	9.21798	22.5063	-24.178	215.524	0.450278	-0.000646268	5427.78	910.513	1	11	0.0100903	0.000448331	0	6.605e-06	0.0405343	0.0181982	0.044432	24.178	910513	2.02806e+06	2.22308e+06	-65.822	0.0000000E+000	0.0000000E+000	0.0000000E+000	65.822	0.0000000E+000	0.0000000E+000	0.0000000E+000	-65.822	0.0000000E+000	0.0000000E+000	0.0000000E+000	-24.178	0.0000000E+000	0.0000000E+000	0.0000000E+000	24.178	2.22738	65.822	-2.69176e-06
2.16533	20.6593	12.9555	24.3855	-32.0919	216.535	0.450293	-0.000928425	5673.4	1601.36	1	11	0.0100957	0.000414004	0	-2.08154e-06	0.0347419	0.0217867	0.041008	32.0919	1.60136e+06	2.55358e+06	3.01416e+06	-57.9081	0.0000000E+000	0.0000000E+000	0.0000000E+000	57.9081	0.0000000E+000	0.0000000E+000	0.0000000E+000	-57.9081	0.0000000E+000	0.0000000E+000	0.0000000E+000	-32.0919	0.0000000E+000	0.0000000E+000	0.0000000E+000	32.0919	1.59464	57.9081	-8.68654e-06
1.46962	21.2562	19.1627	28.6188	-42.0351	218.005	0.450297	-0.00114669	5651.42	2533.79	1	11	0.0100932	0.000352677	0	-2.45261e-06	0.0259527	0.0233967	0.0349421	42.0351	2.53379e+06	2.81059e+06	3.78411e+06	-47.9649	0.0000000E+000	0.0000000E+000	0.0000000E+000	47.9649	0.0000000E+000	0.0000000E+000	0.0000000E+000	-47.9649	0.0000000E+000	0.0000000E+000	0.0000000E+000	-42.0351	0.0000000E+000	0.0000000E+000	0.0000000E+000	42.0351	1.10924	47.9649	-3.71068e-07
1.00006	21.4583	27.4562	34.8468	-51.9907	221.195	0.450298	0.000756612	5796.32	3598.38	1	12	0.0100983	0.000289791	0	9.34244e-06	0.0176713	0.0226107	0.028697	51.9907	3.59838e+06	2.8123e+06	4.56698e+06	-38.0093	0.0000000E+000	0.0000000E+000	0.0000000E+000	38.0093	0.0000000E+000	0.0000000E+000	0.0000000E+000	-38.0093	0.0000000E+000	0.0000000E+000	0.0000000E+000	-51.9907	0.0000000E+000	0.0000000E+000	0.0000000E+000	51.9907	0.781547	38.0093	1.17951e-05