File: ACS_Catal_2026/Figures_Na_K/main_figures/data/EC/20240401_2-128_CV_cycles_alpha_gamma/alpha/20240328_2-128_007_alpha_Na-2_02_PEIS_C01.mpt
EC-Lab ASCII FILE
Nb header lines : 63

Potentio Electrochemical Impedance Spectroscopy

Run on channel : 1 (SN 66412)
User :
CE vs. WE compliance from -10 V to 10 V
Electrode connection : standard
Potential control : Ewe
Ewe ctrl range : min = -1.00 V, max = 1.00 V
Safety Limits :
	Do not start on E overload
Acquisition started on : 04/01/2024 20:30:54.900
Loaded Setting File :  C:\Users\NakamuraT\Documents\EC-Lab\Data\Yatsuzuka\20240328_2-129_UV-vis_K_Na_diff\20240328_2-129_001_preconditioning+CV_inK.mps
Saved on :
	File : 20240328_2-128_007_alpha_Na-2_02_PEIS_C01.mpr
	Directory : C:\Users\NakamuraT\Documents\EC-Lab\Data\Yatsuzuka\20240401_2-128_CV_cycles_alpha_gamma\
	Host : 192.109.209.100
Device : SP-150e (SN .003411)
Address : 192.109.209.236
EC-Lab for windows v11.50 (software)
Internet server v11.50 (firmware)
Command interpretor v11.50 (firmware)
Electrode material :
Initial state :
Electrolyte :
Comments :
Electrode surface area : 0.001 cm2
Characteristic mass : 0.001 g
Equivalent Weight : 0.000 g/eq.
Density : 0.000 g/cm3
Volume (V) : 0.001 cm3
Cycle Definition : Charge/Discharge alternance
Mode                Single sine
E (V)               0.4500
vs.                 Ref
tE (h:m:s)          0:00:0.0000
record              0
dI                  0.000
unit dI             mA
dt (s)              0.000
fi                  500.000
unit fi             kHz
ff                  1.000
unit ff             Hz
Nd                  6
Points              per decade
spacing             Logarithmic
Va (mV)             10.0
pw                  0.10
Na                  2
corr                0
E range min (V)     -1.000
E range max (V)     1.000
I Range             Auto
Bandwidth           5
nc cycles           0
goto Ns'            0
nr cycles           0
inc. cycle          0

freq/Hz	Re(Z)/Ohm	-Im(Z)/Ohm	|Z|/Ohm	Phase(Z)/deg	time/s	<Ewe>/V	<I>/mA	Cs/uF	Cp/uF	cycle number	I Range	|Ewe|/V	|I|/A	Ns	(Q-Qo)/mA.h	Re(Y)/Ohm-1	Im(Y)/Ohm-1	|Y|/Ohm-1	Phase(Y)/deg	Re(C)/nF	Im(C)/nF	|C|/nF	Phase(C)/deg	Re(M)	Im(M)	|M|	Phase(M)/deg	Re(Permittivity)	Im(Permittivity)	|Permittivity|	Phase(Permittivity)/deg	Re(Resistivity)/Ohm.cm	Im(Resistivity)/Ohm.cm	|Resistivity|/Ohm.cm	Phase(Resistivity)/deg	Re(Conductivity)/mS/cm	Im(Conductivity)/mS/cm	|Conductivity|/mS/cm	Phase(Conductivity)/deg	Tan(Delta)	Loss Angle(Delta)/deg	dq/mA.h
500019	30.9087	22.6769	38.3353	-36.2665	200.665	0.450438	0.0855754	0.0140362	0.00491158	1	11	0.00859437	0.00022419	0	4.19127e-05	0.0210322	0.0154308	0.0260856	36.2665	4.91158	6.6945	8.30301	-53.7335	0.0000000E+000	0.0000000E+000	0.0000000E+000	53.7335	0.0000000E+000	0.0000000E+000	0.0000000E+000	-53.7335	0.0000000E+000	0.0000000E+000	0.0000000E+000	-36.2665	0.0000000E+000	0.0000000E+000	0.0000000E+000	36.2665	1.363	53.7335	4.19127e-05
339899	35.5629	7.66921	36.3804	-12.1696	201.087	0.450335	0.0238742	0.0610547	0.00271322	1	11	0.0104749	0.000287926	0	4.55963e-05	0.0268696	0.00579449	0.0274873	12.1696	2.71322	12.5815	12.8707	-77.8304	0.0000000E+000	0.0000000E+000	0.0000000E+000	77.8304	0.0000000E+000	0.0000000E+000	0.0000000E+000	-77.8304	0.0000000E+000	0.0000000E+000	0.0000000E+000	-12.1696	0.0000000E+000	0.0000000E+000	0.0000000E+000	12.1696	4.6371	77.8304	3.68362e-06
231063	27.2756	-3.14788	27.4567	6.58338	201.949	0.450264	-0.00548759	-0.218812	-0.00287616	1	10	0.00987468	0.000359646	0	4.61209e-05	0.0361808	-0.00417563	0.036421	-6.58338	-2.87616	24.9212	25.0866	-96.5834	0.0000000E+000	0.0000000E+000	0.0000000E+000	96.5834	0.0000000E+000	0.0000000E+000	0.0000000E+000	-96.5834	0.0000000E+000	0.0000000E+000	0.0000000E+000	6.58338	0.0000000E+000	0.0000000E+000	0.0000000E+000	-6.58338	8.66476	83.4166	5.24586e-07
157076	20.5665	-3.09507	20.7981	8.55827	202.371	0.450263	-0.00972881	-0.327371	-0.00724994	1	10	0.0103648	0.000498354	0	4.40055e-05	0.047546	-0.00715523	0.0480813	-8.55827	-7.24995	48.1753	48.7178	-98.5583	0.0000000E+000	0.0000000E+000	0.0000000E+000	98.5583	0.0000000E+000	0.0000000E+000	0.0000000E+000	-98.5583	0.0000000E+000	0.0000000E+000	0.0000000E+000	8.55827	0.0000000E+000	0.0000000E+000	0.0000000E+000	-8.55827	6.64492	81.4417	-2.1154e-06
106786	18.5491	-1.8834	18.6445	5.79771	202.793	0.450276	-0.0103688	-0.791336	-0.00807508	1	10	0.0105078	0.000563586	0	4.30732e-05	0.0533608	-0.00541804	0.0536351	-5.79771	-8.07508	79.5292	79.9381	-95.7977	0.0000000E+000	0.0000000E+000	0.0000000E+000	95.7977	0.0000000E+000	0.0000000E+000	0.0000000E+000	-95.7977	0.0000000E+000	0.0000000E+000	0.0000000E+000	5.79771	0.0000000E+000	0.0000000E+000	0.0000000E+000	-5.79771	9.84873	84.2023	-9.32324e-07
72595	17.8408	-1.23163	17.8833	3.94911	203.215	0.450277	-0.011048	-1.78006	-0.00844304	1	10	0.0104437	0.000583991	0	4.14167e-05	0.0557854	-0.00385111	0.0559182	-3.94911	-8.44305	122.302	122.593	-93.9491	0.0000000E+000	0.0000000E+000	0.0000000E+000	93.9491	0.0000000E+000	0.0000000E+000	0.0000000E+000	-93.9491	0.0000000E+000	0.0000000E+000	0.0000000E+000	3.94911	0.0000000E+000	0.0000000E+000	0.0000000E+000	-3.94911	14.4855	86.0509	-1.65647e-06
49352.4	17.4869	-0.855641	17.5078	2.80127	203.637	0.450279	-0.013289	-3.76895	-0.00900202	1	10	0.0104216	0.000595253	0	3.9327e-05	0.0570491	-0.00279144	0.0571174	-2.80127	-9.00201	183.976	184.196	-92.8013	0.0000000E+000	0.0000000E+000	0.0000000E+000	92.8013	0.0000000E+000	0.0000000E+000	0.0000000E+000	-92.8013	0.0000000E+000	0.0000000E+000	0.0000000E+000	2.80127	0.0000000E+000	0.0000000E+000	0.0000000E+000	-2.80127	20.4372	87.1987	-2.08971e-06
33551.1	17.3116	-0.598245	17.3219	1.97921	204.059	0.45027	-0.0133673	-7.9293	-0.00945804	1	10	0.0103763	0.000599027	0	3.86793e-05	0.0576959	-0.00199383	0.0577304	-1.97921	-9.45804	273.69	273.853	-91.9792	0.0000000E+000	0.0000000E+000	0.0000000E+000	91.9792	0.0000000E+000	0.0000000E+000	0.0000000E+000	-91.9792	0.0000000E+000	0.0000000E+000	0.0000000E+000	1.97921	0.0000000E+000	0.0000000E+000	0.0000000E+000	-1.97921	28.9373	88.0208	-6.47716e-07
22806.6	17.2185	-0.388387	17.2229	1.29217	204.481	0.450283	-0.0132013	-17.9678	-0.00913723	1	10	0.0103916	0.000603359	0	3.69377e-05	0.0580476	-0.00130935	0.0580624	-1.29217	-9.13723	405.083	405.186	-91.2922	0.0000000E+000	0.0000000E+000	0.0000000E+000	91.2922	0.0000000E+000	0.0000000E+000	0.0000000E+000	-91.2922	0.0000000E+000	0.0000000E+000	0.0000000E+000	1.29217	0.0000000E+000	0.0000000E+000	0.0000000E+000	-1.29217	44.3333	88.7078	-1.74166e-06
15504.4	17.1944	-0.265359	17.1964	0.88417	204.903	0.450273	-0.0154143	-38.684	-0.00921134	1	10	0.0102	0.000593146	0	3.50557e-05	0.0581446	-0.00089734	0.0581515	-0.88417	-9.21135	596.864	596.935	-90.8842	0.0000000E+000	0.0000000E+000	0.0000000E+000	90.8842	0.0000000E+000	0.0000000E+000	0.0000000E+000	-90.8842	0.0000000E+000	0.0000000E+000	0.0000000E+000	0.88417	0.0000000E+000	0.0000000E+000	0.0000000E+000	-0.88417	64.7967	89.1158	-1.88193e-06
10540.4	17.165	-0.175102	17.1659	0.584459	205.325	0.45028	-0.0154236	-86.2329	-0.00897266	1	10	0.0101858	0.000593374	0	3.35679e-05	0.058252	-0.000594234	0.058255	-0.584459	-8.97263	879.578	879.624	-90.5845	0.0000000E+000	0.0000000E+000	0.0000000E+000	90.5845	0.0000000E+000	0.0000000E+000	0.0000000E+000	-90.5845	0.0000000E+000	0.0000000E+000	0.0000000E+000	0.584459	0.0000000E+000	0.0000000E+000	0.0000000E+000	-0.584459	98.0287	89.4155	-1.48787e-06
7163.78	17.1645	-0.106594	17.1648	0.355812	205.848	0.450261	-0.0166308	-208.422	-0.00803773	1	10	0.010072	0.000586782	0	3.22166e-05	0.0582576	-0.000361789	0.0582587	-0.355812	-8.03774	1294.29	1294.31	-90.3558	0.0000000E+000	0.0000000E+000	0.0000000E+000	90.3558	0.0000000E+000	0.0000000E+000	0.0000000E+000	-90.3558	0.0000000E+000	0.0000000E+000	0.0000000E+000	0.355812	0.0000000E+000	0.0000000E+000	0.0000000E+000	-0.355812	161.026	89.6442	-1.3513e-06
4871.56	17.1675	-0.0797544	17.1677	0.266175	206.316	0.450293	-0.0159815	-409.635	-0.00884061	1	10	0.0104939	0.00061126	0	3.06998e-05	0.0582483	-0.000270602	0.0582489	-0.266175	-8.8406	1902.98	1903.01	-90.2662	0.0000000E+000	0.0000000E+000	0.0000000E+000	90.2662	0.0000000E+000	0.0000000E+000	0.0000000E+000	-90.2662	0.0000000E+000	0.0000000E+000	0.0000000E+000	0.266175	0.0000000E+000	0.0000000E+000	0.0000000E+000	-0.266175	215.255	89.7338	-1.51674e-06
3311.06	17.1645	-0.0382543	17.1646	0.127694	206.782	0.450283	-0.016211	-1256.53	-0.00624119	1	10	0.0107011	0.000623441	0	2.82268e-05	0.0582594	-0.000129842	0.0582596	-0.127694	-6.24116	2800.4	2800.4	-90.1277	0.0000000E+000	0.0000000E+000	0.0000000E+000	90.1277	0.0000000E+000	0.0000000E+000	0.0000000E+000	-90.1277	0.0000000E+000	0.0000000E+000	0.0000000E+000	0.127694	0.0000000E+000	0.0000000E+000	0.0000000E+000	-0.127694	448.696	89.8723	-2.47303e-06
2250.72	17.146	0.00138581	17.146	-0.00463087	207.247	0.450283	-0.0166588	51026.5	0.000333331	1	10	0.0107991	0.000629834	0	2.66116e-05	0.0583227	4.71386e-06	0.0583227	0.00463087	0.333344	4124.16	4124.16	-89.9954	0.0000000E+000	0.0000000E+000	0.0000000E+000	89.9954	0.0000000E+000	0.0000000E+000	0.0000000E+000	-89.9954	0.0000000E+000	0.0000000E+000	0.0000000E+000	-0.00463087	0.0000000E+000	0.0000000E+000	0.0000000E+000	0.00463087	12372.6	89.9954	-1.6152e-06
1530.49	17.1446	0.000959051	17.1446	-0.00320507	207.712	0.450287	-0.0167988	108430	0.000339294	1	10	0.0108502	0.000632864	0	2.48613e-05	0.0583274	3.26277e-06	0.0583274	0.00320507	0.339218	6065.44	6065.44	-89.9968	0.0000000E+000	0.0000000E+000	0.0000000E+000	89.9968	0.0000000E+000	0.0000000E+000	0.0000000E+000	-89.9968	0.0000000E+000	0.0000000E+000	0.0000000E+000	-0.00320507	0.0000000E+000	0.0000000E+000	0.0000000E+000	0.00320507	17876.6	89.9968	-1.75031e-06
1040.33	17.1731	0.0365994	17.1732	-0.122108	208.177	0.450287	-0.0166663	4179.98	0.0189854	1	10	0.0108876	0.00063399	0	2.20953e-05	0.0582302	0.0001241	0.0582303	0.122108	18.9854	8908.32	8908.34	-89.8779	0.0000000E+000	0.0000000E+000	0.0000000E+000	89.8779	0.0000000E+000	0.0000000E+000	0.0000000E+000	-89.8779	0.0000000E+000	0.0000000E+000	0.0000000E+000	-0.122108	0.0000000E+000	0.0000000E+000	0.0000000E+000	0.122108	469.22	89.8779	-2.76602e-06
707.036	17.1794	0.0423152	17.1794	-0.141127	208.641	0.450289	-0.0172839	5319.64	0.0322743	1	10	0.0108975	0.000634336	0	2.02318e-05	0.0582089	0.000143377	0.0582091	0.141127	32.2746	13102.9	13103	-89.8589	0.0000000E+000	0.0000000E+000	0.0000000E+000	89.8589	0.0000000E+000	0.0000000E+000	0.0000000E+000	-89.8589	0.0000000E+000	0.0000000E+000	0.0000000E+000	-0.141127	0.0000000E+000	0.0000000E+000	0.0000000E+000	0.141127	405.986	89.8589	-1.86343e-06
480.769	17.18	0.068553	17.1802	-0.228624	209.106	0.450294	-0.0179668	4829	0.0768873	1	10	0.010909	0.000634977	0	1.82494e-05	0.0582062	0.000232258	0.0582066	0.228624	76.8867	19268.7	19268.9	-89.7714	0.0000000E+000	0.0000000E+000	0.0000000E+000	89.7714	0.0000000E+000	0.0000000E+000	0.0000000E+000	-89.7714	0.0000000E+000	0.0000000E+000	0.0000000E+000	-0.228624	0.0000000E+000	0.0000000E+000	0.0000000E+000	0.228624	250.61	89.7714	-1.98242e-06
326.778	17.1805	0.0987902	17.1808	-0.329454	209.57	0.450295	-0.0175694	4930.08	0.163002	1	10	0.0109144	0.000635268	0	1.61728e-05	0.0582035	0.000334677	0.0582044	0.329454	163.002	28347.6	28348.1	-89.6705	0.0000000E+000	0.0000000E+000	0.0000000E+000	89.6705	0.0000000E+000	0.0000000E+000	0.0000000E+000	-89.6705	0.0000000E+000	0.0000000E+000	0.0000000E+000	-0.329454	0.0000000E+000	0.0000000E+000	0.0000000E+000	0.329454	173.909	89.6705	-2.07661e-06
222.061	17.1791	0.160709	17.1799	-0.53598	210.031	0.45029	-0.0180284	4459.73	0.390254	1	10	0.0109154	0.000635362	0	1.36741e-05	0.058205	0.000544502	0.0582076	0.53598	390.254	41716.6	41718.4	-89.464	0.0000000E+000	0.0000000E+000	0.0000000E+000	89.464	0.0000000E+000	0.0000000E+000	0.0000000E+000	-89.464	0.0000000E+000	0.0000000E+000	0.0000000E+000	-0.53598	0.0000000E+000	0.0000000E+000	0.0000000E+000	0.53598	106.896	89.464	-2.4987e-06
151.015	17.1952	0.229098	17.1967	-0.763328	210.494	0.450284	-0.0181198	4600.23	0.816454	1	10	0.0109174	0.000634855	0	1.15796e-05	0.0581456	0.000774696	0.0581507	0.763328	816.454	61279.8	61285.2	-89.2367	0.0000000E+000	0.0000000E+000	0.0000000E+000	89.2367	0.0000000E+000	0.0000000E+000	0.0000000E+000	-89.2367	0.0000000E+000	0.0000000E+000	0.0000000E+000	-0.763328	0.0000000E+000	0.0000000E+000	0.0000000E+000	0.763328	75.056	89.2367	-2.09448e-06
102.667	17.1989	0.332954	17.2022	-1.10905	210.969	0.450292	-0.0182225	4655.89	1.74424	1	10	0.0109206	0.00063484	0	9.1015e-06	0.0581213	0.00112517	0.0581322	1.10905	1744.23	90099.7	90116.6	-88.891	0.0000000E+000	0.0000000E+000	0.0000000E+000	88.891	0.0000000E+000	0.0000000E+000	0.0000000E+000	-88.891	0.0000000E+000	0.0000000E+000	0.0000000E+000	-1.10905	0.0000000E+000	0.0000000E+000	0.0000000E+000	1.10905	51.6556	88.891	-2.47813e-06
69.7545	17.2365	0.462756	17.2427	-1.53788	211.436	0.450288	-0.0189427	4930.55	3.55133	1	10	0.0109318	0.000633994	0	6.41161e-06	0.0579747	0.00155648	0.0579956	1.53788	3551.33	132278	132325	-88.4621	0.0000000E+000	0.0000000E+000	0.0000000E+000	88.4621	0.0000000E+000	0.0000000E+000	0.0000000E+000	-88.4621	0.0000000E+000	0.0000000E+000	0.0000000E+000	-1.53788	0.0000000E+000	0.0000000E+000	0.0000000E+000	1.53788	37.2474	88.4621	-2.68989e-06
47.4443	17.2475	0.679958	17.2609	-2.25764	211.88	0.450283	-0.0187729	4933.49	7.65582	1	10	0.0109265	0.000633022	0	3.94566e-06	0.0578895	0.00228221	0.0579345	2.25764	7655.82	194194	194345	-87.7424	0.0000000E+000	0.0000000E+000	0.0000000E+000	87.7424	0.0000000E+000	0.0000000E+000	0.0000000E+000	-87.7424	0.0000000E+000	0.0000000E+000	0.0000000E+000	-2.25764	0.0000000E+000	0.0000000E+000	0.0000000E+000	2.25764	25.3655	87.7424	-2.46595e-06
32.2387	17.2707	0.970029	17.2979	-3.21471	212.555	0.450276	-0.00166335	5089.31	16.0045	1	11	0.0109308	0.000631916	0	2.5276e-06	0.0577196	0.00324189	0.0578105	3.21471	16004.5	284948	285398	-86.7853	0.0000000E+000	0.0000000E+000	0.0000000E+000	86.7853	0.0000000E+000	0.0000000E+000	0.0000000E+000	-86.7853	0.0000000E+000	0.0000000E+000	0.0000000E+000	-3.21471	0.0000000E+000	0.0000000E+000	0.0000000E+000	3.21471	17.8043	86.7853	-1.41807e-06
21.9144	17.2837	1.37748	17.3385	-4.55674	212.986	0.450273	-0.00110585	5272.35	33.2776	1	11	0.0109292	0.000630344	0	9.36759e-07	0.0574928	0.00458207	0.0576751	4.55674	33277.6	417545	418869	-85.4433	0.0000000E+000	0.0000000E+000	0.0000000E+000	85.4433	0.0000000E+000	0.0000000E+000	0.0000000E+000	-85.4433	0.0000000E+000	0.0000000E+000	0.0000000E+000	-4.55674	0.0000000E+000	0.0000000E+000	0.0000000E+000	4.55674	12.5473	85.4433	-1.59084e-06
14.9093	17.3836	1.87534	17.4845	-6.15725	213.453	0.450285	-0.00209104	5692.2	65.4842	1	11	0.0109386	0.000625618	0	7.94637e-07	0.0568636	0.00613444	0.0571935	6.15725	65484.2	607010	610532	-83.8428	0.0000000E+000	0.0000000E+000	0.0000000E+000	83.8428	0.0000000E+000	0.0000000E+000	0.0000000E+000	-83.8428	0.0000000E+000	0.0000000E+000	0.0000000E+000	-6.15725	0.0000000E+000	0.0000000E+000	0.0000000E+000	6.15725	9.26957	83.8428	-1.42122e-07
10.1329	17.3703	2.91102	17.6125	-9.51358	213.913	0.450267	-0.00294642	5395.59	147.396	1	11	0.0109391	0.000621096	0	4.55282e-06	0.0559969	0.00938431	0.0567778	9.51358	147396	879525	891790	-80.4864	0.0000000E+000	0.0000000E+000	0.0000000E+000	80.4864	0.0000000E+000	0.0000000E+000	0.0000000E+000	-80.4864	0.0000000E+000	0.0000000E+000	0.0000000E+000	-9.51358	0.0000000E+000	0.0000000E+000	0.0000000E+000	9.51358	5.96707	80.4864	3.75818e-06
6.88933	17.4206	4.21084	17.9223	-13.5887	214.266	0.450264	-0.00081003	5486.24	302.847	1	11	0.0109519	0.000611075	0	-2.22009e-07	0.0542345	0.0131093	0.0557964	13.5887	302847	1.25291e+06	1.28899e+06	-76.4113	0.0000000E+000	0.0000000E+000	0.0000000E+000	76.4113	0.0000000E+000	0.0000000E+000	0.0000000E+000	-76.4113	0.0000000E+000	0.0000000E+000	0.0000000E+000	-13.5887	0.0000000E+000	0.0000000E+000	0.0000000E+000	13.5887	4.13709	76.4113	-4.77482e-06
4.68375	17.5253	6.093	18.5543	-19.1709	214.763	0.450288	-0.00176128	5576.93	601.406	1	11	0.0109505	0.000590186	0	7.23389e-06	0.050907	0.0176987	0.0538959	19.1709	601406	1.72983e+06	1.83139e+06	-70.8291	0.0000000E+000	0.0000000E+000	0.0000000E+000	70.8291	0.0000000E+000	0.0000000E+000	0.0000000E+000	-70.8291	0.0000000E+000	0.0000000E+000	0.0000000E+000	-19.1709	0.0000000E+000	0.0000000E+000	0.0000000E+000	19.1709	2.87631	70.8291	7.4559e-06
3.18099	17.9083	8.93631	20.0142	-26.5193	215.465	0.450284	-0.000839781	5598.87	1116.2	1	11	0.0109522	0.000547225	0	3.38534e-06	0.0447076	0.0223092	0.0499646	26.5193	1.1162e+06	2.23686e+06	2.49989e+06	-63.4807	0.0000000E+000	0.0000000E+000	0.0000000E+000	63.4807	0.0000000E+000	0.0000000E+000	0.0000000E+000	-63.4807	0.0000000E+000	0.0000000E+000	0.0000000E+000	-26.5193	0.0000000E+000	0.0000000E+000	0.0000000E+000	26.5193	2.004	63.4807	-3.84856e-06
2.16533	18.0627	12.5773	22.0102	-34.85	216.476	0.450299	-0.00107811	5843.98	1908.25	1	11	0.0109526	0.000497614	0	-6.83854e-06	0.037285	0.025962	0.0454334	34.85	1.90825e+06	2.7405e+06	3.33943e+06	-55.15	0.0000000E+000	0.0000000E+000	0.0000000E+000	55.15	0.0000000E+000	0.0000000E+000	0.0000000E+000	-55.15	0.0000000E+000	0.0000000E+000	0.0000000E+000	-34.85	0.0000000E+000	0.0000000E+000	0.0000000E+000	34.85	1.43613	55.15	-1.02239e-05
1.46962	18.5442	18.6519	26.3018	-45.1659	217.946	0.450294	-0.00111613	5806.19	2919.9	1	11	0.0109534	0.000416451	0	-6.00928e-06	0.0268064	0.0269621	0.0380202	45.1659	2.9199e+06	2.90305e+06	4.11746e+06	-44.8341	0.0000000E+000	0.0000000E+000	0.0000000E+000	44.8341	0.0000000E+000	0.0000000E+000	0.0000000E+000	-44.8341	0.0000000E+000	0.0000000E+000	0.0000000E+000	-45.1659	0.0000000E+000	0.0000000E+000	0.0000000E+000	45.1659	0.994226	44.8341	8.29262e-07
1.00006	18.7837	26.7409	32.6788	-54.9146	221.136	0.450297	0.00071051	5951.36	3985.08	1	12	0.0109574	0.000335306	0	8.06034e-06	0.0175893	0.0250406	0.0306009	54.9146	3.98508e+06	2.79925e+06	4.86997e+06	-35.0854	0.0000000E+000	0.0000000E+000	0.0000000E+000	35.0854	0.0000000E+000	0.0000000E+000	0.0000000E+000	-35.0854	0.0000000E+000	0.0000000E+000	0.0000000E+000	-54.9146	0.0000000E+000	0.0000000E+000	0.0000000E+000	54.9146	0.702432	35.0854	1.40696e-05