File: ACS_Catal_2026/Figures_Na_K/main_figures/data/EC/20240401_2-128_CV_cycles_alpha_gamma/alpha/20240328_2-128_001_alpha_K-1_03_CVA_C01.mpt
EC-Lab ASCII FILE
Nb header lines : 66

Cyclic Voltammetry Advanced

Run on channel : 1 (SN 66412)
User :
CE vs. WE compliance from -10 V to 10 V
Electrode connection : standard
Potential control : Ewe
Ewe ctrl range : min = -1.00 V, max = 1.00 V
Safety Limits :
	Do not start on E overload
Acquisition started on : 04/01/2024 18:50:54.595
Loaded Setting File :  C:\Users\NakamuraT\Documents\EC-Lab\Data\Yatsuzuka\20240328_2-129_UV-vis_K_Na_diff\20240328_2-129_001_preconditioning+CV_inK.mps
Saved on :
	File : 20240328_2-128_001_alpha_K-1_03_CVA_C01.mpr
	Directory : C:\Users\NakamuraT\Documents\EC-Lab\Data\Yatsuzuka\20240401_2-128_CV_cycles_alpha_gamma\
	Host : 192.109.209.100
Device : SP-150e (SN .003411)
Address : 192.109.209.236
EC-Lab for windows v11.50 (software)
Internet server v11.50 (firmware)
Command interpretor v11.50 (firmware)
Electrode material :
Initial state :
Electrolyte :
Comments :
Electrode surface area : 0.001 cm2
Characteristic mass : 0.001 g
Equivalent Weight : 0.000 g/eq.
Density : 0.000 g/cm3
Volume (V) : 0.001 cm3
Cycle Definition : Charge/Discharge alternance
Ei (V)              0.450
vs.                 Ref
ti (h:m:s)          0:00:10.0000
dti (s)             0.0000
dE/dt               5.000
dE/dt unit          mV/s
E1 (V)              0.700
vs.                 Ref
t1 (h:m:s)          0:00:0.0000
dt1 (s)             0.1000
Step percent        50
N                   10
E range min (V)     -1.000
E range max (V)     1.000
I Range             10 mA
I Range min         Unset
I Range max         Unset
I Range init        Unset
Bandwidth           5
E2 (V)              0.450
vs.                 Ref
t2 (h:m:s)          0:00:0.0000
dt2 (s)             0.1000
nc cycles           14
nr                  1
Reverse Scan        0
Ef (V)              0.000
vs.                 Eoc
tf (h:m:s)          0:00:0.0000
dtf (s)             0.1000

mode	ox/red	error	control changes	Ns changes	counter inc.	time/s	control/V	Ewe/V	<I>/mA	cycle number	(Q-Qo)/C	I Range	Ns	step time/s	P/W
2	0	0	1	0	0	231.183	0.449951	0.450132	-0.00306432	1	0.0000000E+000	11	0	0.000000000000000E+000	-1.37935e-06
2	1	0	1	0	0	233.738	0.462728	0.463071	0.041112	1	9.58063e-05	11	0	2.5004	1.90378e-05
2	1	0	1	0	0	236.339	0.47573	0.476061	0.0429587	1	0.000205136	11	0	5.1008	2.0451e-05
2	1	0	0	0	0	238.939	0.488733	0.489085	0.045714	1	0.000320084	11	0	7.7014	2.2358e-05
2	1	0	0	0	0	241.54	0.501735	0.502067	0.04965	1	0.000443337	11	0	10.3018	2.49276e-05
2	1	0	1	0	0	244.14	0.514738	0.515056	0.0552868	1	0.000578918	11	0	12.9024	2.84758e-05
2	1	0	1	0	0	246.741	0.52774	0.528055	0.0632756	1	0.000731718	11	0	15.5028	3.3413e-05
2	1	0	0	0	0	249.341	0.540743	0.541116	0.0743063	1	0.000908807	11	0	18.1034	4.02083e-05
2	1	0	0	0	0	251.942	0.553745	0.554093	0.0900488	1	0.00112033	11	0	20.7038	4.98954e-05
2	1	0	1	0	0	254.542	0.566748	0.567053	0.113994	1	0.00138329	11	0	23.3044	6.46407e-05
2	1	0	1	0	0	257.143	0.57975	0.580088	0.152208	1	0.00172603	11	0	25.9048	8.82939e-05
2	1	0	0	0	0	259.743	0.592752	0.593095	0.211439	1	0.00219449	11	0	28.5054	0.000125404
2	1	0	0	0	0	262.344	0.605755	0.60605	0.303234	1	0.00285753	11	0	31.1058	0.000183775
2	1	0	1	0	0	264.944	0.618757	0.619103	0.437494	1	0.003812	11	0	33.7064	0.000270854
2	1	0	1	0	0	267.545	0.63176	0.632144	0.62013	1	0.00517681	11	0	36.3068	0.000392011
2	1	0	1	0	0	270.145	0.644762	0.64508	0.850496	1	0.00707904	11	0	38.9073	0.000548638
2	1	0	0	0	0	272.746	0.657765	0.658079	1.1263	1	0.00963922	11	0	41.5078	0.000741194
2	1	0	0	0	0	275.346	0.670767	0.671109	1.44631	1	0.0129842	11	0	44.1082	0.000970631
2	1	0	1	0	0	277.947	0.68377	0.684093	1.79813	1	0.017205	11	0	46.7088	0.00123009
2	1	0	1	0	0	280.547	0.696772	0.697146	2.16066	1	0.0223474	11	0	49.3092	0.0015063
2	1	0	1	0	0	282.953	0.691171	0.691486	1.95616	1	0.0274683	11	0	51.7152	0.00135266
2	1	0	1	0	0	285.554	0.678169	0.678545	1.55809	1	0.0320215	11	0	54.3156	0.00105724
2	1	0	0	0	0	288.154	0.665166	0.665488	1.20772	1	0.0356109	11	0	56.9162	0.000803722
2	1	0	0	0	0	290.755	0.652164	0.652461	0.899917	1	0.0383462	11	0	59.5166	0.000587161
2	1	0	1	0	0	293.355	0.639161	0.639479	0.635703	1	0.0403227	11	0	62.1172	0.000406519
2	1	0	1	0	0	295.956	0.626159	0.626467	0.421529	1	0.0416861	11	0	64.7176	0.000264074
2	1	0	1	0	0	298.556	0.613156	0.613518	0.258486	1	0.0425579	11	0	67.3181	0.000158585
2	1	0	0	0	0	301.157	0.600154	0.600498	0.145063	1	0.0430727	11	0	69.9186	8.711e-05
2	1	0	1	0	0	303.757	0.587151	0.587502	0.0716019	1	0.0433477	11	0	72.5191	4.20663e-05
2	1	0	1	0	0	306.358	0.574149	0.574508	0.0266908	1	0.0434714	11	0	75.1196	1.53341e-05
2	1	0	1	0	0	308.958	0.561146	0.56145	0.000629139	1	0.0435042	11	0	77.72	3.5323e-07
2	0	0	0	0	0	311.559	0.548144	0.548437	-0.0143668	1	0.0434839	11	0	2.5006	-7.87927e-06
2	0	0	0	0	0	314.159	0.535142	0.535509	-0.023425	1	0.0434328	11	0	5.101	-1.25443e-05
2	0	0	1	0	0	316.76	0.522139	0.522549	-0.0293539	1	0.0433629	11	0	7.7016	-1.53388e-05
2	0	0	1	0	0	319.36	0.509137	0.509516	-0.0332989	1	0.0432815	11	0	10.302	-1.69663e-05
2	0	0	0	0	0	321.961	0.496134	0.496497	-0.0357418	1	0.043192	11	0	12.9026	-1.77457e-05
2	0	0	0	0	0	324.561	0.483132	0.483512	-0.0376347	1	0.0430966	11	0	15.503	-1.81968e-05
2	0	0	1	0	0	327.162	0.470129	0.470476	-0.0391855	1	0.042996	11	0	18.1036	-1.84358e-05
2	0	0	1	0	0	329.762	0.457127	0.457532	-0.0409604	1	0.0428905	11	0	20.704	-1.87407e-05
2	1	0	1	0	1	332.238	0.455276	0.455659	0.0316086	2	0.0428511	11	0	0.8001	1.44027e-05
2	1	0	1	0	1	334.838	0.468279	0.468603	0.0351759	2	0.0429386	11	0	3.4006	1.64835e-05
2	1	0	1	0	1	337.439	0.481282	0.481657	0.0357793	2	0.0430299	11	0	6.0011	1.72334e-05
2	1	0	0	0	1	340.039	0.494284	0.494609	0.0360451	2	0.0431223	11	0	8.6016	1.78282e-05
2	1	0	0	0	1	342.64	0.507286	0.507639	0.0368119	2	0.0432162	11	0	11.202	1.86872e-05
2	1	0	1	0	1	345.24	0.520289	0.520609	0.0384155	2	0.0433134	11	0	13.8026	1.99995e-05
2	1	0	1	0	1	347.841	0.533291	0.53362	0.0417252	2	0.0434169	11	0	16.403	2.22654e-05
2	1	0	0	0	1	350.441	0.546294	0.54665	0.047727	2	0.0435324	11	0	19.0036	2.609e-05
2	1	0	0	0	1	353.042	0.559296	0.559658	0.0591128	2	0.0436701	11	0	21.604	3.3083e-05
2	1	0	1	0	1	355.642	0.572299	0.572664	0.0798212	2	0.0438489	11	0	24.2046	4.57107e-05
2	1	0	1	0	1	358.243	0.585301	0.585612	0.116026	2	0.0440999	11	0	26.805	6.7946e-05
2	1	0	0	0	1	360.843	0.598303	0.598668	0.176741	2	0.0444745	11	0	29.4056	0.000105809
2	1	0	0	0	1	363.444	0.611306	0.611664	0.274195	2	0.0450515	11	0	32.006	0.000167715
2	1	0	1	0	1	366.044	0.624308	0.624667	0.416419	2	0.045939	11	0	34.6066	0.000260123
2	1	0	1	0	1	368.645	0.637311	0.637646	0.61273	2	0.0472663	11	0	37.207	0.000390704
2	1	0	0	0	1	371.245	0.650313	0.650634	0.859718	2	0.049171	11	0	39.8076	0.000559361
2	1	0	0	0	1	373.846	0.663316	0.663645	1.15607	2	0.0517816	11	0	42.408	0.00076722
2	1	0	1	0	1	376.446	0.676319	0.676624	1.48357	2	0.0552052	11	0	45.0085	0.00100382
2	1	0	1	0	1	379.047	0.689321	0.689706	1.84871	2	0.0595356	11	0	47.609	0.00127507
2	1	0	0	0	1	381.442	0.698672	0.699029	2.11829	2	0.0643868	11	0	50.0048	0.00148075
2	1	0	1	0	1	384.043	0.68567	0.685991	1.69868	2	0.0693313	11	0	52.6054	0.00116528
2	1	0	1	0	1	386.643	0.672668	0.672926	1.34151	2	0.0732805	11	0	55.2058	0.000902734
2	1	0	0	0	1	389.244	0.659665	0.659972	1.01525	2	0.0763397	11	0	57.8064	0.000670038
2	1	0	0	0	1	391.844	0.646663	0.646964	0.733097	2	0.0785946	11	0	60.4068	0.000474287
2	1	0	1	0	1	394.445	0.63366	0.633967	0.493226	2	0.0801729	11	0	63.0074	0.000312689
2	1	0	1	0	1	397.045	0.620658	0.620998	0.312074	2	0.0812068	11	0	65.6078	0.000193797
2	1	0	1	0	1	399.646	0.607656	0.60799	0.181032	2	0.0818372	11	0	68.2083	0.000110065
2	1	0	0	0	1	402.246	0.594653	0.594987	0.0942336	2	0.082187	11	0	70.8088	5.60678e-05
2	1	0	1	0	1	404.847	0.58165	0.58202	0.0402778	2	0.0823568	11	0	73.4093	2.34425e-05
2	1	0	1	0	1	407.447	0.568648	0.568996	0.00844948	2	0.0824168	11	0	76.0098	4.80772e-06
2	0	0	1	0	1	410.048	0.555645	0.555976	-0.00999372	2	0.0824121	11	0	1.6002	-5.55627e-06
2	0	0	0	0	1	412.648	0.542643	0.542972	-0.0207536	2	0.0823701	11	0	4.2008	-1.12686e-05
2	0	0	0	0	1	415.249	0.52964	0.529959	-0.0270485	2	0.0823063	11	0	6.8012	-1.43346e-05
2	0	0	1	0	1	417.849	0.516638	0.516959	-0.0311275	2	0.082229	11	0	9.4018	-1.60917e-05
2	0	0	1	0	1	420.45	0.503636	0.503981	-0.034108	2	0.0821429	11	0	12.0022	-1.71898e-05
2	0	0	0	0	1	423.05	0.490633	0.490973	-0.0361742	2	0.0820504	11	0	14.6028	-1.77606e-05
2	0	0	0	0	1	425.651	0.477631	0.477973	-0.0379242	2	0.0819526	11	0	17.2032	-1.81267e-05
2	0	0	1	0	1	428.251	0.464628	0.46499	-0.039835	2	0.0818502	11	0	19.8038	-1.85229e-05
2	0	0	1	0	1	430.852	0.451626	0.451975	-0.0419321	2	0.0817428	11	0	22.4042	-1.89522e-05
2	1	0	1	0	0	433.328	0.460777	0.461133	0.0320495	3	0.0817835	11	0	1.9004	1.47791e-05
2	1	0	1	0	0	435.928	0.47378	0.474092	0.0336335	3	0.0818703	11	0	4.5008	1.59454e-05
2	1	0	1	0	0	438.528	0.486782	0.487097	0.034128	3	0.0819589	11	0	7.1013	1.66236e-05
2	1	0	0	0	0	441.129	0.499785	0.500138	0.0349057	3	0.0820485	11	0	9.7018	1.74577e-05
2	1	0	0	0	0	443.729	0.512787	0.513129	0.0361052	3	0.0821396	11	0	12.3022	1.85266e-05
2	1	0	1	0	0	446.33	0.52579	0.526132	0.0380565	3	0.0822342	11	0	14.9028	2.00228e-05
2	1	0	1	0	0	448.93	0.538792	0.539154	0.041431	3	0.0823361	11	0	17.5032	2.23377e-05
2	1	0	0	0	0	451.531	0.551795	0.552116	0.0482084	3	0.0824519	11	0	20.1038	2.66166e-05
2	1	0	0	0	0	454.131	0.564797	0.565189	0.0613066	3	0.0825932	11	0	22.7042	3.46498e-05
2	1	0	1	0	0	456.732	0.5778	0.578149	0.0851784	3	0.0827819	11	0	25.3048	4.92458e-05
2	1	0	1	0	0	459.332	0.590802	0.591134	0.127467	3	0.0830539	11	0	27.9052	7.535e-05
2	1	0	0	0	0	461.933	0.603805	0.604186	0.196779	3	0.0834681	11	0	30.5058	0.000118891
2	1	0	0	0	0	464.533	0.616807	0.617171	0.304754	3	0.0841111	11	0	33.1062	0.000188086
2	1	0	1	0	0	467.134	0.62981	0.630144	0.462746	3	0.0850996	11	0	35.7068	0.000291597
2	1	0	1	0	0	469.734	0.642812	0.643146	0.673781	3	0.0865671	11	0	38.3072	0.000433339
2	1	0	0	0	0	472.335	0.655814	0.656129	0.935346	3	0.0886483	11	0	40.9078	0.000613707
2	1	0	0	0	0	474.935	0.668817	0.669181	1.23688	3	0.0914685	11	0	43.5082	0.0008277
2	1	0	1	0	0	477.536	0.681819	0.682105	1.5803	3	0.0951234	11	0	46.1087	0.00107793
2	1	0	1	0	0	480.136	0.694822	0.695131	1.95832	3	0.0997327	11	0	48.7092	0.00136129
2	1	0	0	0	0	482.532	0.693172	0.693475	1.8746	3	0.104535	11	0	51.105	0.00129999
2	1	0	1	0	0	485.133	0.680169	0.680536	1.5021	3	0.108921	11	0	53.7056	0.00102223
2	1	0	1	0	0	487.733	0.667167	0.667476	1.15152	3	0.112366	11	0	56.306	0.000768614
2	1	0	0	0	0	490.334	0.654164	0.654476	0.85133	3	0.114959	11	0	58.9066	0.000557175
2	1	0	0	0	0	492.934	0.641162	0.641495	0.590211	3	0.116819	11	0	61.507	0.000378617
2	1	0	1	0	0	495.535	0.628159	0.628513	0.388438	3	0.118079	11	0	64.1076	0.000244138
2	1	0	1	0	0	498.135	0.615157	0.615469	0.234753	3	0.118875	11	0	66.708	0.000144483
2	1	0	0	0	0	500.736	0.602154	0.602516	0.129093	3	0.119338	11	0	69.3086	7.77809e-05
2	1	0	0	0	0	503.336	0.589152	0.589516	0.0616915	3	0.11958	11	0	71.909	3.63681e-05
2	1	0	1	0	0	505.937	0.57615	0.576478	0.0211878	3	0.119684	11	0	74.5095	1.22143e-05
2	1	0	1	0	0	508.537	0.563147	0.563503	-0.00236172	3	0.119704	11	0	0.3	-1.33084e-06
2	0	0	1	0	0	511.138	0.550144	0.550456	-0.0168467	3	0.119678	11	0	2.9005	-9.27339e-06
2	0	0	0	0	0	513.738	0.537142	0.537483	-0.0250965	3	0.119623	11	0	5.501	-1.34889e-05
2	0	0	0	0	0	516.339	0.524139	0.524455	-0.0291663	3	0.119552	11	0	8.1014	-1.52964e-05
2	0	0	1	0	0	518.939	0.511137	0.511435	-0.0326112	3	0.119471	11	0	10.702	-1.66785e-05
2	0	0	1	0	0	521.54	0.498135	0.498475	-0.0350534	3	0.119382	11	0	13.3024	-1.74732e-05
2	0	0	0	0	0	524.14	0.485132	0.48545	-0.0376236	3	0.119287	11	0	15.903	-1.82644e-05
2	0	0	0	0	0	526.741	0.47213	0.472495	-0.0395556	3	0.119188	11	0	18.5034	-1.86898e-05
2	0	0	1	0	0	529.341	0.459127	0.459503	-0.0411331	3	0.119084	11	0	21.104	-1.89008e-05
2	1	0	0	0	1	531.817	0.453276	0.453604	0.0274146	4	0.119016	11	0	0.4	1.24354e-05
2	1	0	1	0	1	534.417	0.466279	0.466594	0.0327439	4	0.119097	11	0	3.0006	1.52781e-05
2	1	0	1	0	1	537.018	0.479281	0.479609	0.0329091	4	0.119184	11	0	5.601	1.57835e-05
2	1	0	0	0	1	539.618	0.492283	0.492618	0.0332329	4	0.119271	11	0	8.2016	1.63712e-05
2	1	0	0	0	1	542.219	0.505286	0.505652	0.034278	4	0.119359	11	0	10.802	1.73328e-05
2	1	0	1	0	1	544.819	0.518288	0.51863	0.0358047	4	0.119449	11	0	13.4025	1.85694e-05
2	1	0	1	0	1	547.42	0.531291	0.531625	0.037777	4	0.119544	11	0	16.003	2.00832e-05
2	1	0	1	0	1	550.02	0.544293	0.54462	0.0417806	4	0.119647	11	0	18.6034	2.27546e-05
2	1	0	0	0	1	552.621	0.557296	0.557643	0.0509526	4	0.119767	11	0	21.204	2.84134e-05
2	1	0	0	0	1	555.221	0.570298	0.570639	0.0664491	4	0.119918	11	0	23.8044	3.79184e-05
2	1	0	1	0	1	557.822	0.583301	0.583672	0.0951817	4	0.120125	11	0	26.405	5.55549e-05
2	1	0	1	0	1	560.422	0.596303	0.59662	0.144196	4	0.12043	11	0	29.0054	8.60303e-05
2	1	0	0	0	1	563.023	0.609306	0.609642	0.224263	4	0.1209	11	0	31.606	0.00013672
2	1	0	0	0	1	565.623	0.622308	0.622653	0.346166	4	0.121631	11	0	34.2064	0.000215541
2	1	0	1	0	1	568.224	0.635311	0.635705	0.51703	4	0.122744	11	0	36.807	0.000328679
2	1	0	1	0	1	570.824	0.648313	0.648656	0.741066	4	0.12437	11	0	39.4074	0.000480697
2	1	0	0	0	1	573.425	0.661315	0.661687	1.01338	4	0.126644	11	0	42.008	0.000670541
2	1	0	0	0	1	576.025	0.674318	0.674637	1.32207	4	0.129675	11	0	44.6084	0.000891919
2	1	0	1	0	1	578.626	0.68732	0.687645	1.66842	4	0.133554	11	0	47.209	0.00114728
2	1	0	0	0	1	581.157	0.699998	0.700341	2.03212	4	0.13823	11	0	49.7398	0.00142317
2	1	0	0	0	1	583.622	0.687671	0.687995	1.65429	4	0.142747	11	0	52.2052	0.00113814
2	1	0	1	0	1	586.223	0.674668	0.674988	1.30263	4	0.146586	11	0	54.8058	0.00087926
2	1	0	1	0	1	588.823	0.661666	0.661979	0.985058	4	0.149555	11	0	57.4062	0.000652088
2	1	0	0	0	1	591.424	0.648663	0.648985	0.706182	4	0.151745	11	0	60.0068	0.000458301
2	1	0	0	0	1	594.024	0.635661	0.636049	0.476104	4	0.15327	11	0	62.6072	0.000302825
2	1	0	1	0	1	596.625	0.622658	0.62298	0.302075	4	0.154269	11	0	65.2078	0.000188187
2	1	0	1	0	1	599.225	0.609656	0.610017	0.174817	4	0.154878	11	0	67.8082	0.000106642
2	1	0	0	0	1	601.826	0.596653	0.596982	0.0906801	4	0.155216	11	0	70.4088	5.41343e-05
2	1	0	0	0	1	604.426	0.583651	0.583988	0.0385824	4	0.155378	11	0	73.0092	2.25317e-05
2	1	0	1	0	1	607.027	0.570648	0.570966	0.00774408	4	0.155434	11	0	75.6098	4.42161e-06
2	0	0	1	0	1	609.627	0.557646	0.557987	-0.0100745	4	0.155428	11	0	1.6003	-5.62143e-06
2	0	0	1	0	1	612.227	0.544644	0.544996	-0.0211325	4	0.155386	11	0	4.2008	-1.15171e-05
2	0	0	0	0	1	614.828	0.531641	0.5319	-0.0276768	4	0.155323	11	0	6.8013	-1.47213e-05
2	0	0	0	0	1	617.428	0.518638	0.518981	-0.0311744	4	0.155247	11	0	9.4017	-1.61789e-05
2	0	0	1	0	1	620.029	0.505636	0.506003	-0.0334822	4	0.155162	11	0	12.0023	-1.69421e-05
2	0	0	1	0	1	622.629	0.492634	0.492988	-0.0358464	4	0.155071	11	0	14.6027	-1.76718e-05
2	0	0	0	0	1	625.23	0.479631	0.47996	-0.0381629	4	0.154975	11	0	17.2033	-1.83167e-05
2	0	0	0	0	1	627.83	0.466629	0.466928	-0.0396043	4	0.154875	11	0	19.8037	-1.84924e-05
2	0	0	1	0	1	630.431	0.453626	0.453982	-0.0408818	4	0.15477	11	0	22.4043	-1.85596e-05
2	1	0	0	0	0	632.907	0.458777	0.459135	0.0304364	5	0.15478	11	0	1.5002	1.39744e-05
2	1	0	1	0	0	635.507	0.47178	0.472129	0.0329713	5	0.154863	11	0	4.1008	1.55667e-05
2	1	0	1	0	0	638.108	0.484782	0.485135	0.0333693	5	0.154949	11	0	6.7012	1.61886e-05
2	1	0	0	0	0	640.708	0.497785	0.498151	0.0330221	5	0.155036	11	0	9.3018	1.645e-05
2	1	0	0	0	0	643.309	0.510787	0.511106	0.0343431	5	0.155123	11	0	11.9022	1.7553e-05
2	1	0	1	0	0	645.909	0.523789	0.524136	0.0354473	5	0.155214	11	0	14.5028	1.85792e-05
2	1	0	1	0	0	648.51	0.536792	0.537164	0.0377673	5	0.155309	11	0	17.1032	2.02873e-05
2	1	0	1	0	0	651.11	0.549794	0.550138	0.0441917	5	0.155415	11	0	19.7036	2.43115e-05
2	1	0	0	0	0	653.711	0.562797	0.563124	0.0549026	5	0.155542	11	0	22.3042	3.0917e-05
2	1	0	0	0	0	656.311	0.575799	0.57612	0.0736669	5	0.155708	11	0	24.9046	4.2441e-05
2	1	0	1	0	0	658.912	0.588802	0.589159	0.108761	5	0.155941	11	0	27.5052	6.40776e-05
2	1	0	1	0	0	661.512	0.601804	0.602145	0.167373	5	0.156294	11	0	30.1056	0.000100783
2	1	0	0	0	0	664.113	0.614807	0.615157	0.25996	5	0.156841	11	0	32.7062	0.000159916
2	1	0	0	0	0	666.713	0.627809	0.628152	0.399987	5	0.157689	11	0	35.3066	0.000251253
2	1	0	1	0	0	669.314	0.640812	0.641168	0.590832	5	0.158967	11	0	37.9072	0.000378823
2	1	0	1	0	0	671.914	0.653814	0.654175	0.830906	5	0.160807	11	0	40.5076	0.000543558
2	1	0	0	0	0	674.515	0.666817	0.667135	1.12108	5	0.163336	11	0	43.1082	0.000747911
2	1	0	0	0	0	677.115	0.679819	0.680185	1.45081	5	0.166676	11	0	45.7086	0.000986819
2	1	0	1	0	0	679.716	0.692821	0.693145	1.80866	5	0.170908	11	0	48.3092	0.00125366
2	1	0	0	0	0	682.111	0.695172	0.69551	1.85479	5	0.1755	11	0	50.705	0.00129003
2	1	0	0	0	0	684.712	0.682169	0.6825	1.4822	5	0.179832	11	0	53.3054	0.0010116
2	1	0	1	0	0	687.312	0.669167	0.669537	1.14326	5	0.18323	11	0	55.906	0.000765453
2	1	0	1	0	0	689.913	0.656165	0.656517	0.843813	5	0.185803	11	0	58.5064	0.000553978
2	1	0	0	0	0	692.513	0.643162	0.643513	0.59	5	0.187652	11	0	61.107	0.000379673
2	1	0	0	0	0	695.114	0.63016	0.630492	0.385763	5	0.188909	11	0	63.7074	0.000243221
2	1	0	1	0	0	697.714	0.617157	0.617478	0.233606	5	0.189702	11	0	66.308	0.000144246
2	1	0	1	0	0	700.315	0.604155	0.604467	0.129129	5	0.190163	11	0	68.9084	7.80541e-05
2	1	0	0	0	0	702.915	0.591152	0.591468	0.0615403	5	0.190404	11	0	71.509	3.63991e-05
2	1	0	0	0	0	705.516	0.57815	0.578506	0.0216029	5	0.190508	11	0	74.1094	1.24974e-05
2	1	0	1	0	0	708.116	0.565147	0.565494	-0.00200331	5	0.190529	11	0	0.2002	-1.13286e-06
2	0	0	1	0	0	710.717	0.552145	0.552508	-0.0163074	5	0.190504	11	0	2.8006	-9.00996e-06
2	0	0	0	0	0	713.317	0.539142	0.539491	-0.0241352	5	0.190451	11	0	5.4012	-1.30208e-05
2	0	0	0	0	0	715.918	0.52614	0.526511	-0.0286928	5	0.190381	11	0	8.0016	-1.5107e-05
2	0	0	1	0	0	718.518	0.513137	0.513508	-0.0325932	5	0.190301	11	0	10.6021	-1.67369e-05
2	0	0	1	0	0	721.119	0.500135	0.500455	-0.0347612	5	0.190214	11	0	13.2026	-1.73964e-05
2	0	0	1	0	0	723.719	0.487132	0.487441	-0.0362298	5	0.190122	11	0	15.803	-1.76599e-05
2	0	0	0	0	0	726.32	0.47413	0.47447	-0.0378394	5	0.190025	11	0	18.4036	-1.79537e-05
2	0	0	0	0	0	728.92	0.461128	0.461421	-0.0406642	5	0.189923	11	0	21.004	-1.87633e-05
2	1	0	0	0	1	731.396	0.451276	0.451665	0.013358	6	0.189831	11	0	0.000000000000000E+000	6.03332e-06
2	1	0	0	0	1	733.996	0.464278	0.464656	0.0315242	6	0.189907	11	0	2.6004	1.46479e-05
2	1	0	1	0	1	736.597	0.477281	0.477653	0.0325779	6	0.189991	11	0	5.201	1.55609e-05
2	1	0	1	0	1	739.197	0.490283	0.490616	0.0332378	6	0.190076	11	0	7.8014	1.6307e-05
2	1	0	0	0	1	741.798	0.503285	0.50361	0.0327014	6	0.190162	11	0	10.402	1.64688e-05
2	1	0	0	0	1	744.398	0.516288	0.516608	0.0341064	6	0.19025	11	0	13.0024	1.76197e-05
2	1	0	1	0	1	746.999	0.52929	0.529638	0.0358612	6	0.19034	11	0	15.603	1.89934e-05
2	1	0	1	0	1	749.599	0.542293	0.54264	0.0391424	6	0.190438	11	0	18.2034	2.12403e-05
2	1	0	1	0	1	752.2	0.555295	0.555638	0.0473364	6	0.19055	11	0	20.8039	2.63019e-05
2	1	0	0	0	1	754.8	0.568298	0.568653	0.0595489	6	0.190687	11	0	23.4044	3.38627e-05
2	1	0	0	0	1	757.401	0.5813	0.581707	0.0840286	6	0.190872	11	0	26.0048	4.88801e-05
2	1	0	1	0	1	760.001	0.594303	0.594674	0.125944	6	0.19114	11	0	28.6054	7.48955e-05
2	1	0	1	0	1	762.602	0.607305	0.607646	0.194987	6	0.19155	11	0	31.2058	0.000118483
2	1	0	0	0	1	765.202	0.620308	0.620689	0.304853	6	0.192191	11	0	33.8064	0.000189219
2	1	0	0	0	1	767.803	0.63331	0.63361	0.461347	6	0.193177	11	0	36.4068	0.000292315
2	1	0	1	0	1	770.403	0.646313	0.64664	0.673341	6	0.194643	11	0	39.0074	0.000435409
2	1	0	1	0	1	773.004	0.659315	0.659668	0.931661	6	0.196723	11	0	41.6078	0.000614587
2	1	0	0	0	1	775.604	0.672318	0.672629	1.23861	6	0.199535	11	0	44.2084	0.000833122
2	1	0	0	0	1	778.205	0.68532	0.685654	1.5765	6	0.203193	11	0	46.8088	0.00108093
2	1	0	1	0	1	780.805	0.698322	0.698645	1.9426	6	0.20776	11	0	49.4094	0.00135719
2	1	0	0	0	1	783.201	0.689671	0.689996	1.68124	6	0.212202	11	0	51.8052	0.00116005
2	1	0	1	0	1	785.802	0.676668	0.676983	1.32055	6	0.216094	11	0	54.4057	0.000893989
2	1	0	1	0	1	788.402	0.663666	0.663989	0.998152	6	0.219099	11	0	57.0062	0.000662761
2	1	0	1	0	1	791.003	0.650663	0.650992	0.715911	6	0.221316	11	0	59.6066	0.000466053
2	1	0	0	0	1	793.603	0.637661	0.637959	0.484412	6	0.222866	11	0	62.2072	0.000309035
2	1	0	0	0	1	796.204	0.624659	0.62501	0.305882	6	0.22388	11	0	64.8076	0.000191179
2	1	0	1	0	1	798.804	0.611656	0.612006	0.177342	6	0.224497	11	0	67.4082	0.000108535
2	1	0	1	0	1	801.405	0.598654	0.599015	0.0931087	6	0.22484	11	0	70.0086	5.57735e-05
2	1	0	0	0	1	804.005	0.585651	0.586053	0.039793	6	0.225006	11	0	72.6092	2.33208e-05
2	1	0	0	0	1	806.606	0.572649	0.572954	0.00871136	6	0.225065	11	0	75.2096	4.99121e-06
2	0	0	1	0	1	809.206	0.559646	0.559995	-0.00945581	6	0.225061	11	0	1.4004	-5.2952e-06
2	0	0	1	0	1	811.807	0.546644	0.546977	-0.0206899	6	0.225021	11	0	4.0008	-1.13169e-05
2	0	0	0	0	1	814.407	0.533641	0.533989	-0.0259507	6	0.224959	11	0	6.6014	-1.38574e-05
2	0	0	0	0	1	817.008	0.520639	0.52098	-0.0307616	6	0.224885	11	0	9.2018	-1.60261e-05
2	0	0	1	0	1	819.608	0.507636	0.507983	-0.0325094	6	0.224802	11	0	11.8024	-1.65142e-05
2	0	0	1	0	1	822.209	0.494634	0.494947	-0.0356438	6	0.224713	11	0	14.4028	-1.76418e-05
2	0	0	1	0	1	824.809	0.481631	0.482007	-0.0363784	6	0.224619	11	0	17.0033	-1.75346e-05
2	0	0	0	0	1	827.41	0.468629	0.469008	-0.0391797	6	0.22452	11	0	19.6038	-1.83756e-05
2	0	0	0	0	1	830.01	0.455627	0.45599	-0.0399739	6	0.224417	11	0	22.2042	-1.82277e-05
2	1	0	0	0	0	832.486	0.456777	0.457114	0.030007	7	0.224399	11	0	1.1002	1.37166e-05
2	1	0	0	0	0	835.086	0.469779	0.47015	0.0317628	7	0.22448	11	0	3.7006	1.49333e-05
2	1	0	1	0	0	837.687	0.482782	0.483156	0.0326895	7	0.224564	11	0	6.3012	1.57941e-05
2	1	0	1	0	0	840.287	0.495784	0.496102	0.0326617	7	0.224649	11	0	8.9016	1.62035e-05
2	1	0	0	0	0	842.888	0.508787	0.509141	0.0335021	7	0.224735	11	0	11.5022	1.70573e-05
2	1	0	0	0	0	845.488	0.521789	0.522108	0.0339939	7	0.224823	11	0	14.1026	1.77485e-05
2	1	0	1	0	0	848.089	0.534791	0.535087	0.036925	7	0.224915	11	0	16.7032	1.97581e-05
2	1	0	1	0	0	850.689	0.547794	0.548119	0.0408224	7	0.225016	11	0	19.3036	2.23755e-05
2	1	0	0	0	0	853.29	0.560796	0.561193	0.0504902	7	0.225134	11	0	21.9042	2.83348e-05
2	1	0	0	0	0	855.89	0.573799	0.574159	0.0661664	7	0.225284	11	0	24.5046	3.79901e-05
2	1	0	1	0	0	858.491	0.586801	0.587113	0.0967438	7	0.225493	11	0	27.1051	5.67995e-05
2	1	0	1	0	0	861.091	0.599804	0.600129	0.146388	7	0.225804	11	0	29.7056	8.78519e-05
2	1	0	1	0	0	863.692	0.612806	0.613143	0.230041	7	0.226286	11	0	32.306	0.000141048
2	1	0	0	0	0	866.292	0.625809	0.626154	0.356132	7	0.227039	11	0	34.9066	0.000222993
2	1	0	0	0	0	868.893	0.638811	0.639143	0.533638	7	0.228185	11	0	37.507	0.000341071
2	1	0	1	0	0	871.493	0.651814	0.652133	0.760854	7	0.229858	11	0	40.1076	0.000496178
2	1	0	1	0	0	874.094	0.664816	0.66517	1.03641	7	0.232185	11	0	42.708	0.000689387
2	1	0	0	0	0	876.694	0.677819	0.67813	1.35759	7	0.235293	11	0	45.3086	0.000920623
2	1	0	0	0	0	879.295	0.690821	0.691144	1.70914	7	0.239273	11	0	47.909	0.00118126
2	1	0	1	0	0	881.69	0.697173	0.69751	1.87191	7	0.243725	11	0	50.3049	0.00130567
2	1	0	0	0	0	884.291	0.68417	0.684501	1.50193	7	0.248109	11	0	52.9054	0.00102808
2	1	0	1	0	0	886.891	0.671167	0.671446	1.16231	7	0.251565	11	0	55.5059	0.000780429
2	1	0	1	0	0	889.492	0.658165	0.658513	0.85917	7	0.254187	11	0	58.1064	0.000565775
2	1	0	1	0	0	892.092	0.645162	0.645466	0.599006	7	0.256071	11	0	60.7068	0.000386638
2	1	0	0	0	0	894.693	0.63216	0.63249	0.393847	7	0.257351	11	0	63.3074	0.000249105
2	1	0	0	0	0	897.293	0.619157	0.619526	0.239536	7	0.258164	11	0	65.9078	0.000148399
2	1	0	1	0	0	899.894	0.606155	0.606541	0.132683	7	0.258637	11	0	68.5084	8.04776e-05
2	1	0	1	0	0	902.494	0.593153	0.593543	0.0648918	7	0.258887	11	0	71.1088	3.85161e-05
2	1	0	0	0	0	905.095	0.58015	0.580456	0.0227788	7	0.258996	11	0	73.7094	1.32221e-05
2	1	0	0	0	0	907.695	0.567148	0.567423	-0.000853137	7	0.259021	11	0	0.1	-4.84089e-07
2	0	0	1	0	0	910.296	0.554145	0.554485	-0.0154994	7	0.258998	11	0	2.7006	-8.59419e-06
2	0	0	1	0	0	912.896	0.541143	0.541425	-0.0232464	7	0.258947	11	0	5.301	-1.25862e-05
2	0	0	0	0	0	915.497	0.52814	0.528451	-0.0278367	7	0.258879	11	0	7.9016	-1.47103e-05
2	0	0	0	0	0	918.097	0.515138	0.515445	-0.0318554	7	0.258801	11	0	10.502	-1.64197e-05
2	0	0	1	0	0	920.698	0.502135	0.502501	-0.0338479	7	0.258716	11	0	13.1026	-1.70086e-05
2	0	0	1	0	0	923.298	0.489133	0.48945	-0.035251	7	0.258625	11	0	15.703	-1.72536e-05
2	0	0	1	0	0	925.899	0.47613	0.47649	-0.0375939	7	0.25853	11	0	18.3035	-1.79131e-05
2	0	0	0	0	0	928.499	0.463128	0.463461	-0.0396384	7	0.25843	11	0	20.904	-1.83709e-05
2	0	0	0	0	0	931.085	0.450201	0.450603	-0.0406098	7	0.258326	11	0	23.4894	-1.82989e-05
2	1	0	0	0	1	933.576	0.462278	0.462622	0.0303929	8	0.258385	11	0	2.2004	1.40604e-05
2	1	0	0	0	1	936.176	0.47528	0.47562	0.0324145	8	0.258467	11	0	4.8008	1.5417e-05
2	1	0	1	0	1	938.777	0.488283	0.488652	0.0325854	8	0.258551	11	0	7.4014	1.59229e-05
2	1	0	1	0	1	941.377	0.501285	0.501658	0.032177	8	0.258636	11	0	10.0018	1.61419e-05
2	1	0	0	0	1	943.978	0.514288	0.514635	0.0333919	8	0.258721	11	0	12.6024	1.71846e-05
2	1	0	0	0	1	946.578	0.52729	0.52762	0.0352156	8	0.25881	11	0	15.2028	1.85805e-05
2	1	0	1	0	1	949.179	0.540292	0.540686	0.0376608	8	0.258904	11	0	17.8034	2.03627e-05
2	1	0	1	0	1	951.779	0.553295	0.553626	0.0436081	8	0.259009	11	0	20.4038	2.41426e-05
2	1	0	0	0	1	954.38	0.566297	0.56663	0.055692	8	0.259137	11	0	23.0044	3.15568e-05
2	1	0	0	0	1	956.98	0.5793	0.579679	0.0757786	8	0.259305	11	0	25.6048	4.39272e-05
2	1	0	1	0	1	959.58	0.592302	0.592645	0.111568	8	0.259545	11	0	28.2053	6.61201e-05
2	1	0	1	0	1	962.181	0.605305	0.605643	0.173448	8	0.259909	11	0	30.8058	0.000105048
2	1	0	1	0	1	964.781	0.618308	0.61865	0.271392	8	0.260478	11	0	33.4063	0.000167897
2	1	0	0	0	1	967.382	0.63131	0.631652	0.414773	8	0.261359	11	0	36.0068	0.000261992
2	1	0	0	0	1	969.982	0.644312	0.644684	0.612499	8	0.262686	11	0	38.6072	0.000394869
2	1	0	1	0	1	972.583	0.657315	0.657642	0.860988	8	0.264593	11	0	41.2078	0.000566221
2	1	0	1	0	1	975.183	0.670317	0.670647	1.15413	8	0.267205	11	0	43.8082	0.000774013
2	1	0	0	0	1	977.784	0.68332	0.683658	1.4834	8	0.27063	11	0	46.4088	0.00101414
2	1	0	0	0	1	980.384	0.696322	0.696668	1.84954	8	0.27496	11	0	49.0092	0.00128851
2	1	0	0	0	1	982.78	0.691671	0.692045	1.69646	8	0.279379	11	0	51.4052	0.00117403
2	1	0	0	0	1	985.381	0.678669	0.678994	1.33325	8	0.283308	11	0	54.0056	0.000905271
2	1	0	1	0	1	987.981	0.665667	0.665973	1.01109	8	0.286345	11	0	56.6061	0.000673356
2	1	0	1	0	1	990.582	0.652664	0.652993	0.730613	8	0.288599	11	0	59.2066	0.000477086
2	1	0	1	0	1	993.182	0.639661	0.639987	0.493417	8	0.290179	11	0	61.8071	0.00031578
2	1	0	0	0	1	995.783	0.626659	0.627024	0.315014	8	0.291219	11	0	64.4076	0.000197521
2	1	0	0	0	1	998.383	0.613656	0.613997	0.184337	8	0.291857	11	0	67.008	0.000113182
2	1	0	1	0	1	1000.98	0.600654	0.600954	0.0962531	8	0.292213	11	0	69.6086	5.78437e-05
2	1	0	1	0	1	1003.58	0.587651	0.588019	0.0423711	8	0.292387	11	0	72.209	2.4915e-05
2	1	0	0	0	1	1006.18	0.574649	0.574963	0.0106637	8	0.292452	11	0	74.8096	6.13123e-06
2	0	0	0	0	1	1008.79	0.561647	0.561966	-0.00875719	8	0.292451	11	0	1.2002	-4.92124e-06
2	0	0	1	0	1	1011.39	0.548644	0.548931	-0.0197004	8	0.292413	11	0	3.8008	-1.08142e-05
2	0	0	1	0	1	1013.99	0.535642	0.536016	-0.0253769	8	0.292354	11	0	6.4012	-1.36024e-05
2	0	0	0	0	1	1016.59	0.522639	0.522944	-0.029811	8	0.292281	11	0	9.0018	-1.55895e-05
2	0	0	0	0	1	1019.19	0.509637	0.510021	-0.0329372	8	0.2922	11	0	11.6022	-1.67987e-05
2	0	0	1	0	1	1021.79	0.496634	0.496975	-0.0344433	8	0.292112	11	0	14.2028	-1.71175e-05
2	0	0	1	0	1	1024.39	0.483632	0.484019	-0.0358134	8	0.29202	11	0	16.8032	-1.73344e-05
2	0	0	0	0	1	1026.99	0.470629	0.470951	-0.0379882	8	0.291923	11	0	19.4038	-1.78906e-05
2	0	0	0	0	1	1029.59	0.457627	0.457982	-0.0400743	8	0.291822	11	0	22.0042	-1.83533e-05
2	1	0	1	0	0	1032.06	0.454776	0.455116	0.0283058	9	0.291776	11	0	0.7	1.28824e-05
2	1	0	0	0	0	1034.67	0.467779	0.468151	0.0310068	9	0.291855	11	0	3.3006	1.45159e-05
2	1	0	0	0	0	1037.27	0.480781	0.481127	0.0322959	9	0.291938	11	0	5.901	1.55384e-05
2	1	0	1	0	0	1039.87	0.493784	0.494144	0.0327381	9	0.292022	11	0	8.5016	1.61773e-05
2	1	0	1	0	0	1042.47	0.506786	0.507142	0.0322847	9	0.292106	11	0	11.102	1.63729e-05
2	1	0	0	0	0	1045.07	0.519789	0.520155	0.0336432	9	0.292192	11	0	13.7026	1.74997e-05
2	1	0	0	0	0	1047.67	0.532791	0.53313	0.0359631	9	0.292281	11	0	16.303	1.9173e-05
2	1	0	1	0	0	1050.27	0.545794	0.546153	0.0391469	9	0.292379	11	0	18.9036	2.13802e-05
2	1	0	1	0	0	1052.87	0.558796	0.559152	0.0471057	9	0.29249	11	0	21.504	2.63392e-05
2	1	0	0	0	0	1055.47	0.571798	0.572139	0.0616976	9	0.29263	11	0	24.1046	3.52996e-05
2	1	0	0	0	0	1058.07	0.584801	0.585124	0.0866594	9	0.292819	11	0	26.705	5.07065e-05
2	1	0	1	0	0	1060.67	0.597803	0.598155	0.130634	9	0.293098	11	0	29.3056	7.81392e-05
2	1	0	1	0	0	1063.27	0.610806	0.611145	0.205235	9	0.293528	11	0	31.906	0.000125428
2	1	0	1	0	0	1065.87	0.623808	0.624139	0.318679	9	0.294199	11	0	34.5065	0.0001989
2	1	0	0	0	0	1068.47	0.636811	0.637191	0.482481	9	0.295231	11	0	37.107	0.000307433
2	1	0	1	0	0	1071.07	0.649814	0.65015	0.699405	9	0.296757	11	0	39.7075	0.000454718
2	1	0	1	0	0	1073.67	0.662816	0.663088	0.960873	9	0.298906	11	0	42.308	0.000637144
2	1	0	1	0	0	1076.27	0.675818	0.676145	1.27415	9	0.301802	11	0	44.9084	0.000861511
2	1	0	0	0	0	1078.87	0.688821	0.689166	1.61087	9	0.305548	11	0	47.509	0.00111016
2	1	0	1	0	0	1081.27	0.699173	0.699517	1.89495	9	0.309805	11	0	49.9048	0.00132555
2	1	0	0	0	0	1083.87	0.68617	0.686457	1.50831	9	0.314211	11	0	52.5054	0.00103539
2	1	0	0	0	0	1086.47	0.673168	0.673448	1.17015	9	0.317689	11	0	55.1058	0.000788037
2	1	0	1	0	0	1089.07	0.660165	0.660519	0.874658	9	0.320343	11	0	57.7064	0.000577728
2	1	0	1	0	0	1091.67	0.647163	0.647487	0.61445	9	0.322268	11	0	60.3068	0.000397848
2	1	0	1	0	0	1094.27	0.634161	0.634467	0.405568	9	0.323583	11	0	62.9073	0.00025732
2	1	0	0	0	0	1096.87	0.621158	0.621453	0.246935	9	0.32442	11	0	65.5078	0.000153459
2	1	0	0	0	0	1099.47	0.608155	0.608501	0.138818	9	0.324911	11	0	68.1082	8.44711e-05
2	1	0	1	0	0	1102.07	0.595153	0.595462	0.0678541	9	0.325172	11	0	70.7088	4.04045e-05
2	1	0	1	0	0	1104.67	0.58215	0.582458	0.0252464	9	0.325288	11	0	73.3092	1.4705e-05
2	1	0	0	0	0	1107.27	0.569148	0.569483	0.000623465	9	0.325318	11	0	75.9098	3.55053e-07
2	0	0	0	0	0	1109.87	0.556146	0.556467	-0.0144613	9	0.325299	11	0	2.5004	-8.04724e-06
2	0	0	1	0	0	1112.48	0.543143	0.543472	-0.022196	9	0.32525	11	0	5.101	-1.20629e-05
2	0	0	1	0	0	1115.08	0.530141	0.530513	-0.0276593	9	0.325184	11	0	7.7014	-1.46736e-05
2	0	0	0	0	0	1117.68	0.517138	0.517443	-0.0303385	9	0.325108	11	0	10.302	-1.56985e-05
2	0	0	0	0	0	1120.28	0.504136	0.504468	-0.033343	9	0.325025	11	0	12.9024	-1.68205e-05
2	0	0	1	0	0	1122.88	0.491133	0.491429	-0.0349344	9	0.324936	11	0	15.503	-1.71678e-05
2	0	0	1	0	0	1125.48	0.478131	0.47847	-0.0368898	9	0.324843	11	0	18.1034	-1.76506e-05
2	0	0	0	0	0	1128.08	0.465128	0.465453	-0.0385154	9	0.324745	11	0	20.704	-1.79271e-05
2	0	0	0	0	0	1130.68	0.452126	0.452436	-0.0404508	9	0.324642	11	0	23.3044	-1.83014e-05
2	1	0	1	0	1	1133.15	0.460278	0.460659	0.0295739	10	0.324673	11	0	1.8003	1.36235e-05
2	1	0	0	0	1	1135.76	0.47328	0.47356	0.031905	10	0.324754	11	0	4.4008	1.51089e-05
2	1	0	0	0	1	1138.36	0.486282	0.486623	0.0314611	10	0.324836	11	0	7.0012	1.53097e-05
2	1	0	1	0	1	1140.96	0.499285	0.499599	0.0323931	10	0.32492	11	0	9.6018	1.61836e-05
2	1	0	1	0	1	1143.56	0.512287	0.512623	0.0322831	10	0.325004	11	0	12.2022	1.65491e-05
2	1	0	0	0	1	1146.16	0.52529	0.52563	0.0345272	10	0.32509	11	0	14.8028	1.81485e-05
2	1	0	0	0	1	1148.76	0.538292	0.538618	0.0363672	10	0.325182	11	0	17.4032	1.9588e-05
2	1	0	1	0	1	1151.36	0.551295	0.55164	0.0421788	10	0.325283	11	0	20.0038	2.32675e-05
2	1	0	1	0	1	1153.96	0.564297	0.564714	0.0513899	10	0.325403	11	0	22.6042	2.90206e-05
2	1	0	0	0	1	1156.56	0.577299	0.5777	0.0693525	10	0.325557	11	0	25.2048	4.00649e-05
2	1	0	0	0	1	1159.16	0.590302	0.590696	0.100678	10	0.325775	11	0	27.8052	5.947e-05
2	1	0	1	0	1	1161.76	0.603304	0.60368	0.155058	10	0.326102	11	0	30.4058	9.36055e-05
2	1	0	1	0	1	1164.36	0.616307	0.616696	0.243632	10	0.326612	11	0	33.0062	0.000150247
2	1	0	0	0	1	1166.96	0.629309	0.62964	0.375833	10	0.327408	11	0	35.6068	0.00023664
2	1	0	0	0	1	1169.56	0.642312	0.642573	0.559314	10	0.328614	11	0	38.2072	0.0003594
2	1	0	1	0	1	1172.16	0.655314	0.6557	0.791739	10	0.330362	11	0	40.8077	0.000519143
2	1	0	1	0	1	1174.76	0.668317	0.668684	1.07477	10	0.332782	11	0	43.4082	0.000718681
2	1	0	1	0	1	1177.36	0.681319	0.68163	1.39349	10	0.335982	11	0	46.0086	0.000949848
2	1	0	0	0	1	1179.96	0.694322	0.694536	1.75108	10	0.34007	11	0	48.6092	0.00121618
2	1	0	1	0	1	1182.36	0.693672	0.69396	1.71388	10	0.344426	11	0	51.005	0.00118937
2	1	0	0	0	1	1184.96	0.680669	0.680922	1.35243	10	0.348388	11	0	53.6056	0.000920896
2	1	0	0	0	1	1187.56	0.667667	0.667993	1.02893	10	0.351474	11	0	56.206	0.00068732
2	1	0	1	0	1	1190.16	0.654664	0.65502	0.748116	10	0.353773	11	0	58.8066	0.000490031
2	1	0	1	0	1	1192.76	0.641662	0.642027	0.512748	10	0.355399	11	0	61.407	0.000329198
2	1	0	0	0	1	1195.36	0.628659	0.629048	0.327382	10	0.35648	11	0	64.0076	0.000205939
2	1	0	0	0	1	1197.96	0.615657	0.616002	0.192184	10	0.357143	11	0	66.608	0.000118386
2	1	0	1	0	1	1200.56	0.602654	0.602991	0.101882	10	0.357517	11	0	69.2085	6.14339e-05
2	1	0	1	0	1	1203.16	0.589652	0.589975	0.0454115	10	0.357702	11	0	71.809	2.67917e-05
2	1	0	1	0	1	1205.76	0.576649	0.577003	0.0117979	10	0.357772	11	0	74.4094	6.80744e-06
2	0	0	0	0	1	1208.36	0.563647	0.563941	-0.00730188	10	0.357776	11	0	1.1002	-4.11783e-06
2	0	0	0	0	1	1210.96	0.550644	0.550931	-0.0186792	10	0.357742	11	0	3.7006	-1.0291e-05
2	0	0	1	0	1	1213.57	0.537642	0.538042	-0.0246029	10	0.357685	11	0	6.3012	-1.32374e-05
2	0	0	1	0	1	1216.17	0.52464	0.525046	-0.0294344	10	0.357614	11	0	8.9016	-1.54544e-05
2	0	0	0	0	1	1218.77	0.511637	0.511949	-0.0315158	10	0.357534	11	0	11.5022	-1.61345e-05
2	0	0	0	0	1	1221.37	0.498635	0.498887	-0.0344707	10	0.357449	11	0	14.1026	-1.7197e-05
2	0	0	1	0	1	1223.97	0.485632	0.486021	-0.0354926	10	0.357358	11	0	16.7032	-1.72502e-05
2	0	0	1	0	1	1226.57	0.47263	0.473028	-0.0374778	10	0.357263	11	0	19.3036	-1.7728e-05
2	0	0	0	0	1	1229.17	0.459627	0.459961	-0.0393067	10	0.357163	11	0	21.9042	-1.80795e-05
2	1	0	1	0	0	1231.64	0.452776	0.453063	0.0244433	11	0.357092	11	0	0.3	1.10744e-05
2	1	0	1	0	0	1234.24	0.465778	0.46607	0.0305135	11	0.357168	11	0	2.9005	1.42214e-05
2	1	0	0	0	0	1236.84	0.478781	0.4792	0.0320478	11	0.35725	11	0	5.501	1.53573e-05
2	1	0	1	0	0	1239.45	0.491784	0.492102	0.0319396	11	0.357333	11	0	8.1015	1.57176e-05
2	1	0	1	0	0	1242.05	0.504786	0.505156	0.0319568	11	0.357417	11	0	10.702	1.61432e-05
2	1	0	1	0	0	1244.65	0.517788	0.518088	0.0333471	11	0.357501	11	0	13.3024	1.72767e-05
2	1	0	0	0	0	1247.25	0.530791	0.531155	0.0345039	11	0.357589	11	0	15.903	1.83269e-05
2	1	0	0	0	0	1249.85	0.543793	0.544057	0.0377549	11	0.357683	11	0	18.5034	2.05408e-05
2	1	0	1	0	0	1252.45	0.556796	0.557192	0.0450274	11	0.35779	11	0	21.104	2.50889e-05
2	1	0	1	0	0	1255.05	0.569798	0.570088	0.056594	11	0.35792	11	0	23.7044	3.22636e-05
2	1	0	0	0	0	1257.65	0.582801	0.583177	0.0795295	11	0.358095	11	0	26.305	4.63798e-05
2	1	0	0	0	0	1260.25	0.595803	0.596202	0.118373	11	0.358347	11	0	28.9054	7.05742e-05
2	1	0	1	0	0	1262.85	0.608805	0.609089	0.184101	11	0.358734	11	0	31.506	0.000112134
2	1	0	1	0	0	1265.45	0.621808	0.622251	0.289267	11	0.35934	11	0	34.1064	0.000179997
2	1	0	0	0	0	1268.05	0.634811	0.635133	0.439298	11	0.360277	11	0	36.707	0.000279013
2	1	0	0	0	0	1270.65	0.647813	0.648089	0.642613	11	0.361675	11	0	39.3074	0.000416471
2	1	0	1	0	0	1273.25	0.660815	0.661174	0.897477	11	0.363669	11	0	41.908	0.000593388
2	1	0	1	0	0	1275.85	0.673818	0.674228	1.19327	11	0.366382	11	0	44.5084	0.000804536
2	1	0	1	0	0	1278.45	0.68682	0.687095	1.52177	11	0.369911	11	0	47.1089	0.0010456
2	1	0	0	0	0	1281.04	0.699773	0.700119	1.88796	11	0.374326	11	0	49.6994	0.00132179
2	1	0	1	0	0	1283.45	0.688171	0.688462	1.54118	11	0.378449	11	0	52.1052	0.00106105
2	1	0	0	0	0	1286.05	0.675168	0.675472	1.19053	11	0.381993	11	0	54.7058	0.000804171
2	1	0	0	0	0	1288.65	0.662166	0.66248	0.8883	11	0.384689	11	0	57.3062	0.000588481
2	1	0	1	0	0	1291.25	0.649163	0.649497	0.627717	11	0.386655	11	0	59.9068	0.0004077
2	1	0	1	0	0	1293.85	0.636161	0.636503	0.41838	11	0.388	11	0	62.5072	0.0002663
2	1	0	0	0	0	1296.45	0.623158	0.623479	0.259109	11	0.388871	11	0	65.1078	0.000161549
2	1	0	0	0	0	1299.05	0.610156	0.610487	0.145282	11	0.389388	11	0	67.7082	8.86927e-05
2	1	0	1	0	0	1301.65	0.597153	0.597489	0.072672	11	0.389664	11	0	70.3088	4.34207e-05
2	1	0	1	0	0	1304.25	0.584151	0.584497	0.0282175	11	0.38979	11	0	72.9092	1.6493e-05
2	1	0	1	0	0	1306.85	0.571148	0.571464	0.00228059	11	0.389826	11	0	75.5097	1.30328e-06
2	0	0	0	0	0	1309.45	0.558146	0.558491	-0.0134766	11	0.38981	11	0	2.2004	-7.52655e-06
2	0	0	0	0	0	1312.05	0.545143	0.545536	-0.0219666	11	0.389763	11	0	4.8008	-1.19836e-05
2	0	0	1	0	0	1314.66	0.532141	0.532499	-0.0264564	11	0.389699	11	0	7.4014	-1.4088e-05
2	0	0	1	0	0	1317.26	0.519139	0.519486	-0.0296291	11	0.389625	11	0	10.0018	-1.53919e-05
2	0	0	0	0	0	1319.86	0.506136	0.506454	-0.0319852	11	0.389543	11	0	12.6024	-1.6199e-05
2	0	0	0	0	0	1322.46	0.493134	0.493462	-0.0340994	11	0.389456	11	0	15.2028	-1.68268e-05
2	0	0	1	0	0	1325.06	0.480131	0.480453	-0.0360318	11	0.389364	11	0	17.8034	-1.73116e-05
2	0	0	1	0	0	1327.66	0.467129	0.467499	-0.038216	11	0.389268	11	0	20.4038	-1.78659e-05
2	0	0	0	0	0	1330.26	0.454126	0.454461	-0.0397377	11	0.389167	11	0	23.0044	-1.80592e-05
2	1	0	1	0	1	1332.73	0.458277	0.458635	0.0293139	12	0.389169	11	0	1.4002	1.34444e-05
2	1	0	0	0	1	1335.33	0.471279	0.47162	0.0306952	12	0.389249	11	0	4.0008	1.44765e-05
2	1	0	0	0	1	1337.93	0.484282	0.484591	0.0313174	12	0.389331	11	0	6.6012	1.51761e-05
2	1	0	1	0	1	1340.54	0.497284	0.497611	0.0320661	12	0.389413	11	0	9.2017	1.59565e-05
2	1	0	1	0	1	1343.14	0.510287	0.510641	0.0324472	12	0.389497	11	0	11.8022	1.65689e-05
2	1	0	1	0	1	1345.74	0.523289	0.523644	0.0330461	12	0.389582	11	0	14.4026	1.73044e-05
2	1	0	0	0	1	1348.34	0.536292	0.536636	0.035249	12	0.389671	11	0	17.0032	1.89159e-05
2	1	0	0	0	1	1350.94	0.549294	0.549622	0.0401923	12	0.389769	11	0	19.6036	2.20906e-05
2	1	0	1	0	1	1353.54	0.562297	0.56261	0.0487471	12	0.389883	11	0	22.2042	2.74256e-05
2	1	0	1	0	1	1356.14	0.575299	0.575645	0.0638588	12	0.390027	11	0	24.8046	3.676e-05
2	1	0	0	0	1	1358.74	0.588302	0.5886	0.0910458	12	0.390226	11	0	27.4052	5.35896e-05
2	1	0	0	0	1	1361.34	0.601304	0.60165	0.139695	12	0.390521	11	0	30.0056	8.40477e-05
2	1	0	1	0	1	1363.94	0.614307	0.61464	0.219852	12	0.390981	11	0	32.6062	0.00013513
2	1	0	1	0	1	1366.54	0.627309	0.627623	0.341028	12	0.3917	11	0	35.2066	0.000214037
2	1	0	0	0	1	1369.14	0.640311	0.640656	0.51365	12	0.392802	11	0	37.8072	0.000329072
2	1	0	0	0	1	1371.74	0.653314	0.653586	0.737811	12	0.39442	11	0	40.4076	0.000482223
2	1	0	1	0	1	1374.34	0.666316	0.666603	1.00698	12	0.39668	11	0	43.0082	0.000671258
2	1	0	1	0	1	1376.94	0.679319	0.679654	1.31596	12	0.399695	11	0	45.6086	0.000894399
2	1	0	0	0	1	1379.54	0.692321	0.692637	1.65777	12	0.403562	11	0	48.2092	0.00114823
2	1	0	1	0	1	1381.94	0.695672	0.69592	1.73507	12	0.407812	11	0	50.605	0.00120747
2	1	0	1	0	1	1384.54	0.68267	0.683006	1.37922	12	0.411846	11	0	53.2054	0.000942014
2	1	0	0	0	1	1387.14	0.669667	0.669957	1.04765	12	0.414991	11	0	55.806	0.000701879
2	1	0	0	0	1	1389.74	0.656665	0.656994	0.765047	12	0.41734	11	0	58.4064	0.000502632
2	1	0	1	0	1	1392.34	0.643662	0.64395	0.525424	12	0.419007	11	0	61.007	0.000338347
2	1	0	1	0	1	1394.94	0.63066	0.630972	0.339592	12	0.420122	11	0	63.6074	0.000214273
2	1	0	0	0	1	1397.54	0.617657	0.617934	0.201726	12	0.420814	11	0	66.208	0.000124653
2	1	0	0	0	1	1400.14	0.604655	0.605006	0.10856	12	0.421209	11	0	68.8084	6.56796e-05
2	1	0	1	0	1	1402.74	0.591652	0.592018	0.0498304	12	0.421408	11	0	71.409	2.95005e-05
2	1	0	1	0	1	1405.34	0.57865	0.57901	0.0151207	12	0.421488	11	0	74.0094	8.75503e-06
2	0	0	1	0	1	1407.94	0.565647	0.56599	-0.00515198	12	0.421497	11	0	0.8001	-2.91597e-06
2	0	0	0	0	1	1410.54	0.552645	0.552913	-0.0170436	12	0.421465	11	0	3.4006	-9.42363e-06
2	0	0	1	0	1	1413.14	0.539642	0.539979	-0.0240133	12	0.421411	11	0	6.0011	-1.29667e-05
2	0	0	1	0	1	1415.74	0.52664	0.526989	-0.0286365	12	0.421342	11	0	8.6016	-1.50911e-05
2	0	0	1	0	1	1418.35	0.513637	0.513917	-0.0318009	12	0.421264	11	0	11.202	-1.6343e-05
2	0	0	0	0	1	1420.95	0.500635	0.500986	-0.0337529	12	0.42118	11	0	13.8026	-1.69097e-05
2	0	0	0	0	1	1423.55	0.487633	0.488008	-0.0353881	12	0.42109	11	0	16.403	-1.72697e-05
2	0	0	1	0	1	1426.15	0.47463	0.474921	-0.0370332	12	0.420997	11	0	19.0036	-1.75878e-05
2	0	0	1	0	1	1428.75	0.461628	0.46205	-0.0387373	12	0.420899	11	0	21.604	-1.78986e-05
2	0	0	1	0	0	1431.22	0.450776	0.45114	0.0014926	13	0.420806	11	0	24.0798	6.73369e-07
2	1	0	1	0	0	1433.82	0.463778	0.46417	0.0308961	13	0.420876	11	0	2.5004	1.43411e-05
2	1	0	0	0	0	1436.42	0.47678	0.47705	0.0313858	13	0.420957	11	0	5.101	1.49726e-05
2	1	0	0	0	0	1439.02	0.489783	0.490162	0.0314981	13	0.421039	11	0	7.7014	1.54392e-05
2	1	0	1	0	0	1441.63	0.502785	0.503117	0.0318352	13	0.421121	11	0	10.3019	1.60168e-05
2	1	0	1	0	0	1444.23	0.515788	0.516119	0.0321306	13	0.421205	11	0	12.9024	1.65832e-05
2	1	0	1	0	0	1446.83	0.52879	0.529136	0.0334445	13	0.42129	11	0	15.5029	1.76967e-05
2	1	0	0	0	0	1449.43	0.541793	0.542145	0.0365551	13	0.421382	11	0	18.1034	1.98182e-05
2	1	0	0	0	0	1452.03	0.554795	0.555096	0.0423223	13	0.421484	11	0	20.7038	2.34929e-05
2	1	0	1	0	0	1454.63	0.567798	0.568171	0.0529888	13	0.421608	11	0	23.3044	3.01067e-05
2	1	0	1	0	0	1457.23	0.5808	0.581162	0.0725225	13	0.42177	11	0	25.9048	4.21473e-05
2	1	0	0	0	0	1459.83	0.593803	0.594156	0.107501	13	0.422	11	0	28.5054	6.38725e-05
2	1	0	0	0	0	1462.43	0.606805	0.607138	0.166566	13	0.422351	11	0	31.1058	0.000101128
2	1	0	1	0	0	1465.03	0.619808	0.620142	0.260859	13	0.4229	11	0	33.7064	0.00016177
2	1	0	1	0	0	1467.63	0.63281	0.633116	0.402499	13	0.423754	11	0	36.3068	0.000254829
2	1	0	0	0	0	1470.23	0.645813	0.646125	0.594	13	0.425041	11	0	38.9074	0.000383798
2	1	0	0	0	0	1472.83	0.658815	0.659103	0.837119	13	0.426893	11	0	41.5078	0.000551747
2	1	0	1	0	0	1475.43	0.671817	0.672159	1.12681	13	0.429439	11	0	44.1084	0.000757393
2	1	0	1	0	0	1478.03	0.68482	0.68507	1.45303	13	0.432785	11	0	46.7088	0.000995426
2	1	0	0	0	0	1480.63	0.697822	0.698145	1.802	13	0.437018	11	0	49.3094	0.00125806
2	1	0	1	0	0	1483.03	0.690171	0.690475	1.5753	13	0.441178	11	0	51.7052	0.0010877
2	1	0	1	0	0	1485.63	0.677169	0.677489	1.22743	13	0.444812	11	0	54.3056	0.000831573
2	1	0	0	0	0	1488.23	0.664166	0.664484	0.920807	13	0.447595	11	0	56.9062	0.000611861
2	1	0	0	0	0	1490.83	0.651164	0.651524	0.652038	13	0.449631	11	0	59.5066	0.000424819
2	1	0	1	0	0	1493.43	0.638161	0.638449	0.436829	13	0.451038	11	0	62.1072	0.000278893
2	1	0	1	0	0	1496.03	0.625159	0.625445	0.271392	13	0.451947	11	0	64.7076	0.000169741
2	1	0	0	0	0	1498.63	0.612156	0.612502	0.155015	13	0.452491	11	0	67.3082	9.49469e-05
2	1	0	0	0	0	1501.23	0.599154	0.599469	0.078571	13	0.452785	11	0	69.9086	4.71009e-05
2	1	0	1	0	0	1503.83	0.586151	0.586495	0.0320087	13	0.452922	11	0	72.5092	1.87729e-05
2	1	0	1	0	0	1506.43	0.573149	0.573498	0.00435981	13	0.452965	11	0	75.1096	2.50034e-06
2	0	0	0	0	0	1509.03	0.560146	0.560498	-0.0112779	13	0.452953	11	0	1.9004	-6.32125e-06
2	0	0	0	0	0	1511.63	0.547144	0.547505	-0.0206747	13	0.45291	11	0	4.5008	-1.13195e-05
2	0	0	1	0	0	1514.23	0.534142	0.534497	-0.0266012	13	0.452848	11	0	7.1013	-1.42183e-05
2	0	0	1	0	0	1516.83	0.521139	0.521475	-0.0301013	13	0.452775	11	0	9.7018	-1.56971e-05
2	0	0	1	0	0	1519.44	0.508136	0.508471	-0.0321097	13	0.452694	11	0	12.3023	-1.63268e-05
2	0	0	0	0	0	1522.04	0.495134	0.49545	-0.0334899	13	0.452609	11	0	14.9028	-1.65926e-05
2	0	0	0	0	0	1524.64	0.482132	0.482436	-0.0352118	13	0.452518	11	0	17.5032	-1.69874e-05
2	0	0	1	0	0	1527.24	0.469129	0.469423	-0.0365867	13	0.452423	11	0	20.1038	-1.71747e-05
2	0	0	1	0	0	1529.84	0.456127	0.456481	-0.0387913	13	0.452324	11	0	22.7042	-1.77075e-05
2	1	0	1	0	1	1532.31	0.456277	0.45659	0.0279941	14	0.4523	11	0	1.0002	1.27818e-05
2	1	0	1	0	1	1534.91	0.469279	0.469621	0.0307308	14	0.452378	11	0	3.6006	1.44318e-05
2	1	0	0	0	1	1537.51	0.482282	0.482613	0.0318481	14	0.452459	11	0	6.2012	1.53703e-05
2	1	0	0	0	1	1540.11	0.495284	0.49561	0.0318465	14	0.452541	11	0	8.8016	1.57834e-05
2	1	0	1	0	1	1542.71	0.508286	0.508636	0.0313152	14	0.452623	11	0	11.4022	1.5928e-05
2	1	0	1	0	1	1545.32	0.521289	0.521647	0.0323096	14	0.452707	11	0	14.0026	1.68542e-05
2	1	0	1	0	1	1547.92	0.534291	0.534638	0.034539	14	0.452795	11	0	16.6031	1.84659e-05
2	1	0	0	0	1	1550.52	0.547294	0.54766	0.0386529	14	0.45289	11	0	19.2036	2.11686e-05
2	1	0	1	0	1	1553.12	0.560296	0.560636	0.0461569	14	0.452999	11	0	21.8041	2.58772e-05
2	1	0	1	0	1	1555.72	0.573299	0.573671	0.0596762	14	0.453134	11	0	24.4046	3.42345e-05
2	1	0	1	0	1	1558.32	0.586301	0.586603	0.0843032	14	0.453318	11	0	27.005	4.94525e-05
2	1	0	0	0	1	1560.92	0.599304	0.599641	0.127036	14	0.453587	11	0	29.6056	7.61762e-05
2	1	0	0	0	1	1563.52	0.612306	0.61264	0.198169	14	0.454004	11	0	32.206	0.000121406
2	1	0	1	0	1	1566.12	0.625309	0.625721	0.310476	14	0.454657	11	0	34.8066	0.000194271
2	1	0	1	0	1	1568.72	0.638311	0.638625	0.471274	14	0.455664	11	0	37.407	0.000300967
2	1	0	0	0	1	1571.32	0.651314	0.651656	0.684604	14	0.457157	11	0	40.0076	0.000446126
2	1	0	0	0	1	1573.92	0.664316	0.664649	0.943267	14	0.459264	11	0	42.608	0.000626941
2	1	0	1	0	1	1576.52	0.677319	0.677664	1.24718	14	0.462105	11	0	45.2086	0.000845169
2	1	0	1	0	1	1579.12	0.690321	0.690663	1.58367	14	0.465781	11	0	47.809	0.00109378
2	1	0	0	0	1	1581.52	0.697672	0.69795	1.77687	14	0.469948	11	0	50.2048	0.00124017
2	1	0	1	0	1	1584.12	0.68467	0.684973	1.41373	14	0.474077	11	0	52.8054	0.000968364
2	1	0	1	0	1	1586.72	0.671667	0.672003	1.08524	14	0.477317	11	0	55.4058	0.000729284
2	1	0	0	0	1	1589.32	0.658665	0.658959	0.793773	14	0.47975	11	0	58.0064	0.000523064
2	1	0	0	0	1	1591.92	0.645662	0.64599	0.550505	14	0.481483	11	0	60.6068	0.000355621
2	1	0	1	0	1	1594.52	0.63266	0.633006	0.355657	14	0.482651	11	0	63.2074	0.000225133
2	1	0	1	0	1	1597.12	0.619658	0.619967	0.213315	14	0.483381	11	0	65.8078	0.000132248
2	1	0	0	0	1	1599.72	0.606655	0.607003	0.116216	14	0.4838	11	0	68.4084	7.05437e-05
2	1	0	0	0	1	1602.32	0.593653	0.593931	0.0546318	14	0.484014	11	0	71.0088	3.24475e-05
2	1	0	1	0	1	1604.92	0.58065	0.581014	0.0174853	14	0.484102	11	0	73.6094	1.01592e-05
2	0	0	1	0	1	1607.52	0.567648	0.567939	-0.00423254	14	0.484117	11	0	0.5	-2.40383e-06
2	0	0	0	0	1	1610.12	0.554645	0.555016	-0.0166191	14	0.484089	11	0	3.1006	-9.22386e-06
2	0	0	0	0	1	1612.72	0.541643	0.541943	-0.0229685	14	0.484037	11	0	5.701	-1.24476e-05
2	0	0	1	0	1	1615.32	0.52864	0.528978	-0.0274003	14	0.48397	11	0	8.3016	-1.44942e-05
2	0	0	1	0	1	1617.92	0.515638	0.515942	-0.031189	14	0.483894	11	0	10.902	-1.60917e-05
2	0	0	1	0	1	1620.53	0.502636	0.502903	-0.0326939	14	0.48381	11	0	13.5025	-1.64419e-05
2	0	0	0	0	1	1623.13	0.489633	0.489933	-0.0346124	14	0.483722	11	0	16.103	-1.69577e-05
2	0	0	0	0	1	1625.73	0.47663	0.476987	-0.0360781	14	0.48363	11	0	18.7034	-1.72088e-05
2	0	0	1	0	1	1628.33	0.463628	0.463971	-0.0372575	14	0.483534	11	0	21.304	-1.72864e-05
2	0	0	1	0	1	1630.93	0.450626	0.450985	-0.0399642	14	0.483433	11	0	23.9044	-1.80232e-05
2	1	0	1	0	0	1633.4	0.461778	0.462081	0.0305371	15	0.483484	11	0	2.1004	1.41106e-05
2	1	0	1	0	0	1636	0.47478	0.475093	0.0306886	15	0.483564	11	0	4.7008	1.458e-05
2	1	0	0	0	0	1638.6	0.487783	0.488127	0.0315082	15	0.483645	11	0	7.3014	1.538e-05
2	1	0	0	0	0	1641.2	0.500785	0.501164	0.0318	15	0.483727	11	0	9.9018	1.5937e-05
2	1	0	1	0	0	1643.8	0.513788	0.514079	0.0314971	15	0.48381	11	0	12.5024	1.6192e-05
2	1	0	1	0	0	1646.41	0.52679	0.527114	0.0336818	15	0.483894	11	0	15.1028	1.77542e-05
2	1	0	0	0	0	1649.01	0.539792	0.540139	0.0357311	15	0.483984	11	0	17.7034	1.92998e-05
2	1	0	0	0	0	1651.61	0.552795	0.553126	0.0406444	15	0.484083	11	0	20.3038	2.24815e-05
2	1	0	1	0	0	1654.21	0.565797	0.566191	0.0504858	15	0.4842	11	0	22.9043	2.85846e-05
2	1	0	1	0	0	1656.81	0.5788	0.579108	0.0671805	15	0.484351	11	0	25.5048	3.89047e-05
2	1	0	1	0	0	1659.41	0.591802	0.592171	0.0982613	15	0.484563	11	0	28.1052	5.81875e-05
2	1	0	0	0	0	1662.01	0.604805	0.605162	0.150919	15	0.484882	11	0	30.7058	9.13304e-05
2	1	0	0	0	0	1664.61	0.617807	0.618131	0.237471	15	0.485379	11	0	33.3062	0.000146788
2	1	0	1	0	0	1667.21	0.63081	0.631119	0.368392	15	0.486157	11	0	35.9068	0.000232499
2	1	0	1	0	0	1669.81	0.643812	0.644156	0.549581	15	0.48734	11	0	38.5072	0.000354016
2	1	0	0	0	0	1672.41	0.656815	0.6572	0.782775	15	0.489064	11	0	41.1078	0.00051444
2	1	0	0	0	0	1675.01	0.669817	0.670189	1.05865	15	0.491452	11	0	43.7082	0.000709499
2	1	0	1	0	0	1677.61	0.68282	0.683067	1.3689	15	0.494602	11	0	46.3088	0.000935052
2	1	0	1	0	0	1680.21	0.695822	0.696143	1.72219	15	0.498619	11	0	48.9092	0.00119889
2	1	0	1	0	0	1682.61	0.692171	0.692571	1.60075	15	0.502786	11	0	51.3051	0.00110864
2	1	0	1	0	0	1685.21	0.679169	0.679505	1.26103	15	0.506498	11	0	53.9056	0.000856877
2	1	0	1	0	0	1687.81	0.666166	0.666456	0.94988	15	0.509366	11	0	56.506	0.000633053
2	1	0	0	0	0	1690.41	0.653164	0.653534	0.674852	15	0.511468	11	0	59.1066	0.000441039
2	1	0	0	0	0	1693.01	0.640162	0.640381	0.457822	15	0.512928	11	0	61.707	0.00029318
2	1	0	1	0	0	1695.61	0.627159	0.627517	0.285568	15	0.513882	11	0	64.3076	0.000179199
2	1	0	1	0	0	1698.21	0.614157	0.614448	0.164921	15	0.514457	11	0	66.908	0.000101336
2	1	0	0	0	0	1700.81	0.601154	0.601434	0.0841078	15	0.514772	11	0	69.5086	5.05853e-05
2	1	0	0	0	0	1703.41	0.588152	0.58849	0.0352996	15	0.514921	11	0	72.109	2.07734e-05
2	1	0	1	0	0	1706.01	0.575149	0.575477	0.0070291	15	0.514973	11	0	74.7096	4.04508e-06
2	0	0	1	0	0	1708.61	0.562147	0.562493	-0.0105568	15	0.514966	11	0	1.7002	-5.93814e-06
2	0	0	0	0	0	1711.21	0.549144	0.5495	-0.0195903	15	0.514926	11	0	4.3008	-1.07649e-05
2	0	0	0	0	0	1713.81	0.536142	0.536445	-0.0252134	15	0.514866	11	0	6.9012	-1.35256e-05
2	0	0	1	0	0	1716.41	0.523139	0.523409	-0.0291635	15	0.514795	11	0	9.5018	-1.52645e-05
2	0	0	1	0	0	1719.01	0.510137	0.510534	-0.0312447	15	0.514716	11	0	12.1022	-1.59515e-05
2	0	0	1	0	0	1721.61	0.497135	0.497483	-0.0335713	15	0.514632	11	0	14.7027	-1.67011e-05
2	0	0	0	0	0	1724.22	0.484132	0.484475	-0.0354214	15	0.514543	11	0	17.3032	-1.71608e-05
2	0	0	1	0	0	1726.82	0.471129	0.471371	-0.0364366	15	0.51445	11	0	19.9037	-1.71752e-05
2	0	0	1	0	0	1729.42	0.458127	0.458454	-0.0379746	15	0.514352	11	0	22.5042	-1.74096e-05
2	0	0	0	0	0	1731.04	0.450001	0.450418	-0.0422979	15	0.514289	11	0	24.1246	-1.90518e-05