File: ACS_Catal_2026/Figures_Na_K/main_figures/data/EC/20240401_2-128_CV_cycles_alpha_gamma/alpha/20240328_2-128_003_alpha_Na-1_02_PEIS_C01.mpt
EC-Lab ASCII FILE
Nb header lines : 63

Potentio Electrochemical Impedance Spectroscopy

Run on channel : 1 (SN 66412)
User :
CE vs. WE compliance from -10 V to 10 V
Electrode connection : standard
Potential control : Ewe
Ewe ctrl range : min = -1.00 V, max = 1.00 V
Safety Limits :
	Do not start on E overload
Acquisition started on : 04/01/2024 19:24:04.746
Loaded Setting File :  C:\Users\NakamuraT\Documents\EC-Lab\Data\Yatsuzuka\20240328_2-129_UV-vis_K_Na_diff\20240328_2-129_001_preconditioning+CV_inK.mps
Saved on :
	File : 20240328_2-128_003_alpha_Na-1_02_PEIS_C01.mpr
	Directory : C:\Users\NakamuraT\Documents\EC-Lab\Data\Yatsuzuka\20240401_2-128_CV_cycles_alpha_gamma\
	Host : 192.109.209.100
Device : SP-150e (SN .003411)
Address : 192.109.209.236
EC-Lab for windows v11.50 (software)
Internet server v11.50 (firmware)
Command interpretor v11.50 (firmware)
Electrode material :
Initial state :
Electrolyte :
Comments :
Electrode surface area : 0.001 cm2
Characteristic mass : 0.001 g
Equivalent Weight : 0.000 g/eq.
Density : 0.000 g/cm3
Volume (V) : 0.001 cm3
Cycle Definition : Charge/Discharge alternance
Mode                Single sine
E (V)               0.4500
vs.                 Ref
tE (h:m:s)          0:00:0.0000
record              0
dI                  0.000
unit dI             mA
dt (s)              0.000
fi                  500.000
unit fi             kHz
ff                  1.000
unit ff             Hz
Nd                  6
Points              per decade
spacing             Logarithmic
Va (mV)             10.0
pw                  0.10
Na                  2
corr                0
E range min (V)     -1.000
E range max (V)     1.000
I Range             Auto
Bandwidth           5
nc cycles           0
goto Ns'            0
nr cycles           0
inc. cycle          0

freq/Hz	Re(Z)/Ohm	-Im(Z)/Ohm	|Z|/Ohm	Phase(Z)/deg	time/s	<Ewe>/V	<I>/mA	Cs/uF	Cp/uF	cycle number	I Range	|Ewe|/V	|I|/A	Ns	(Q-Qo)/mA.h	Re(Y)/Ohm-1	Im(Y)/Ohm-1	|Y|/Ohm-1	Phase(Y)/deg	Re(C)/nF	Im(C)/nF	|C|/nF	Phase(C)/deg	Re(M)	Im(M)	|M|	Phase(M)/deg	Re(Permittivity)	Im(Permittivity)	|Permittivity|	Phase(Permittivity)/deg	Re(Resistivity)/Ohm.cm	Im(Resistivity)/Ohm.cm	|Resistivity|/Ohm.cm	Phase(Resistivity)/deg	Re(Conductivity)/mS/cm	Im(Conductivity)/mS/cm	|Conductivity|/mS/cm	Phase(Conductivity)/deg	Tan(Delta)	Loss Angle(Delta)/deg	dq/mA.h
500019	36.3771	-4.38351	36.6402	6.87113	200.716	0.450448	0.127293	-0.0726126	-0.0010393	1	11	0.00776325	0.000211878	0	5.67136e-05	0.0270964	-0.00326517	0.0272924	-6.87113	-1.0393	8.62473	8.68712	-96.8711	0.0000000E+000	0.0000000E+000	0.0000000E+000	96.8711	0.0000000E+000	0.0000000E+000	0.0000000E+000	-96.8711	0.0000000E+000	0.0000000E+000	0.0000000E+000	6.87113	0.0000000E+000	0.0000000E+000	0.0000000E+000	-6.87113	8.29861	83.1289	5.67136e-05
339899	26.3423	-5.28655	26.8676	11.3477	201.441	0.450314	0.00327289	-0.0885723	-0.00342914	1	10	0.00994296	0.000370073	0	6.07617e-05	0.036492	-0.00732344	0.0372196	-11.3477	-3.42914	17.0871	17.4277	-101.348	0.0000000E+000	0.0000000E+000	0.0000000E+000	101.348	0.0000000E+000	0.0000000E+000	0.0000000E+000	-101.348	0.0000000E+000	0.0000000E+000	0.0000000E+000	11.3477	0.0000000E+000	0.0000000E+000	0.0000000E+000	-11.3477	4.9829	78.6523	4.04817e-06
231063	22.1114	-3.3141	22.3584	8.52414	201.864	0.450276	-0.00492781	-0.207838	-0.0045664	1	10	0.0106511	0.00047638	0	6.15719e-05	0.0442318	-0.00662954	0.0447259	-8.52414	-4.5664	30.4667	30.807	-98.5241	0.0000000E+000	0.0000000E+000	0.0000000E+000	98.5241	0.0000000E+000	0.0000000E+000	0.0000000E+000	-98.5241	0.0000000E+000	0.0000000E+000	0.0000000E+000	8.52414	0.0000000E+000	0.0000000E+000	0.0000000E+000	-8.52414	6.67193	81.4759	8.10134e-07
157076	20.7387	-1.85343	20.8213	5.10699	202.286	0.45029	-0.00811666	-0.546683	-0.00433182	1	10	0.0108361	0.000520432	0	5.97097e-05	0.047837	-0.00427523	0.0480277	-5.10699	-4.33182	48.4702	48.6634	-95.107	0.0000000E+000	0.0000000E+000	0.0000000E+000	95.107	0.0000000E+000	0.0000000E+000	0.0000000E+000	-95.107	0.0000000E+000	0.0000000E+000	0.0000000E+000	5.10699	0.0000000E+000	0.0000000E+000	0.0000000E+000	-5.10699	11.1894	84.893	-1.86221e-06
106786	20.3315	-1.13992	20.3634	3.20905	202.709	0.45029	-0.0104379	-1.30746	-0.00409714	1	10	0.0106584	0.000523411	0	5.80137e-05	0.0490307	-0.00274901	0.0491077	-3.20905	-4.09714	73.0757	73.1905	-93.209	0.0000000E+000	0.0000000E+000	0.0000000E+000	93.209	0.0000000E+000	0.0000000E+000	0.0000000E+000	-93.209	0.0000000E+000	0.0000000E+000	0.0000000E+000	3.20905	0.0000000E+000	0.0000000E+000	0.0000000E+000	-3.20905	17.8358	86.791	-1.69592e-06
72595	20.2069	-0.70093	20.219	1.98666	203.131	0.450295	-0.0118205	-3.1278	-0.00375896	1	10	0.0105472	0.000521649	0	5.64727e-05	0.0494287	-0.00171457	0.0494584	-1.98666	-3.75896	108.366	108.431	-91.9867	0.0000000E+000	0.0000000E+000	0.0000000E+000	91.9867	0.0000000E+000	0.0000000E+000	0.0000000E+000	-91.9867	0.0000000E+000	0.0000000E+000	0.0000000E+000	1.98666	0.0000000E+000	0.0000000E+000	0.0000000E+000	-1.98666	28.8287	88.0133	-1.54105e-06
49352.4	20.0903	-0.454829	20.0955	1.29691	203.553	0.45029	-0.012384	-7.09028	-0.00363215	1	10	0.0105015	0.000522578	0	5.52513e-05	0.0497497	-0.00112629	0.0497624	-1.29691	-3.63216	160.436	160.477	-91.2969	0.0000000E+000	0.0000000E+000	0.0000000E+000	91.2969	0.0000000E+000	0.0000000E+000	0.0000000E+000	-91.2969	0.0000000E+000	0.0000000E+000	0.0000000E+000	1.29691	0.0000000E+000	0.0000000E+000	0.0000000E+000	-1.29691	44.1712	88.7031	-1.22137e-06
33551.1	20.0437	-0.320572	20.0463	0.91629	203.975	0.450291	-0.0127516	-14.7975	-0.00378419	1	10	0.0104132	0.00051946	0	5.39066e-05	0.0498783	-0.000797735	0.0498846	-0.91629	-3.78419	236.606	236.636	-90.9163	0.0000000E+000	0.0000000E+000	0.0000000E+000	90.9163	0.0000000E+000	0.0000000E+000	0.0000000E+000	-90.9163	0.0000000E+000	0.0000000E+000	0.0000000E+000	0.91629	0.0000000E+000	0.0000000E+000	0.0000000E+000	-0.91629	62.5248	89.0837	-1.34475e-06
22806.6	19.9359	-0.210683	19.937	0.60548	204.397	0.450294	-0.0130016	-33.1231	-0.00369887	1	10	0.0103822	0.000520747	0	5.1985e-05	0.0501551	-0.00053004	0.0501579	-0.60548	-3.69889	350.006	350.026	-90.6055	0.0000000E+000	0.0000000E+000	0.0000000E+000	90.6055	0.0000000E+000	0.0000000E+000	0.0000000E+000	-90.6055	0.0000000E+000	0.0000000E+000	0.0000000E+000	0.60548	0.0000000E+000	0.0000000E+000	0.0000000E+000	-0.60548	94.6251	89.3945	-1.92153e-06
15504.4	20.0046	-0.127292	20.005	0.364578	204.819	0.450293	-0.0137144	-80.6423	-0.00326507	1	10	0.0102178	0.000510762	0	5.00824e-05	0.0499866	-0.000318073	0.0499876	-0.364578	-3.26507	513.12	513.131	-90.3646	0.0000000E+000	0.0000000E+000	0.0000000E+000	90.3646	0.0000000E+000	0.0000000E+000	0.0000000E+000	-90.3646	0.0000000E+000	0.0000000E+000	0.0000000E+000	0.364578	0.0000000E+000	0.0000000E+000	0.0000000E+000	-0.364578	157.154	89.6354	-1.90266e-06
10540.4	20.0103	-0.0955955	20.0105	0.273718	205.241	0.450301	-0.0144664	-157.953	-0.00360483	1	10	0.0101926	0.000509363	0	4.85488e-05	0.0499732	-0.000238738	0.0499738	-0.273718	-3.60485	754.572	754.581	-90.2737	0.0000000E+000	0.0000000E+000	0.0000000E+000	90.2737	0.0000000E+000	0.0000000E+000	0.0000000E+000	-90.2737	0.0000000E+000	0.0000000E+000	0.0000000E+000	0.273718	0.0000000E+000	0.0000000E+000	0.0000000E+000	-0.273718	209.322	89.7263	-1.53361e-06
7163.78	19.9978	-0.0529013	19.9979	0.151567	205.597	0.450286	-0.0168958	-419.964	-0.00293883	1	10	0.0109968	0.000549896	0	4.6925e-05	0.050005	-0.000132281	0.0500052	-0.151567	-2.9388	1110.94	1110.95	-90.1516	0.0000000E+000	0.0000000E+000	0.0000000E+000	90.1516	0.0000000E+000	0.0000000E+000	0.0000000E+000	-90.1516	0.0000000E+000	0.0000000E+000	0.0000000E+000	0.151567	0.0000000E+000	0.0000000E+000	0.0000000E+000	-0.151567	378.022	89.8484	-1.62382e-06
4871.56	20.0256	-0.0337866	20.0256	0.0966677	206.288	0.450309	-0.0158527	-966.959	-0.00275248	1	10	0.0101419	0.000506448	0	4.48681e-05	0.049936	-8.42505e-05	0.049936	-0.0966677	-2.75239	1631.42	1631.42	-90.0967	0.0000000E+000	0.0000000E+000	0.0000000E+000	90.0967	0.0000000E+000	0.0000000E+000	0.0000000E+000	-90.0967	0.0000000E+000	0.0000000E+000	0.0000000E+000	0.0966677	0.0000000E+000	0.0000000E+000	0.0000000E+000	-0.0966677	592.708	89.9033	-2.05685e-06
3311.06	19.9872	-0.0113957	19.9872	0.0326671	206.753	0.450308	-0.016239	-4218.07	-0.00137116	1	10	0.0103421	0.000517438	0	4.27319e-05	0.0500321	-2.85257e-05	0.0500321	-0.0326671	-1.37125	2404.93	2404.93	-90.0327	0.0000000E+000	0.0000000E+000	0.0000000E+000	90.0327	0.0000000E+000	0.0000000E+000	0.0000000E+000	-90.0327	0.0000000E+000	0.0000000E+000	0.0000000E+000	0.0326671	0.0000000E+000	0.0000000E+000	0.0000000E+000	-0.0326671	1753.93	89.9673	-2.13623e-06
2250.72	20.035	0.00366673	20.035	-0.010486	207.218	0.450312	-0.0174145	19285	0.000645949	1	10	0.0104405	0.000521114	0	4.02917e-05	0.0499127	9.13482e-06	0.0499127	0.010486	0.645748	3529.47	3529.47	-89.9895	0.0000000E+000	0.0000000E+000	0.0000000E+000	89.9895	0.0000000E+000	0.0000000E+000	0.0000000E+000	-89.9895	0.0000000E+000	0.0000000E+000	0.0000000E+000	-0.010486	0.0000000E+000	0.0000000E+000	0.0000000E+000	0.010486	5464	89.9895	-2.44013e-06
1530.49	19.9868	0.00936319	19.9868	-0.0268413	207.683	0.45031	-0.0169779	11106.2	0.0024374	1	10	0.0104854	0.000524614	0	3.79637e-05	0.050033	2.34389e-05	0.050033	0.0268413	2.4373	5202.91	5202.91	-89.9732	0.0000000E+000	0.0000000E+000	0.0000000E+000	89.9732	0.0000000E+000	0.0000000E+000	0.0000000E+000	-89.9732	0.0000000E+000	0.0000000E+000	0.0000000E+000	-0.0268413	0.0000000E+000	0.0000000E+000	0.0000000E+000	0.0268413	2134.62	89.9732	-2.32806e-06
1040.33	20.0107	0.0266778	20.0107	-0.0763854	208.148	0.450316	-0.0174388	5734.52	0.0101923	1	10	0.0105136	0.0005254	0	3.61291e-05	0.0499731	6.66231e-05	0.0499732	0.0763854	10.1923	7645.12	7645.13	-89.9236	0.0000000E+000	0.0000000E+000	0.0000000E+000	89.9236	0.0000000E+000	0.0000000E+000	0.0000000E+000	-89.9236	0.0000000E+000	0.0000000E+000	0.0000000E+000	-0.0763854	0.0000000E+000	0.0000000E+000	0.0000000E+000	0.0763854	750.087	89.9236	-1.83456e-06
707.036	20.0229	0.0363438	20.0229	-0.103998	208.613	0.45031	-0.0175041	6193.66	0.0204058	1	10	0.0105273	0.00052576	0	3.38199e-05	0.0499426	9.06516e-05	0.0499427	0.103998	20.4054	11242.2	11242.2	-89.896	0.0000000E+000	0.0000000E+000	0.0000000E+000	89.896	0.0000000E+000	0.0000000E+000	0.0000000E+000	-89.896	0.0000000E+000	0.0000000E+000	0.0000000E+000	-0.103998	0.0000000E+000	0.0000000E+000	0.0000000E+000	0.103998	550.93	89.896	-2.30919e-06
480.769	20.0661	0.0826337	20.0662	-0.235947	209.078	0.450317	-0.0180116	4006.14	0.0679373	1	10	0.0105451	0.000525516	0	3.13639e-05	0.0498345	0.000205222	0.0498349	0.235947	67.9372	16497.3	16497.5	-89.7641	0.0000000E+000	0.0000000E+000	0.0000000E+000	89.7641	0.0000000E+000	0.0000000E+000	0.0000000E+000	-89.7641	0.0000000E+000	0.0000000E+000	0.0000000E+000	-0.235947	0.0000000E+000	0.0000000E+000	0.0000000E+000	0.235947	242.832	89.7641	-2.45607e-06
326.778	20.0223	0.11331	20.0226	-0.324244	209.541	0.450321	-0.018103	4298.32	0.137656	1	10	0.0105401	0.000526411	0	2.91518e-05	0.0499427	0.000282635	0.0499435	0.324244	137.655	24324.3	24324.7	-89.6758	0.0000000E+000	0.0000000E+000	0.0000000E+000	89.6758	0.0000000E+000	0.0000000E+000	0.0000000E+000	-89.6758	0.0000000E+000	0.0000000E+000	0.0000000E+000	-0.324244	0.0000000E+000	0.0000000E+000	0.0000000E+000	0.324244	176.704	89.6758	-2.21204e-06
222.061	19.9581	0.164846	19.9588	-0.47323	210.002	0.450307	-0.0184893	4347.8	0.296592	1	10	0.0105466	0.000528421	0	2.65421e-05	0.0501016	0.000413819	0.0501033	0.47323	296.591	35908.7	35909.9	-89.5268	0.0000000E+000	0.0000000E+000	0.0000000E+000	89.5268	0.0000000E+000	0.0000000E+000	0.0000000E+000	-89.5268	0.0000000E+000	0.0000000E+000	0.0000000E+000	-0.47323	0.0000000E+000	0.0000000E+000	0.0000000E+000	0.47323	121.071	89.5268	-2.60972e-06
151.015	19.9227	0.213059	19.9238	-0.612714	210.464	0.450319	-0.0185285	4946.53	0.565659	1	10	0.0105494	0.000529489	0	2.43392e-05	0.0501883	0.000536728	0.0501912	0.612714	565.661	52893.6	52896.6	-89.3873	0.0000000E+000	0.0000000E+000	0.0000000E+000	89.3873	0.0000000E+000	0.0000000E+000	0.0000000E+000	-89.3873	0.0000000E+000	0.0000000E+000	0.0000000E+000	-0.612714	0.0000000E+000	0.0000000E+000	0.0000000E+000	0.612714	93.5079	89.3873	-2.20288e-06
102.667	19.9983	0.283296	20.0003	-0.8116	210.939	0.45032	-0.0182542	5472.02	1.09788	1	10	0.0105546	0.000527721	0	2.23487e-05	0.0499943	0.000708222	0.0499994	0.8116	1097.88	77501.2	77509	-89.1884	0.0000000E+000	0.0000000E+000	0.0000000E+000	89.1884	0.0000000E+000	0.0000000E+000	0.0000000E+000	-89.1884	0.0000000E+000	0.0000000E+000	0.0000000E+000	-0.8116	0.0000000E+000	0.0000000E+000	0.0000000E+000	0.8116	70.5914	89.1884	-1.99053e-06
69.7545	20.0425	0.43642	20.0472	-1.24741	211.406	0.450319	-0.0189726	5228.09	2.47767	1	10	0.0105565	0.000526582	0	2.01196e-05	0.0498704	0.00108592	0.0498822	1.24741	2477.68	113787	113813	-88.7526	0.0000000E+000	0.0000000E+000	0.0000000E+000	88.7526	0.0000000E+000	0.0000000E+000	0.0000000E+000	-88.7526	0.0000000E+000	0.0000000E+000	0.0000000E+000	-1.24741	0.0000000E+000	0.0000000E+000	0.0000000E+000	1.24741	45.9247	88.7526	-2.22913e-06
47.4443	20.1602	0.635689	20.1702	-1.80605	212.094	0.450298	-0.0012422	5277.05	5.24156	1	11	0.010557	0.000523394	0	1.8686e-05	0.0495535	0.00156252	0.0495781	1.80605	5241.55	166230	166313	-88.194	0.0000000E+000	0.0000000E+000	0.0000000E+000	88.194	0.0000000E+000	0.0000000E+000	0.0000000E+000	-88.194	0.0000000E+000	0.0000000E+000	0.0000000E+000	-1.80605	0.0000000E+000	0.0000000E+000	0.0000000E+000	1.80605	31.7139	88.194	-1.4336e-06
32.2387	20.1456	0.87169	20.1644	-2.47762	212.531	0.450305	-9.1001e-05	5663.45	10.5836	1	11	0.0105593	0.000523661	0	1.87602e-05	0.0495459	0.00214383	0.0495923	2.47762	10583.6	244597	244826	-87.5224	0.0000000E+000	0.0000000E+000	0.0000000E+000	87.5224	0.0000000E+000	0.0000000E+000	0.0000000E+000	-87.5224	0.0000000E+000	0.0000000E+000	0.0000000E+000	-2.47762	0.0000000E+000	0.0000000E+000	0.0000000E+000	2.47762	23.1109	87.5224	7.42027e-08
21.9144	20.1089	1.24776	20.1476	-3.55067	212.962	0.450297	-0.000741019	5820.46	22.3242	1	11	0.0105655	0.000524406	0	1.72262e-05	0.0495385	0.00307388	0.0496338	3.55067	22324.2	359776	360468	-86.4493	0.0000000E+000	0.0000000E+000	0.0000000E+000	86.4493	0.0000000E+000	0.0000000E+000	0.0000000E+000	-86.4493	0.0000000E+000	0.0000000E+000	0.0000000E+000	-3.55067	0.0000000E+000	0.0000000E+000	0.0000000E+000	3.55067	16.1159	86.4493	-1.53401e-06
14.9093	19.9502	1.76079	20.0278	-5.04382	213.429	0.450309	-0.00161467	6062.51	46.8603	1	11	0.0105654	0.000527538	0	1.6701e-05	0.0497374	0.00438979	0.0499307	5.04382	46860.3	530938	533002	-84.9562	0.0000000E+000	0.0000000E+000	0.0000000E+000	84.9562	0.0000000E+000	0.0000000E+000	0.0000000E+000	-84.9562	0.0000000E+000	0.0000000E+000	0.0000000E+000	-5.04382	0.0000000E+000	0.0000000E+000	0.0000000E+000	5.04382	11.3302	84.9562	-5.25138e-07
10.1329	20.1579	2.69531	20.3373	-7.61584	213.889	0.450319	-0.0024264	5827.4	102.354	1	11	0.0105772	0.000520088	0	1.90487e-05	0.0487369	0.0065166	0.0491707	7.61584	102354	765495	772308	-82.3842	0.0000000E+000	0.0000000E+000	0.0000000E+000	82.3842	0.0000000E+000	0.0000000E+000	0.0000000E+000	-82.3842	0.0000000E+000	0.0000000E+000	0.0000000E+000	-7.61584	0.0000000E+000	0.0000000E+000	0.0000000E+000	7.61584	7.47888	82.3842	2.34764e-06
6.88933	20.1884	3.82929	20.5483	-10.7402	214.242	0.450308	-0.00201289	6032.88	209.511	1	11	0.0105722	0.000514503	0	1.70197e-05	0.0478132	0.00906911	0.0486657	10.7402	209511	1.10456e+06	1.12426e+06	-79.2599	0.0000000E+000	0.0000000E+000	0.0000000E+000	79.2599	0.0000000E+000	0.0000000E+000	0.0000000E+000	-79.2599	0.0000000E+000	0.0000000E+000	0.0000000E+000	-10.7402	0.0000000E+000	0.0000000E+000	0.0000000E+000	10.7402	5.2721	79.2599	-2.0289e-06
4.68375	20.3686	5.56512	21.1152	-15.2814	214.739	0.450328	-0.000328068	6105.93	424.141	1	11	0.0105727	0.000500714	0	2.23644e-05	0.0456848	0.012482	0.0473593	15.2814	424141	1.55238e+06	1.60928e+06	-74.7186	0.0000000E+000	0.0000000E+000	0.0000000E+000	74.7186	0.0000000E+000	0.0000000E+000	0.0000000E+000	-74.7186	0.0000000E+000	0.0000000E+000	0.0000000E+000	-15.2814	0.0000000E+000	0.0000000E+000	0.0000000E+000	15.2814	3.66005	74.7186	5.3446e-06
3.18099	20.4487	8.33556	22.0823	-22.1774	215.443	0.450314	-0.000219606	6002.38	855.27	1	11	0.0105767	0.000478967	0	1.62554e-05	0.0419348	0.017094	0.0452851	22.1774	855270	2.09813e+06	2.26576e+06	-67.8226	0.0000000E+000	0.0000000E+000	0.0000000E+000	67.8226	0.0000000E+000	0.0000000E+000	0.0000000E+000	-67.8226	0.0000000E+000	0.0000000E+000	0.0000000E+000	-22.1774	0.0000000E+000	0.0000000E+000	0.0000000E+000	22.1774	2.45318	67.8226	-6.109e-06
2.16533	20.8463	11.7252	23.9175	-29.356	216.454	0.450348	-0.00141323	6268.68	1506.55	1	11	0.0105844	0.000442539	0	9.47333e-06	0.0364415	0.0204969	0.0418103	29.356	1.50655e+06	2.67851e+06	3.07313e+06	-60.644	0.0000000E+000	0.0000000E+000	0.0000000E+000	60.644	0.0000000E+000	0.0000000E+000	0.0000000E+000	-60.644	0.0000000E+000	0.0000000E+000	0.0000000E+000	-29.356	0.0000000E+000	0.0000000E+000	0.0000000E+000	29.356	1.7779	60.644	-6.78203e-06
1.46962	21.0639	17.4451	27.3499	-39.6315	217.924	0.450349	-0.000776948	6207.85	2525.67	1	11	0.0105857	0.000387047	0	1.46859e-05	0.0281596	0.0233217	0.0365632	39.6315	2.52567e+06	3.04959e+06	3.95967e+06	-50.3685	0.0000000E+000	0.0000000E+000	0.0000000E+000	50.3685	0.0000000E+000	0.0000000E+000	0.0000000E+000	-50.3685	0.0000000E+000	0.0000000E+000	0.0000000E+000	-39.6315	0.0000000E+000	0.0000000E+000	0.0000000E+000	39.6315	1.20744	50.3685	5.21261e-06
1.00006	21.4314	24.9627	32.9005	-49.3527	221.113	0.450345	0.00102487	6375.29	3670.11	1	12	0.0105877	0.000321808	0	2.80436e-05	0.0197991	0.0230614	0.0303947	49.3527	3.67011e+06	3.15092e+06	4.83715e+06	-40.6473	0.0000000E+000	0.0000000E+000	0.0000000E+000	40.6473	0.0000000E+000	0.0000000E+000	0.0000000E+000	-40.6473	0.0000000E+000	0.0000000E+000	0.0000000E+000	-49.3527	0.0000000E+000	0.0000000E+000	0.0000000E+000	49.3527	0.858537	40.6473	1.33577e-05