File: ACS_Catal_2026/Figures_Na_K/main_figures/data/EC/20240401_2-128_CV_cycles_alpha_gamma/alpha/20240328_2-128_007_alpha_Na-2_03_CVA_C01.mpt
EC-Lab ASCII FILE
Nb header lines : 66

Cyclic Voltammetry Advanced

Run on channel : 1 (SN 66412)
User :
CE vs. WE compliance from -10 V to 10 V
Electrode connection : standard
Potential control : Ewe
Ewe ctrl range : min = -1.00 V, max = 1.00 V
Safety Limits :
	Do not start on E overload
Acquisition started on : 04/01/2024 20:30:54.900
Loaded Setting File :  C:\Users\NakamuraT\Documents\EC-Lab\Data\Yatsuzuka\20240328_2-129_UV-vis_K_Na_diff\20240328_2-129_001_preconditioning+CV_inK.mps
Saved on :
	File : 20240328_2-128_007_alpha_Na-2_03_CVA_C01.mpr
	Directory : C:\Users\NakamuraT\Documents\EC-Lab\Data\Yatsuzuka\20240401_2-128_CV_cycles_alpha_gamma\
	Host : 192.109.209.100
Device : SP-150e (SN .003411)
Address : 192.109.209.236
EC-Lab for windows v11.50 (software)
Internet server v11.50 (firmware)
Command interpretor v11.50 (firmware)
Electrode material :
Initial state :
Electrolyte :
Comments :
Electrode surface area : 0.001 cm2
Characteristic mass : 0.001 g
Equivalent Weight : 0.000 g/eq.
Density : 0.000 g/cm3
Volume (V) : 0.001 cm3
Cycle Definition : Charge/Discharge alternance
Ei (V)              0.450
vs.                 Ref
ti (h:m:s)          0:00:10.0000
dti (s)             0.0000
dE/dt               5.000
dE/dt unit          mV/s
E1 (V)              0.700
vs.                 Ref
t1 (h:m:s)          0:00:0.0000
dt1 (s)             0.1000
Step percent        50
N                   10
E range min (V)     -1.000
E range max (V)     1.000
I Range             10 mA
I Range min         Unset
I Range max         Unset
I Range init        Unset
Bandwidth           5
E2 (V)              0.450
vs.                 Ref
t2 (h:m:s)          0:00:0.0000
dt2 (s)             0.1000
nc cycles           14
nr                  1
Reverse Scan        0
Ef (V)              0.000
vs.                 Eoc
tf (h:m:s)          0:00:0.0000
dtf (s)             0.1000

mode	ox/red	error	control changes	Ns changes	counter inc.	time/s	control/V	Ewe/V	<I>/mA	cycle number	(Q-Qo)/C	I Range	Ns	step time/s	P/W
2	0	0	0	0	0	231.256	0.449935	0.450036	-0.0040193	1	0.0000000E+000	11	0	0.000000000000000E+000	-1.80883e-06
2	1	0	0	0	0	233.812	0.462712	0.46301	0.0322196	1	7.48416e-05	11	0	2.5004	1.4918e-05
2	1	0	0	0	0	236.412	0.475714	0.476054	0.0324942	1	0.000157384	11	0	5.1008	1.5469e-05
2	1	0	0	0	0	239.013	0.488716	0.488999	0.0327622	1	0.000240346	11	0	7.7012	1.60207e-05
2	1	0	1	0	0	241.613	0.501719	0.502068	0.032454	1	0.000323543	11	0	10.3018	1.62941e-05
2	1	0	1	0	0	244.214	0.514721	0.515013	0.0322649	1	0.000407325	11	0	12.9022	1.66168e-05
2	1	0	1	0	0	246.814	0.527723	0.528006	0.0330403	1	0.000492036	11	0	15.5026	1.74455e-05
2	1	0	1	0	0	249.414	0.540725	0.541019	0.0341621	1	0.000578451	11	0	18.103	1.84823e-05
2	1	0	0	0	0	252.015	0.553728	0.554012	0.0358795	1	0.000667921	11	0	20.7036	1.98777e-05
2	1	0	0	0	0	254.615	0.56673	0.567005	0.0387862	1	0.000762882	11	0	23.304	2.1992e-05
2	1	0	0	0	0	257.216	0.579732	0.580087	0.0434343	1	0.000867651	11	0	25.9044	2.51957e-05
2	1	0	0	0	0	259.816	0.592735	0.593026	0.0519025	1	0.00098956	11	0	28.5048	3.07795e-05
2	1	0	1	0	0	262.417	0.605737	0.606028	0.0666119	1	0.00114089	11	0	31.1054	4.03687e-05
2	1	0	1	0	0	265.017	0.618739	0.619087	0.0912851	1	0.00134239	11	0	33.7058	5.65134e-05
2	1	0	1	0	0	267.618	0.631741	0.632053	0.132791	1	0.00162831	11	0	36.3062	8.39309e-05
2	1	0	1	0	0	270.218	0.644744	0.645031	0.200621	1	0.00205382	11	0	38.9067	0.000129407
2	1	0	0	0	0	272.819	0.657746	0.658038	0.307072	1	0.00270278	11	0	41.5072	0.000202065
2	1	0	0	0	0	275.419	0.670748	0.671086	0.46437	1	0.00369245	11	0	44.1076	0.000311633
2	1	0	0	0	0	278.019	0.68375	0.683985	0.678677	1	0.00516445	11	0	46.708	0.000464205
2	1	0	1	0	0	280.62	0.696752	0.69703	0.95148	1	0.00727229	11	0	49.3085	0.000663211
2	1	0	1	0	0	283.03	0.691152	0.691394	0.798965	1	0.00950256	11	0	51.7182	0.0005524
2	1	0	0	0	0	285.63	0.678149	0.678449	0.538995	1	0.0112254	11	0	54.3188	0.000365681
2	1	0	0	0	0	288.231	0.665147	0.66544	0.343517	1	0.0123586	11	0	56.9192	0.00022859
2	1	0	0	0	0	290.831	0.652145	0.65239	0.203904	1	0.0130567	11	0	59.5196	0.000133025
2	1	0	1	0	0	293.431	0.639143	0.639408	0.111636	1	0.0134568	11	0	62.1201	7.13807e-05
2	1	0	1	0	0	296.032	0.62614	0.626445	0.0538875	1	0.0136647	11	0	64.7206	3.37576e-05
2	1	0	1	0	0	298.632	0.613138	0.613399	0.0196619	1	0.0137549	11	0	67.321	1.20606e-05
2	1	0	1	0	0	301.233	0.600136	0.600385	-0.0010165	1	0.0137745	11	0	0.3	-6.10292e-07
2	0	0	0	0	0	303.833	0.587134	0.587448	-0.0136959	1	0.0137523	11	0	2.9006	-8.04561e-06
2	0	0	0	0	0	306.434	0.574131	0.574419	-0.0216148	1	0.0137049	11	0	5.501	-1.24159e-05
2	0	0	0	0	0	309.034	0.561129	0.56145	-0.0256446	1	0.0136419	11	0	8.1014	-1.43982e-05
2	0	0	0	0	0	311.635	0.548127	0.548427	-0.028571	1	0.0135692	11	0	10.7018	-1.56691e-05
2	0	0	1	0	0	314.235	0.535124	0.535444	-0.0304662	1	0.01349	11	0	13.3024	-1.6313e-05
2	0	0	1	0	0	316.836	0.522122	0.52237	-0.0323983	1	0.0134062	11	0	15.9028	-1.69239e-05
2	0	0	1	0	0	319.436	0.50912	0.509439	-0.0339572	1	0.013319	11	0	18.5032	-1.72991e-05
2	0	0	1	0	0	322.036	0.496118	0.496422	-0.0350918	1	0.0132287	11	0	21.1036	-1.74203e-05
2	0	0	0	0	0	324.637	0.483115	0.483434	-0.0354677	1	0.0131358	11	0	23.7042	-1.71463e-05
2	0	0	0	0	0	327.237	0.470113	0.470422	-0.0371449	1	0.0130401	11	0	26.3046	-1.74738e-05
2	0	0	0	0	0	329.838	0.457111	0.457393	-0.0387382	1	0.0129416	11	0	28.905	-1.77186e-05
2	1	0	1	0	1	332.31	0.455261	0.455528	0.0248786	2	0.0129048	11	0	0.8001	1.13329e-05
2	1	0	0	0	1	334.911	0.468263	0.468543	0.0281336	2	0.0129763	11	0	3.4006	1.31818e-05
2	1	0	0	0	1	337.511	0.481265	0.481563	0.0291149	2	0.0130514	11	0	6.001	1.40207e-05
2	1	0	0	0	1	340.112	0.494267	0.494566	0.0294054	2	0.0131275	11	0	8.6014	1.45429e-05
2	1	0	1	0	1	342.712	0.50727	0.507534	0.0295123	2	0.013204	11	0	11.2019	1.49785e-05
2	1	0	1	0	1	345.313	0.520272	0.520609	0.0298381	2	0.0132809	11	0	13.8024	1.5534e-05
2	1	0	1	0	1	347.913	0.533274	0.533576	0.0302876	2	0.0133585	11	0	16.4028	1.61607e-05
2	1	0	1	0	1	350.513	0.546276	0.546609	0.0318431	2	0.0134378	11	0	19.0032	1.74057e-05
2	1	0	0	0	1	353.114	0.559279	0.559594	0.0328873	2	0.0135206	11	0	21.6038	1.84035e-05
2	1	0	0	0	1	355.714	0.572281	0.572559	0.0354984	2	0.0136097	11	0	24.2042	2.03249e-05
2	1	0	0	0	1	358.315	0.585283	0.585624	0.0408234	2	0.0137102	11	0	26.8046	2.39072e-05
2	1	0	0	0	1	360.915	0.598286	0.598565	0.0509811	2	0.0138307	11	0	29.405	3.05155e-05
2	1	0	1	0	1	363.516	0.611288	0.611526	0.0687199	2	0.0139856	11	0	32.0056	4.2024e-05
2	1	0	1	0	1	366.116	0.62429	0.624618	0.0986694	2	0.0142001	11	0	34.606	6.16306e-05
2	1	0	1	0	1	368.717	0.637292	0.637465	0.148405	2	0.0145154	11	0	37.2064	9.4603e-05
2	1	0	1	0	1	371.317	0.650294	0.650526	0.229095	2	0.0149972	11	0	39.8068	0.000149032
2	1	0	0	0	1	373.918	0.663297	0.663608	0.35349	2	0.015743	11	0	42.4074	0.000234579
2	1	0	0	0	1	376.518	0.676299	0.676525	0.532655	2	0.016882	11	0	45.0078	0.000360355
2	1	0	0	0	1	379.118	0.689301	0.689634	0.771638	2	0.0185656	11	0	47.6082	0.000532148
2	1	0	1	0	1	381.518	0.698653	0.698907	0.963485	2	0.0207232	11	0	50.008	0.000673386
2	1	0	1	0	1	384.119	0.685651	0.685985	0.667772	2	0.0228236	11	0	52.6084	0.000458082
2	1	0	0	0	1	386.719	0.672648	0.672948	0.437858	2	0.0242461	11	0	55.209	0.000294656
2	1	0	0	0	1	389.32	0.659646	0.660001	0.269452	2	0.0251507	11	0	57.8094	0.000177839
2	1	0	0	0	1	391.92	0.646644	0.646941	0.154349	2	0.0256889	11	0	60.4098	9.98547e-05
2	1	0	1	0	1	394.52	0.633641	0.633963	0.08036	2	0.0259841	11	0	63.0103	5.09453e-05
2	1	0	1	0	1	397.121	0.620639	0.620924	0.0349683	2	0.026127	11	0	65.6108	2.17126e-05
2	1	0	1	0	1	399.721	0.607637	0.607894	0.00802033	2	0.0261783	11	0	68.2112	4.87551e-06
2	0	0	1	0	1	402.322	0.594635	0.5949	-0.00768704	2	0.0261749	11	0	1.5002	-4.57302e-06
2	0	0	1	0	1	404.922	0.581633	0.581876	-0.0173047	2	0.0261392	11	0	4.1007	-1.00692e-05
2	0	0	0	0	1	407.523	0.56863	0.568886	-0.0233016	2	0.0260836	11	0	6.7012	-1.3256e-05
2	0	0	0	0	1	410.123	0.555628	0.555956	-0.0271327	2	0.0260157	11	0	9.3016	-1.50846e-05
2	0	0	0	0	1	412.724	0.542626	0.542992	-0.0296787	2	0.0259398	11	0	11.902	-1.61153e-05
2	0	0	1	0	1	415.324	0.529624	0.529893	-0.0313096	2	0.0258585	11	0	14.5026	-1.65907e-05
2	0	0	1	0	1	417.925	0.516621	0.516962	-0.0326023	2	0.0257733	11	0	17.103	-1.68541e-05
2	0	0	1	0	1	420.525	0.503619	0.503949	-0.0337635	2	0.025685	11	0	19.7034	-1.70151e-05
2	0	0	1	0	1	423.125	0.490617	0.490913	-0.0346627	2	0.0255938	11	0	22.3038	-1.70164e-05
2	0	0	0	0	1	425.726	0.477615	0.477903	-0.0357283	2	0.0255	11	0	24.9044	-1.70747e-05
2	0	0	0	0	1	428.326	0.464612	0.46489	-0.036917	2	0.0254033	11	0	27.5048	-1.71623e-05
2	0	0	0	0	1	430.927	0.45161	0.451921	-0.0378883	2	0.0253035	11	0	30.1052	-1.71225e-05
2	1	0	1	0	0	433.399	0.460762	0.461059	0.0279714	3	0.025338	11	0	1.9002	1.28965e-05
2	1	0	0	0	0	436	0.473764	0.473993	0.0293704	3	0.0254111	11	0	4.5008	1.39213e-05
2	1	0	0	0	0	438.6	0.486766	0.487127	0.0298627	3	0.0254863	11	0	7.1012	1.4547e-05
2	1	0	0	0	0	441.201	0.499768	0.500073	0.0299305	3	0.0255621	11	0	9.7016	1.49674e-05
2	1	0	0	0	0	443.801	0.512771	0.513147	0.0302217	3	0.0256384	11	0	12.302	1.55081e-05
2	1	0	1	0	0	446.402	0.525773	0.526023	0.0305224	3	0.0257151	11	0	14.9026	1.60555e-05
2	1	0	1	0	0	449.002	0.538775	0.539135	0.0308943	3	0.0257928	11	0	17.503	1.66562e-05
2	1	0	1	0	0	451.602	0.551777	0.552087	0.0320748	3	0.0258725	11	0	20.1034	1.77081e-05
2	1	0	1	0	0	454.203	0.56478	0.565086	0.0341667	3	0.0259567	11	0	22.7039	1.93071e-05
2	1	0	0	0	0	456.803	0.577782	0.578174	0.0379008	3	0.0260486	11	0	25.3044	2.19133e-05
2	1	0	0	0	0	459.404	0.590784	0.591105	0.045049	3	0.0261544	11	0	27.9048	2.66287e-05
2	1	0	0	0	0	462.004	0.603786	0.604094	0.0571689	3	0.0262847	11	0	30.5052	3.45354e-05
2	1	0	1	0	0	464.605	0.616789	0.617051	0.0783742	3	0.0264575	11	0	33.1058	4.83608e-05
2	1	0	1	0	0	467.205	0.629791	0.630107	0.114122	3	0.0267029	11	0	35.7062	7.19091e-05
2	1	0	1	0	0	469.806	0.642793	0.643172	0.174231	3	0.027071	11	0	38.3066	0.000112061
2	1	0	1	0	0	472.406	0.655795	0.656097	0.270058	3	0.0276388	11	0	40.907	0.000177184
2	1	0	0	0	0	475.007	0.668798	0.669162	0.415049	3	0.0285175	11	0	43.5076	0.000277735
2	1	0	0	0	0	477.607	0.6818	0.682098	0.617128	3	0.0298466	11	0	46.108	0.000420942
2	1	0	0	0	0	480.207	0.694802	0.695115	0.878834	3	0.0317796	11	0	48.7084	0.000610891
2	1	0	1	0	0	482.607	0.693152	0.693457	0.816369	3	0.0339771	11	0	51.1082	0.000566117
2	1	0	1	0	0	485.208	0.68015	0.680482	0.553603	3	0.0357445	11	0	53.7086	0.000376717
2	1	0	0	0	0	487.808	0.667148	0.667477	0.352977	3	0.0369114	11	0	56.3092	0.000235604
2	1	0	0	0	0	490.409	0.654145	0.654423	0.209183	3	0.0376315	11	0	58.9096	0.000136894
2	1	0	0	0	0	493.009	0.641143	0.641386	0.114388	3	0.0380448	11	0	61.51	7.33671e-05
2	1	0	0	0	0	495.609	0.628141	0.628429	0.0551081	3	0.0382602	11	0	64.1104	3.46315e-05
2	1	0	1	0	0	498.21	0.615138	0.615414	0.0197176	3	0.0383546	11	0	66.711	1.21345e-05
2	1	0	1	0	0	500.81	0.602136	0.602468	-0.00130233	3	0.0383768	11	0	0.000000000000000E+000	-7.84612e-07
2	0	0	1	0	0	503.411	0.589134	0.589376	-0.0134447	3	0.0383562	11	0	2.6004	-7.92397e-06
2	0	0	1	0	0	506.011	0.576132	0.576423	-0.0208727	3	0.0383101	11	0	5.2009	-1.20315e-05
2	0	0	0	0	0	508.612	0.563129	0.563427	-0.0254222	3	0.0382483	11	0	7.8014	-1.43236e-05
2	0	0	0	0	0	511.212	0.550127	0.5504	-0.0284593	3	0.0381767	11	0	10.4018	-1.5664e-05
2	0	0	0	0	0	513.813	0.537125	0.537372	-0.0302361	3	0.0380985	11	0	13.0022	-1.6248e-05
2	0	0	1	0	0	516.413	0.524123	0.524351	-0.03174	3	0.0380156	11	0	15.6028	-1.66429e-05
2	0	0	1	0	0	519.014	0.51112	0.511448	-0.0337324	3	0.0379291	11	0	18.2032	-1.72524e-05
2	0	0	1	0	0	521.614	0.498118	0.498382	-0.0350419	3	0.0378396	11	0	20.8036	-1.74643e-05
2	0	0	1	0	0	524.214	0.485116	0.485449	-0.0367286	3	0.0377473	11	0	23.404	-1.78298e-05
2	0	0	0	0	0	526.815	0.472114	0.472453	-0.03768	3	0.0376522	11	0	26.0046	-1.7802e-05
2	0	0	0	0	0	529.415	0.459111	0.45946	-0.038191	3	0.0375544	11	0	28.605	-1.75472e-05
2	1	0	1	0	1	531.888	0.45326	0.453584	0.0242932	4	0.0374924	11	0	0.4	1.1019e-05
2	1	0	1	0	1	534.488	0.466263	0.46653	0.02854	4	0.0375619	11	0	3.0004	1.33148e-05
2	1	0	0	0	1	537.089	0.479265	0.479577	0.0282627	4	0.0376364	11	0	5.601	1.35541e-05
2	1	0	0	0	1	539.689	0.492267	0.492642	0.0281374	4	0.0377118	11	0	8.2014	1.38617e-05
2	1	0	0	0	1	542.29	0.505269	0.505595	0.0288303	4	0.0377876	11	0	10.8018	1.45764e-05
2	1	0	0	0	1	544.89	0.518272	0.51855	0.0297804	4	0.0378636	11	0	13.4022	1.54427e-05
2	1	0	1	0	1	547.491	0.531274	0.531546	0.0303216	4	0.0379402	11	0	16.0028	1.61173e-05
2	1	0	1	0	1	550.091	0.544276	0.544523	0.0303475	4	0.0380181	11	0	18.6032	1.65249e-05
2	1	0	1	0	1	552.691	0.557278	0.557577	0.0312215	4	0.0380991	11	0	21.2036	1.74084e-05
2	1	0	1	0	1	555.292	0.570281	0.570544	0.0340448	4	0.0381855	11	0	23.8041	1.94241e-05
2	1	0	0	0	1	557.892	0.583283	0.583713	0.0391088	4	0.0382817	11	0	26.4046	2.28284e-05
2	1	0	0	0	1	560.493	0.596285	0.596551	0.0477288	4	0.0383952	11	0	29.005	2.84727e-05
2	1	0	0	0	1	563.093	0.609287	0.60955	0.0628883	4	0.0385387	11	0	31.6054	3.83336e-05
2	1	0	1	0	1	565.694	0.622289	0.622673	0.0886634	4	0.0387344	11	0	34.2059	5.52083e-05
2	1	0	1	0	1	568.294	0.635292	0.63567	0.132816	4	0.0390195	11	0	36.8064	8.44271e-05
2	1	0	1	0	1	570.895	0.648294	0.64849	0.205191	4	0.0394537	11	0	39.4068	0.000133065
2	1	0	1	0	1	573.495	0.661296	0.661515	0.319508	4	0.0401275	11	0	42.0072	0.000211359
2	1	0	0	0	1	576.096	0.674299	0.674611	0.486302	4	0.0411647	11	0	44.6078	0.000328064
2	1	0	0	0	1	578.696	0.687301	0.687547	0.712251	4	0.0427124	11	0	47.2082	0.000489706
2	1	0	1	0	1	581.231	0.699978	0.700149	0.993294	4	0.0448644	11	0	49.743	0.000695454
2	1	0	1	0	1	583.696	0.687651	0.687914	0.692449	4	0.0469086	11	0	52.2084	0.000476345
2	1	0	1	0	1	586.297	0.674649	0.675003	0.45544	4	0.0483855	11	0	54.8088	0.000307423
2	1	0	0	0	1	588.897	0.661646	0.66197	0.282088	4	0.0493304	11	0	57.4094	0.000186734
2	1	0	0	0	1	591.498	0.648644	0.648923	0.161449	4	0.0498958	11	0	60.0098	0.000104768
2	1	0	0	0	1	594.098	0.635642	0.635951	0.0838161	4	0.0502082	11	0	62.6102	5.33029e-05
2	1	0	0	0	1	596.698	0.62264	0.622968	0.0368463	4	0.0503614	11	0	65.2106	2.29541e-05
2	1	0	1	0	1	599.299	0.609637	0.609944	0.00878895	4	0.0504188	11	0	67.8112	5.36077e-06
2	0	0	1	0	1	601.899	0.596635	0.597005	-0.0074057	4	0.0504193	11	0	1.3002	-4.42124e-06
2	0	0	1	0	1	604.5	0.583633	0.583949	-0.0169099	4	0.0503861	11	0	3.9006	-9.87453e-06
2	0	0	1	0	1	607.1	0.57063	0.570975	-0.0227193	4	0.0503323	11	0	6.5011	-1.29722e-05
2	0	0	0	0	1	609.701	0.557628	0.557958	-0.0274678	4	0.0502658	11	0	9.1016	-1.53259e-05
2	0	0	0	0	1	612.301	0.544626	0.544964	-0.0306253	4	0.0501912	11	0	11.702	-1.66897e-05
2	0	0	0	0	1	614.902	0.531624	0.531916	-0.0324979	4	0.0501109	11	0	14.3024	-1.72862e-05
2	0	0	1	0	1	617.502	0.518622	0.518858	-0.0337583	4	0.0500268	11	0	16.9029	-1.75158e-05
2	0	0	1	0	1	620.103	0.505619	0.505881	-0.0344536	4	0.0499395	11	0	19.5034	-1.74294e-05
2	0	0	1	0	1	622.703	0.492617	0.492944	-0.0346825	4	0.0498493	11	0	22.1038	-1.70965e-05
2	0	0	1	0	1	625.303	0.479615	0.479898	-0.035754	4	0.0497564	11	0	24.7042	-1.71583e-05
2	0	0	0	0	1	627.904	0.466613	0.466939	-0.0367465	4	0.0496606	11	0	27.3048	-1.71584e-05
2	0	0	0	0	1	630.504	0.45361	0.453939	-0.038001	4	0.0495617	11	0	29.9052	-1.72502e-05
2	1	0	1	0	0	632.977	0.458761	0.45906	0.027107	5	0.04957	11	0	1.5002	1.24437e-05
2	1	0	1	0	0	635.577	0.471764	0.472113	0.0291363	5	0.0496423	11	0	4.1006	1.37556e-05
2	1	0	0	0	0	638.178	0.484766	0.485027	0.0293021	5	0.0497172	11	0	6.7012	1.42123e-05
2	1	0	0	0	0	640.778	0.497768	0.497959	0.028881	5	0.0497928	11	0	9.3016	1.43816e-05
2	1	0	0	0	0	643.379	0.51077	0.51114	0.0286825	5	0.0498688	11	0	11.902	1.46608e-05
2	1	0	0	0	0	645.979	0.523773	0.524016	0.0287687	5	0.0499452	11	0	14.5024	1.50753e-05
2	1	0	1	0	0	648.58	0.536775	0.537078	0.028975	5	0.0500222	11	0	17.103	1.55619e-05
2	1	0	1	0	0	651.18	0.549777	0.550139	0.0301341	5	0.0501011	11	0	19.7034	1.6578e-05
2	1	0	1	0	0	653.78	0.562779	0.56304	0.0323382	5	0.0501836	11	0	22.3038	1.82077e-05
2	1	0	1	0	0	656.381	0.575782	0.576055	0.0369352	5	0.050273	11	0	24.9042	2.12767e-05
2	1	0	0	0	0	658.981	0.588784	0.589121	0.0429304	5	0.0503745	11	0	27.5048	2.52912e-05
2	1	0	0	0	0	661.582	0.601786	0.602089	0.0528629	5	0.0504974	11	0	30.1052	3.18282e-05
2	1	0	0	0	0	664.182	0.614788	0.615087	0.0711918	5	0.050658	11	0	32.7056	4.37891e-05
2	1	0	1	0	0	666.783	0.627791	0.628109	0.10405	5	0.0508833	11	0	35.3061	6.53548e-05
2	1	0	1	0	0	669.383	0.640793	0.641089	0.158495	5	0.0512182	11	0	37.9066	0.000101609
2	1	0	1	0	0	671.984	0.653795	0.654131	0.246137	5	0.0517343	11	0	40.507	0.000161006
2	1	0	1	0	0	674.584	0.666797	0.667107	0.379389	5	0.0525356	11	0	43.1074	0.000253093
2	1	0	0	0	0	677.185	0.6798	0.680156	0.569765	5	0.0537578	11	0	45.708	0.000387529
2	1	0	0	0	0	679.785	0.692802	0.693117	0.820529	5	0.0555547	11	0	48.3084	0.000568722
2	1	0	1	0	0	682.185	0.695152	0.695479	0.849047	5	0.0577267	11	0	50.7082	0.000590495
2	1	0	1	0	0	684.785	0.68215	0.682416	0.578393	5	0.0595688	11	0	53.3086	0.000394705
2	1	0	1	0	0	687.386	0.669148	0.66943	0.370833	5	0.0607896	11	0	55.909	0.000248247
2	1	0	0	0	0	689.986	0.656146	0.656481	0.22222	5	0.0615487	11	0	58.5096	0.000145883
2	1	0	0	0	0	692.587	0.643143	0.643482	0.123261	5	0.0619874	11	0	61.11	7.93165e-05
2	1	0	0	0	0	695.187	0.630141	0.630467	0.0611475	5	0.0622193	11	0	63.7104	3.85515e-05
2	1	0	0	0	0	697.787	0.617139	0.61747	0.0237371	5	0.0623235	11	0	66.3108	1.46569e-05
2	1	0	1	0	0	700.388	0.604136	0.604399	0.00157807	5	0.0623515	11	0	68.9114	9.53785e-07
2	0	0	1	0	0	702.988	0.591134	0.591468	-0.012309	5	0.0623348	11	0	2.4004	-7.28039e-06
2	0	0	1	0	0	705.589	0.578132	0.5785	-0.0210723	5	0.0622914	11	0	5.0008	-1.21903e-05
2	0	0	1	0	0	708.189	0.56513	0.565499	-0.0254316	5	0.0622317	11	0	7.6012	-1.43815e-05
2	0	0	0	0	0	710.79	0.552127	0.552444	-0.0282727	5	0.0621616	11	0	10.2018	-1.56191e-05
2	0	0	0	0	0	713.39	0.539125	0.539431	-0.0299683	5	0.0620847	11	0	12.8022	-1.61659e-05
2	0	0	0	0	0	715.991	0.526123	0.526382	-0.0329561	5	0.062003	11	0	15.4026	-1.73475e-05
2	0	0	1	0	0	718.591	0.513121	0.513369	-0.0338632	5	0.0619175	11	0	18.0031	-1.73843e-05
2	0	0	1	0	0	721.192	0.500118	0.500431	-0.0338185	5	0.0618289	11	0	20.6036	-1.69238e-05
2	0	0	1	0	0	723.792	0.487116	0.487451	-0.0358413	5	0.0617375	11	0	23.204	-1.74709e-05
2	0	0	1	0	0	726.392	0.474114	0.474405	-0.0376799	5	0.0616436	11	0	25.8044	-1.78756e-05
2	0	0	1	0	0	728.993	0.461112	0.461398	-0.0386982	5	0.0615467	11	0	28.4049	-1.78553e-05
2	1	0	1	0	1	731.465	0.45126	0.451573	0.0147903	6	0.0614615	11	0	0.000000000000000E+000	6.67892e-06
2	1	0	1	0	1	734.066	0.464262	0.464609	0.0273458	6	0.0615282	11	0	2.6004	1.27051e-05
2	1	0	1	0	1	736.666	0.477264	0.477531	0.0287392	6	0.061602	11	0	5.2008	1.37239e-05
2	1	0	0	0	1	739.267	0.490267	0.490557	0.0291948	6	0.0616771	11	0	7.8014	1.43217e-05
2	1	0	0	0	1	741.867	0.503269	0.503579	0.0295052	6	0.0617526	11	0	10.4018	1.48582e-05
2	1	0	0	0	1	744.468	0.516271	0.516611	0.0292793	6	0.0618282	11	0	13.0022	1.5126e-05
2	1	0	0	0	1	747.068	0.529274	0.529588	0.0286114	6	0.0619044	11	0	15.6026	1.51523e-05
2	1	0	1	0	1	749.669	0.542276	0.542654	0.0299972	6	0.0619818	11	0	18.2032	1.62781e-05
2	1	0	1	0	1	752.269	0.555278	0.555533	0.0319304	6	0.0620616	11	0	20.8036	1.77384e-05
2	1	0	1	0	1	754.869	0.56828	0.568688	0.0346775	6	0.0621464	11	0	23.404	1.97207e-05
2	1	0	1	0	1	757.47	0.581283	0.581612	0.0383065	6	0.0622395	11	0	26.0044	2.22795e-05
2	1	0	0	0	1	760.07	0.594285	0.594571	0.045426	6	0.0623478	11	0	28.605	2.7009e-05
2	1	0	0	0	1	762.671	0.607287	0.607584	0.0584333	6	0.0624829	11	0	31.2054	3.55031e-05
2	1	0	0	0	1	765.271	0.620289	0.620656	0.0823862	6	0.0626647	11	0	33.8058	5.11335e-05
2	1	0	1	0	1	767.872	0.633292	0.633572	0.122743	6	0.0629266	11	0	36.4063	7.77665e-05
2	1	0	1	0	1	770.472	0.646294	0.646636	0.188945	6	0.0633237	11	0	39.0068	0.000122179
2	1	0	1	0	1	773.073	0.659296	0.659556	0.292988	6	0.0639403	11	0	41.6072	0.000193242
2	1	0	1	0	1	775.673	0.672298	0.672645	0.448662	6	0.0648942	11	0	44.2076	0.00030179
2	1	0	1	0	1	778.273	0.6853	0.685599	0.663983	6	0.0663309	11	0	46.8081	0.000455226
2	1	0	0	0	1	780.874	0.698303	0.698575	0.9404	6	0.0684076	11	0	49.4086	0.000656941
2	1	0	1	0	1	783.274	0.689651	0.689972	0.72145	6	0.070462	11	0	51.8084	0.00049778
2	1	0	1	0	1	785.874	0.676649	0.676909	0.477983	6	0.072007	11	0	54.4088	0.000323551
2	1	0	1	0	1	788.475	0.663647	0.663953	0.297713	6	0.0730029	11	0	57.0092	0.000197667
2	1	0	0	0	1	791.075	0.650645	0.650912	0.171887	6	0.0736035	11	0	59.6098	0.000111883
2	1	0	0	0	1	793.676	0.637642	0.637882	0.0906644	6	0.0739373	11	0	62.2102	5.78331e-05
2	1	0	0	0	1	796.276	0.62464	0.624912	0.0419103	6	0.074104	11	0	64.8106	2.61903e-05
2	1	0	0	0	1	798.876	0.611638	0.611834	0.012712	6	0.0741695	11	0	67.411	7.77764e-06
2	0	0	1	0	1	801.477	0.598635	0.598917	-0.00544152	6	0.0741748	11	0	1.0002	-3.25902e-06
2	0	0	1	0	1	804.077	0.585633	0.585931	-0.0162742	6	0.0741448	11	0	3.6006	-9.53557e-06
2	0	0	1	0	1	806.678	0.572631	0.572903	-0.0234041	6	0.0740931	11	0	6.201	-1.34083e-05
2	0	0	1	0	1	809.278	0.559629	0.559993	-0.02753	6	0.0740282	11	0	8.8014	-1.54166e-05
2	0	0	0	0	1	811.879	0.546627	0.546908	-0.0301895	6	0.0739548	11	0	11.402	-1.65109e-05
2	0	0	0	0	1	814.479	0.533624	0.533968	-0.0314508	6	0.0738759	11	0	14.0024	-1.67937e-05
2	0	0	0	0	1	817.08	0.520622	0.520963	-0.0318963	6	0.0737929	11	0	16.6028	-1.66168e-05
2	0	0	0	0	1	819.68	0.50762	0.507997	-0.033019	6	0.0737066	11	0	19.2032	-1.67735e-05
2	0	0	1	0	1	822.281	0.494617	0.494973	-0.0336269	6	0.0736175	11	0	21.8038	-1.66444e-05
2	0	0	1	0	1	824.881	0.481615	0.481993	-0.0353585	6	0.0735256	11	0	24.4042	-1.70425e-05
2	0	0	1	0	1	827.481	0.468613	0.468927	-0.0369602	6	0.0734308	11	0	27.0046	-1.73317e-05
2	0	0	1	0	1	830.082	0.45561	0.455957	-0.038961	6	0.0733328	11	0	29.6051	-1.77646e-05
2	1	0	1	0	0	832.554	0.456761	0.457131	0.0252621	7	0.0733155	11	0	1.1002	1.15481e-05
2	1	0	1	0	0	835.155	0.469763	0.470032	0.0287064	7	0.0733869	11	0	3.7006	1.34929e-05
2	1	0	1	0	0	837.755	0.482765	0.4831	0.0295096	7	0.0734614	11	0	6.301	1.42561e-05
2	1	0	1	0	0	840.356	0.495767	0.496123	0.0295496	7	0.0735367	11	0	8.9015	1.46603e-05
2	1	0	0	0	0	842.956	0.50877	0.509087	0.0290129	7	0.0736122	11	0	11.502	1.47701e-05
2	1	0	0	0	0	845.557	0.521772	0.522061	0.0285793	7	0.0736881	11	0	14.1024	1.49201e-05
2	1	0	0	0	0	848.157	0.534774	0.535034	0.0288824	7	0.0737646	11	0	16.7028	1.54531e-05
2	1	0	1	0	0	850.758	0.547777	0.548139	0.0297019	7	0.0738424	11	0	19.3034	1.62808e-05
2	1	0	1	0	0	853.358	0.560779	0.560996	0.0318935	7	0.0739236	11	0	21.9038	1.78921e-05
2	1	0	1	0	0	855.958	0.573781	0.574127	0.0354261	7	0.0740106	11	0	24.5042	2.03391e-05
2	1	0	1	0	0	858.559	0.586784	0.587127	0.0409	7	0.0741085	11	0	27.1046	2.40135e-05
2	1	0	0	0	0	861.159	0.599786	0.6001	0.0507598	7	0.0742257	11	0	29.7052	3.0461e-05
2	1	0	0	0	0	863.76	0.612788	0.6131	0.0678594	7	0.0743764	11	0	32.3056	4.16046e-05
2	1	0	0	0	0	866.36	0.62579	0.626058	0.0961952	7	0.0745851	11	0	34.906	6.02237e-05
2	1	0	0	0	0	868.961	0.638793	0.639038	0.14489	7	0.074893	11	0	37.5064	9.25901e-05
2	1	0	1	0	0	871.561	0.651795	0.652138	0.224232	7	0.0753657	11	0	40.107	0.00014623
2	1	0	1	0	0	874.162	0.664797	0.665078	0.348218	7	0.0761013	11	0	42.7074	0.000231592
2	1	0	1	0	0	876.762	0.677799	0.678024	0.52841	7	0.0772303	11	0	45.3078	0.000358275
2	1	0	1	0	0	879.362	0.690802	0.691029	0.769866	7	0.0789057	11	0	47.9083	0.000532
2	1	0	0	0	0	881.762	0.697153	0.697434	0.888836	7	0.0810236	11	0	50.308	0.000619904
2	1	0	1	0	0	884.363	0.68415	0.684447	0.605775	7	0.0829509	11	0	52.9086	0.000414621
2	1	0	1	0	0	886.963	0.671148	0.671515	0.390782	7	0.0842313	11	0	55.509	0.000262416
2	1	0	1	0	0	889.564	0.658146	0.658456	0.235917	7	0.0850348	11	0	58.1094	0.000155341
2	1	0	1	0	0	892.164	0.645144	0.645416	0.132704	7	0.0855031	11	0	60.7098	8.5649e-05
2	1	0	0	0	0	894.765	0.632141	0.632442	0.0659386	7	0.0857527	11	0	63.3104	4.17023e-05
2	1	0	0	0	0	897.365	0.619139	0.619478	0.0255064	7	0.0858675	11	0	65.9108	1.58007e-05
2	1	0	0	0	0	899.965	0.606137	0.606359	0.00210154	7	0.0859021	11	0	68.5112	1.27429e-06
2	0	0	1	0	0	902.566	0.593135	0.593464	-0.0106318	7	0.0858893	11	0	2.1004	-6.30962e-06
2	0	0	1	0	0	905.166	0.580132	0.580518	-0.0186977	7	0.0858485	11	0	4.7008	-1.08544e-05
2	0	0	1	0	0	907.767	0.56713	0.567419	-0.0236967	7	0.0857905	11	0	7.3012	-1.34459e-05
2	0	0	1	0	0	910.367	0.554128	0.554408	-0.0277255	7	0.0857218	11	0	9.9016	-1.53712e-05
2	0	0	0	0	0	912.968	0.541126	0.541454	-0.0307813	7	0.085646	11	0	12.5022	-1.66667e-05
2	0	0	0	0	0	915.568	0.528123	0.528417	-0.0323513	7	0.0855652	11	0	15.1026	-1.7095e-05
2	0	0	0	0	0	918.169	0.515121	0.515409	-0.0326734	7	0.0854807	11	0	17.703	-1.68402e-05
2	0	0	0	0	0	920.769	0.502119	0.502419	-0.0333701	7	0.0853932	11	0	20.3034	-1.67658e-05
2	0	0	1	0	0	923.37	0.489117	0.489414	-0.0350369	7	0.0853029	11	0	22.904	-1.71476e-05
2	0	0	1	0	0	925.97	0.476114	0.476426	-0.036828	7	0.0852099	11	0	25.5044	-1.75458e-05
2	0	0	1	0	0	928.57	0.463112	0.463404	-0.0382884	7	0.085114	11	0	28.1048	-1.7743e-05
2	0	0	1	0	0	931.156	0.450185	0.450518	-0.0390108	7	0.0850156	11	0	30.6902	-1.75751e-05
2	1	0	1	0	1	933.643	0.462262	0.462581	0.0276124	8	0.0850696	11	0	2.2004	1.2773e-05
2	1	0	1	0	1	936.244	0.475264	0.475666	0.0294315	8	0.0851427	11	0	4.8008	1.39995e-05
2	1	0	1	0	1	938.844	0.488266	0.488598	0.0292331	8	0.0852174	11	0	7.4012	1.42832e-05
2	1	0	1	0	1	941.445	0.501269	0.50159	0.0285548	8	0.0852924	11	0	10.0017	1.43228e-05
2	1	0	0	0	1	944.045	0.514271	0.514604	0.0282262	8	0.0853678	11	0	12.6022	1.45253e-05
2	1	0	0	0	1	946.646	0.527273	0.527508	0.0286227	8	0.0854436	11	0	15.2026	1.50987e-05
2	1	0	0	0	1	949.246	0.540275	0.540594	0.030254	8	0.0855203	11	0	17.803	1.63551e-05
2	1	0	1	0	1	951.847	0.553278	0.553599	0.0315485	8	0.0855992	11	0	20.4036	1.74652e-05
2	1	0	1	0	1	954.447	0.56628	0.566661	0.0333479	8	0.0856822	11	0	23.004	1.8897e-05
2	1	0	1	0	1	957.047	0.579282	0.579688	0.0366488	8	0.0857728	11	0	25.6044	2.12449e-05
2	1	0	1	0	1	959.648	0.592284	0.592607	0.043184	8	0.0858772	11	0	28.2048	2.55911e-05
2	1	0	0	0	1	962.248	0.605287	0.605638	0.0557588	8	0.0860054	11	0	30.8054	3.37697e-05
2	1	0	0	0	1	964.849	0.618289	0.6186	0.0768854	8	0.0861754	11	0	33.4058	4.75613e-05
2	1	0	0	0	1	967.449	0.631291	0.631574	0.113226	8	0.0864175	11	0	36.0062	7.15103e-05
2	1	0	0	0	1	970.05	0.644294	0.644599	0.172601	8	0.0867821	11	0	38.6066	0.000111259
2	1	0	1	0	1	972.65	0.657296	0.657624	0.268434	8	0.0873476	11	0	41.2072	0.000176529
2	1	0	1	0	1	975.251	0.670298	0.670575	0.414371	8	0.0882262	11	0	43.8076	0.000277867
2	1	0	1	0	1	977.851	0.6833	0.683638	0.620538	8	0.0895596	11	0	46.408	0.000424224
2	1	0	1	0	1	980.451	0.696303	0.696606	0.887073	8	0.0915062	11	0	49.0084	0.000617941
2	1	0	0	0	1	982.851	0.691652	0.691945	0.758882	8	0.0936124	11	0	51.4082	0.000525104
2	1	0	1	0	1	985.452	0.678649	0.678915	0.505381	8	0.0952402	11	0	54.0088	0.000343111
2	1	0	1	0	1	988.052	0.665647	0.665917	0.316616	8	0.096296	11	0	56.6092	0.00021084
2	1	0	1	0	1	990.653	0.652645	0.652915	0.184287	8	0.0969375	11	0	59.2096	0.000120324
2	1	0	1	0	1	993.253	0.639643	0.63988	0.098487	8	0.0972982	11	0	61.81	6.30198e-05
2	1	0	0	0	1	995.854	0.62664	0.626934	0.0463948	8	0.0974807	11	0	64.4106	2.90865e-05
2	1	0	0	0	1	998.454	0.613638	0.613983	0.0151218	8	0.0975555	11	0	67.011	9.28452e-06
2	1	0	0	0	1	1001.05	0.600636	0.600937	-0.00378055	8	0.0975664	11	0	0.6	-2.27187e-06
2	0	0	1	0	1	1003.65	0.587633	0.587951	-0.0149438	8	0.0975395	11	0	3.2005	-8.78623e-06
2	0	0	1	0	1	1006.26	0.574631	0.574976	-0.0215295	8	0.0974901	11	0	5.801	-1.2379e-05
2	0	0	1	0	1	1008.86	0.561629	0.562	-0.0256556	8	0.0974266	11	0	8.4014	-1.44185e-05
2	0	0	1	0	1	1011.46	0.548627	0.548909	-0.0291222	8	0.0973544	11	0	11.0018	-1.59855e-05
2	0	0	0	0	1	1014.06	0.535625	0.535925	-0.0314978	8	0.0972763	11	0	13.6024	-1.68805e-05
2	0	0	0	0	1	1016.66	0.522622	0.522921	-0.0326099	8	0.0971942	11	0	16.2028	-1.70524e-05
2	0	0	0	0	1	1019.26	0.50962	0.509984	-0.0338473	8	0.0971086	11	0	18.8032	-1.72616e-05
2	0	0	0	0	1	1021.86	0.496618	0.496919	-0.0347846	8	0.0970203	11	0	21.4036	-1.72851e-05
2	0	0	1	0	1	1024.46	0.483616	0.483905	-0.0356338	8	0.096929	11	0	24.0042	-1.72434e-05
2	0	0	1	0	1	1027.06	0.470613	0.470825	-0.0365036	8	0.0968348	11	0	26.6046	-1.71868e-05
2	0	0	1	0	1	1029.66	0.457611	0.457905	-0.0378551	8	0.0967374	11	0	29.205	-1.73341e-05
2	1	0	0	0	0	1032.13	0.454761	0.455052	0.0251434	9	0.0966944	11	0	0.7	1.14415e-05
2	1	0	1	0	0	1034.73	0.467763	0.468076	0.0280956	9	0.0967645	11	0	3.3006	1.31509e-05
2	1	0	1	0	0	1037.33	0.480765	0.481053	0.0284841	9	0.0968386	11	0	5.901	1.37023e-05
2	1	0	1	0	0	1039.93	0.493767	0.494026	0.0282226	9	0.0969136	11	0	8.5014	1.39427e-05
2	1	0	1	0	0	1042.53	0.50677	0.507176	0.0287109	9	0.096989	11	0	11.1018	1.45615e-05
2	1	0	0	0	0	1045.13	0.519772	0.520156	0.0295697	9	0.0970646	11	0	13.7024	1.53808e-05
2	1	0	0	0	0	1047.73	0.532774	0.533042	0.0299148	9	0.0971405	11	0	16.3028	1.59458e-05
2	1	0	0	0	0	1050.33	0.545776	0.546153	0.0308961	9	0.0972176	11	0	18.9032	1.6874e-05
2	1	0	1	0	0	1052.94	0.558779	0.559035	0.0320734	9	0.0972974	11	0	21.5037	1.79301e-05
2	1	0	1	0	0	1055.54	0.571781	0.572094	0.0338309	9	0.0973826	11	0	24.1042	1.93545e-05
2	1	0	1	0	0	1058.14	0.584783	0.585104	0.0384623	9	0.0974777	11	0	26.7046	2.25045e-05
2	1	0	1	0	0	1060.74	0.597785	0.598029	0.0468943	9	0.09759	11	0	29.305	2.80441e-05
2	1	0	0	0	0	1063.34	0.610788	0.611158	0.0622402	9	0.0977322	11	0	31.9056	3.80386e-05
2	1	0	0	0	0	1065.94	0.62379	0.624068	0.0887025	9	0.0979268	11	0	34.506	5.53564e-05
2	1	0	0	0	0	1068.54	0.636792	0.637008	0.132915	9	0.0982111	11	0	37.1064	8.4668e-05
2	1	0	0	0	0	1071.14	0.649794	0.650084	0.206344	9	0.0986459	11	0	39.7068	0.000134141
2	1	0	1	0	0	1073.74	0.662797	0.663114	0.322356	9	0.0993237	11	0	42.3074	0.000213759
2	1	0	1	0	0	1076.34	0.675799	0.676176	0.491579	9	0.10037	11	0	44.9078	0.000332394
2	1	0	1	0	0	1078.94	0.688801	0.689095	0.72193	9	0.101936	11	0	47.5082	0.000497478
2	1	0	0	0	0	1081.34	0.699153	0.69947	0.933142	9	0.103975	11	0	49.908	0.000652704
2	1	0	0	0	0	1083.94	0.686151	0.686364	0.63857	9	0.106002	11	0	52.5084	0.000438292
2	1	0	1	0	0	1086.54	0.673149	0.673386	0.415351	9	0.107359	11	0	55.109	0.000279691
2	1	0	1	0	0	1089.14	0.660146	0.66054	0.252705	9	0.108215	11	0	57.7094	0.000166921
2	1	0	1	0	0	1091.74	0.647144	0.647347	0.142494	9	0.108719	11	0	60.3098	9.22429e-05
2	1	0	1	0	0	1094.34	0.634142	0.634373	0.0727476	9	0.10899	11	0	62.9102	4.61491e-05
2	1	0	0	0	0	1096.94	0.621139	0.621461	0.0306164	9	0.109117	11	0	65.5108	1.90269e-05
2	1	0	0	0	0	1099.54	0.608137	0.608336	0.00545928	9	0.109159	11	0	68.1112	3.32108e-06
2	0	0	0	0	0	1102.14	0.595135	0.595447	-0.00914124	9	0.109151	11	0	1.7002	-5.44312e-06
2	0	0	0	0	0	1104.74	0.582133	0.582374	-0.0178009	9	0.109113	11	0	4.3006	-1.03668e-05
2	0	0	1	0	0	1107.34	0.56913	0.569324	-0.0236746	9	0.109057	11	0	6.9012	-1.34785e-05
2	0	0	1	0	0	1109.94	0.556128	0.556427	-0.0273046	9	0.108989	11	0	9.5016	-1.5193e-05
2	0	0	1	0	0	1112.55	0.543126	0.543477	-0.030117	9	0.108915	11	0	12.102	-1.63679e-05
2	0	0	1	0	0	1115.15	0.530124	0.530463	-0.0321533	9	0.108835	11	0	14.7025	-1.70561e-05
2	0	0	0	0	0	1117.75	0.517121	0.517383	-0.0335517	9	0.108751	11	0	17.303	-1.73591e-05
2	0	0	0	0	0	1120.35	0.504119	0.504422	-0.0345539	9	0.108664	11	0	19.9034	-1.74298e-05
2	0	0	0	0	0	1122.95	0.491117	0.491328	-0.035535	9	0.108574	11	0	22.5038	-1.74593e-05
2	0	0	1	0	0	1125.55	0.478115	0.478381	-0.0364977	9	0.108482	11	0	25.1044	-1.74598e-05
2	0	0	1	0	0	1128.15	0.465112	0.465452	-0.0374273	9	0.108387	11	0	27.7048	-1.74206e-05
2	0	0	1	0	0	1130.75	0.45211	0.452421	-0.0385919	9	0.108289	11	0	30.3052	-1.74598e-05
2	1	0	0	0	1	1133.22	0.460262	0.46053	0.0267546	10	0.108317	11	0	1.8002	1.23213e-05
2	1	0	1	0	1	1135.82	0.473264	0.473582	0.0282313	10	0.10839	11	0	4.4008	1.33698e-05
2	1	0	1	0	1	1138.42	0.486266	0.486551	0.028765	10	0.108464	11	0	7.0012	1.39956e-05
2	1	0	1	0	1	1141.02	0.499268	0.499584	0.0296533	10	0.108539	11	0	9.6016	1.48143e-05
2	1	0	1	0	1	1143.62	0.512271	0.512616	0.0295696	10	0.108615	11	0	12.202	1.51578e-05
2	1	0	0	0	1	1146.22	0.525273	0.52552	0.0297318	10	0.10869	11	0	14.8026	1.56247e-05
2	1	0	0	0	1	1148.82	0.538275	0.538517	0.0301475	10	0.108767	11	0	17.403	1.6235e-05
2	1	0	0	0	1	1151.42	0.551277	0.551624	0.0314247	10	0.108845	11	0	20.0034	1.73346e-05
2	1	0	0	0	1	1154.02	0.56428	0.564592	0.0331051	10	0.108927	11	0	22.6038	1.86909e-05
2	1	0	1	0	1	1156.62	0.577282	0.577662	0.036446	10	0.109016	11	0	25.2044	2.10535e-05
2	1	0	1	0	1	1159.23	0.590284	0.590592	0.0429191	10	0.109116	11	0	27.8048	2.53477e-05
2	1	0	1	0	1	1161.83	0.603286	0.603645	0.0536308	10	0.109239	11	0	30.4052	3.2374e-05
2	1	0	1	0	1	1164.43	0.616288	0.616544	0.0725043	10	0.109399	11	0	33.0057	4.47021e-05
2	1	0	0	0	1	1167.03	0.629291	0.629602	0.105078	10	0.109624	11	0	35.6062	6.61575e-05
2	1	0	0	0	1	1169.63	0.642293	0.642565	0.159525	10	0.10996	11	0	38.2066	0.000102505
2	1	0	0	0	1	1172.23	0.655295	0.655628	0.248338	10	0.110481	11	0	40.807	0.000162817
2	1	0	1	0	1	1174.83	0.668298	0.668689	0.385213	10	0.111294	11	0	43.4076	0.000257588
2	1	0	1	0	1	1177.43	0.6813	0.681543	0.57892	10	0.112536	11	0	46.008	0.000394558
2	1	0	1	0	1	1180.03	0.694302	0.694609	0.835654	10	0.114364	11	0	48.6084	0.000580453
2	1	0	0	0	1	1182.43	0.693652	0.693856	0.797284	10	0.116489	11	0	51.0082	0.0005532
2	1	0	0	0	1	1185.03	0.68065	0.680929	0.535352	10	0.118206	11	0	53.6086	0.000364537
2	1	0	1	0	1	1187.63	0.667648	0.667989	0.338474	10	0.119326	11	0	56.2092	0.000226097
2	1	0	1	0	1	1190.23	0.654645	0.654929	0.199342	10	0.120012	11	0	58.8096	0.000130555
2	1	0	1	0	1	1192.83	0.641643	0.641922	0.108314	10	0.1204	11	0	61.41	6.95294e-05
2	1	0	1	0	1	1195.43	0.628641	0.628944	0.0511869	10	0.1206	11	0	64.0104	3.21937e-05
2	1	0	0	0	1	1198.03	0.615638	0.615943	0.0174375	10	0.120685	11	0	66.611	1.07405e-05
2	1	0	0	0	1	1200.63	0.602636	0.602916	-0.00159811	10	0.120702	11	0	0.3	-9.63524e-07
2	0	0	0	0	1	1203.23	0.589634	0.589948	-0.0133853	10	0.120679	11	0	2.9004	-7.89662e-06
2	0	0	0	0	1	1205.83	0.576632	0.576954	-0.0221068	10	0.120632	11	0	5.5008	-1.27546e-05
2	0	0	1	0	1	1208.43	0.563629	0.563964	-0.0267539	10	0.120571	11	0	8.1014	-1.50883e-05
2	0	0	1	0	1	1211.03	0.550627	0.550883	-0.0287658	10	0.1205	11	0	10.7018	-1.58466e-05
2	0	0	1	0	1	1213.63	0.537625	0.53794	-0.0297429	10	0.120423	11	0	13.3022	-1.59999e-05
2	0	0	1	0	1	1216.23	0.524623	0.524901	-0.0310581	10	0.120342	11	0	15.9026	-1.63024e-05
2	0	0	0	0	1	1218.84	0.51162	0.511905	-0.0325018	10	0.120258	11	0	18.5032	-1.66378e-05
2	0	0	0	0	1	1221.44	0.498618	0.498916	-0.0344819	10	0.12017	11	0	21.1036	-1.72036e-05
2	0	0	0	0	1	1224.04	0.485616	0.485938	-0.0357921	10	0.12008	11	0	23.704	-1.73927e-05
2	0	0	1	0	1	1226.64	0.472614	0.47297	-0.0372534	10	0.119986	11	0	26.3045	-1.76198e-05
2	0	0	1	0	1	1229.24	0.459611	0.459912	-0.0381342	10	0.11989	11	0	28.905	-1.75384e-05
2	1	0	0	0	0	1231.71	0.45276	0.453056	0.0230465	11	0.119823	11	0	0.3	1.04414e-05
2	1	0	0	0	0	1234.31	0.465762	0.46604	0.0282762	11	0.119892	11	0	2.9004	1.31779e-05
2	1	0	1	0	0	1236.91	0.478765	0.479095	0.0291601	11	0.119966	11	0	5.501	1.39704e-05
2	1	0	1	0	0	1239.51	0.491767	0.492023	0.029437	11	0.12004	11	0	8.1014	1.44837e-05
2	1	0	1	0	0	1242.11	0.504769	0.505091	0.0297898	11	0.120116	11	0	10.7018	1.50466e-05
2	1	0	1	0	0	1244.71	0.517771	0.518175	0.0297741	11	0.120191	11	0	13.3022	1.54282e-05
2	1	0	0	0	0	1247.31	0.530774	0.53105	0.029301	11	0.120267	11	0	15.9028	1.55603e-05
2	1	0	0	0	0	1249.91	0.543776	0.54402	0.0295576	11	0.120344	11	0	18.5032	1.60799e-05
2	1	0	0	0	0	1252.51	0.556778	0.55708	0.0305427	11	0.120423	11	0	21.1036	1.70148e-05
2	1	0	0	0	0	1255.11	0.569781	0.570165	0.0333968	11	0.120507	11	0	23.704	1.90417e-05
2	1	0	1	0	0	1257.71	0.582783	0.583108	0.0376156	11	0.1206	11	0	26.3046	2.1934e-05
2	1	0	1	0	0	1260.31	0.595785	0.596072	0.0456619	11	0.120708	11	0	28.905	2.72178e-05
2	1	0	1	0	0	1262.91	0.608787	0.609016	0.0601448	11	0.120843	11	0	31.5054	3.66292e-05
2	1	0	1	0	0	1265.52	0.62179	0.622133	0.0836733	11	0.121026	11	0	34.1058	5.20559e-05
2	1	0	0	0	0	1268.12	0.634792	0.635154	0.123978	11	0.121289	11	0	36.7064	7.87451e-05
2	1	0	0	0	0	1270.72	0.647794	0.648069	0.190832	11	0.12169	11	0	39.3068	0.000123672
2	1	0	0	0	0	1273.32	0.660796	0.661008	0.297285	11	0.122315	11	0	41.9072	0.000196507
2	1	0	1	0	0	1275.92	0.673799	0.674028	0.45759	11	0.123285	11	0	44.5078	0.000308428
2	1	0	1	0	0	1278.52	0.686801	0.687197	0.677368	11	0.124749	11	0	47.1082	0.000465485
2	1	0	1	0	0	1281.11	0.699753	0.700062	0.957077	11	0.126854	11	0	49.6986	0.000670013
2	1	0	0	0	0	1283.52	0.688151	0.688528	0.675967	11	0.128803	11	0	52.1084	0.000465422
2	1	0	0	0	0	1286.12	0.675149	0.675466	0.442264	11	0.130242	11	0	54.7088	0.000298735
2	1	0	1	0	0	1288.72	0.662147	0.66246	0.270761	11	0.131156	11	0	57.3093	0.000179368
2	1	0	1	0	0	1291.32	0.649144	0.649284	0.153835	11	0.131697	11	0	59.9098	9.98829e-05
2	1	0	1	0	0	1293.92	0.636142	0.636348	0.079165	11	0.131993	11	0	62.5102	5.03765e-05
2	1	0	1	0	0	1296.52	0.62314	0.623394	0.0342732	11	0.132135	11	0	65.1106	2.13658e-05
2	1	0	0	0	0	1299.12	0.610138	0.610507	0.00784554	11	0.132185	11	0	67.7112	4.78976e-06
2	0	0	0	0	0	1301.72	0.597135	0.597471	-0.00755565	11	0.132182	11	0	1.4002	-4.51429e-06
2	0	0	0	0	0	1304.32	0.584133	0.584487	-0.0168379	11	0.132147	11	0	4.0006	-9.84151e-06
2	0	0	0	0	0	1306.92	0.571131	0.571487	-0.0227848	11	0.132093	11	0	6.601	-1.30212e-05
2	0	0	1	0	0	1309.52	0.558129	0.558367	-0.0266305	11	0.132028	11	0	9.2016	-1.48696e-05
2	0	0	1	0	0	1312.12	0.545126	0.545526	-0.0287446	11	0.131954	11	0	11.802	-1.56809e-05
2	0	0	1	0	0	1314.72	0.532124	0.532434	-0.0305952	11	0.131875	11	0	14.4024	-1.62899e-05
2	0	0	1	0	0	1317.32	0.519122	0.519414	-0.0328836	11	0.131792	11	0	17.0028	-1.70802e-05
2	0	0	0	0	0	1319.92	0.506119	0.506392	-0.0344435	11	0.131706	11	0	19.6034	-1.74419e-05
2	0	0	0	0	0	1322.52	0.493117	0.493389	-0.0350571	11	0.131617	11	0	22.2038	-1.72968e-05
2	0	0	0	0	0	1325.12	0.480115	0.480387	-0.0354396	11	0.131525	11	0	24.8042	-1.70248e-05
2	0	0	1	0	0	1327.73	0.467112	0.467431	-0.036097	11	0.131431	11	0	27.4047	-1.68729e-05
2	0	0	1	0	0	1330.33	0.45411	0.454381	-0.0372379	11	0.131334	11	0	30.0052	-1.69202e-05
2	1	0	0	0	1	1332.8	0.458261	0.458547	0.0271914	12	0.131337	11	0	1.4002	1.24685e-05
2	1	0	0	0	1	1335.4	0.471263	0.471627	0.0290047	12	0.131409	11	0	4.0006	1.36794e-05
2	1	0	1	0	1	1338	0.484265	0.484572	0.0292805	12	0.131484	11	0	6.6011	1.41885e-05
2	1	0	1	0	1	1340.6	0.497268	0.497566	0.0294371	12	0.131559	11	0	9.2016	1.46469e-05
2	1	0	1	0	1	1343.2	0.51027	0.510552	0.0292929	12	0.131634	11	0	11.802	1.49555e-05
2	1	0	1	0	1	1345.8	0.523272	0.52353	0.0293571	12	0.131709	11	0	14.4024	1.53693e-05
2	1	0	0	0	1	1348.4	0.536275	0.536581	0.0291666	12	0.131785	11	0	17.003	1.56502e-05
2	1	0	0	0	1	1351	0.549277	0.549647	0.0295735	12	0.131863	11	0	19.6034	1.6255e-05
2	1	0	0	0	1	1353.6	0.562279	0.562629	0.0311386	12	0.131945	11	0	22.2038	1.75195e-05
2	1	0	0	0	1	1356.2	0.575282	0.575597	0.0343021	12	0.132032	11	0	24.8042	1.97442e-05
2	1	0	1	0	1	1358.8	0.588284	0.588557	0.0395665	12	0.132129	11	0	27.4048	2.32871e-05
2	1	0	1	0	1	1361.4	0.601286	0.601582	0.0494485	12	0.132247	11	0	30.0052	2.97473e-05
2	1	0	1	0	1	1364	0.614288	0.614564	0.0665052	12	0.132397	11	0	32.6056	4.08717e-05
2	1	0	1	0	1	1366.6	0.627291	0.627504	0.0963322	12	0.132608	11	0	35.206	6.04489e-05
2	1	0	0	0	1	1369.2	0.640293	0.64059	0.146363	12	0.132919	11	0	37.8066	9.37584e-05
2	1	0	0	0	1	1371.81	0.653295	0.653565	0.22955	12	0.1334	11	0	40.407	0.000150026
2	1	0	0	0	1	1374.41	0.666297	0.666612	0.357164	12	0.134151	11	0	43.0074	0.00023809
2	1	0	0	0	1	1377.01	0.6793	0.679507	0.54146	12	0.135306	11	0	45.6078	0.000367926
2	1	0	1	0	1	1379.61	0.692302	0.692534	0.78784	12	0.13702	11	0	48.2084	0.000545606
2	1	0	0	0	1	1382.01	0.695652	0.69597	0.835899	12	0.139129	11	0	50.6082	0.00058176
2	1	0	0	0	1	1384.61	0.68265	0.682936	0.566864	12	0.140937	11	0	53.2086	0.000387132
2	1	0	0	0	1	1387.21	0.669648	0.669941	0.360818	12	0.142129	11	0	55.809	0.000241726
2	1	0	1	0	1	1389.81	0.656645	0.656932	0.213366	12	0.142863	11	0	58.4095	0.000140167
2	1	0	1	0	1	1392.41	0.643643	0.643927	0.116685	12	0.143284	11	0	61.01	7.51364e-05
2	1	0	1	0	1	1395.01	0.630641	0.630945	0.0572207	12	0.143503	11	0	63.6104	3.61031e-05
2	1	0	1	0	1	1397.61	0.617639	0.617912	0.0219143	12	0.143599	11	0	66.2108	1.35411e-05
2	1	0	1	0	1	1400.21	0.604637	0.604922	0.000385634	12	0.143623	11	0	0.000000000000000E+000	2.33279e-07
2	0	0	0	0	1	1402.81	0.591634	0.591914	-0.0121796	12	0.143604	11	0	2.5004	-7.20925e-06
2	0	0	0	0	1	1405.41	0.578632	0.578923	-0.0199107	12	0.14356	11	0	5.1008	-1.15267e-05
2	0	0	0	0	1	1408.01	0.56563	0.565908	-0.0249297	12	0.1435	11	0	7.7012	-1.41079e-05
2	0	0	1	0	1	1410.61	0.552628	0.552929	-0.0281984	12	0.143431	11	0	10.3018	-1.55917e-05
2	0	0	1	0	1	1413.21	0.539625	0.539875	-0.0304704	12	0.143355	11	0	12.9022	-1.64502e-05
2	0	0	1	0	1	1415.81	0.526623	0.526928	-0.0322302	12	0.143275	11	0	15.5026	-1.6983e-05
2	0	0	1	0	1	1418.41	0.513621	0.513957	-0.0336852	12	0.143191	11	0	18.103	-1.73127e-05
2	0	0	0	0	1	1421.01	0.500619	0.500849	-0.0348552	12	0.143104	11	0	20.7036	-1.74572e-05
2	0	0	0	0	1	1423.61	0.487616	0.487851	-0.0358694	12	0.143015	11	0	23.304	-1.74989e-05
2	0	0	0	0	1	1426.21	0.474614	0.474927	-0.0365934	12	0.142922	11	0	25.9044	-1.73792e-05
2	0	0	0	0	1	1428.81	0.461612	0.46194	-0.0375639	12	0.142826	11	0	28.5048	-1.73523e-05
2	0	0	0	0	0	1431.29	0.45076	0.450989	0.0060851	13	0.142737	11	0	30.9774	2.74431e-06
2	1	0	0	0	0	1433.89	0.463762	0.464031	0.0272502	13	0.142802	11	0	2.5004	1.26449e-05
2	1	0	0	0	0	1436.49	0.476764	0.477008	0.0279865	13	0.142876	11	0	5.1008	1.33498e-05
2	1	0	1	0	0	1439.09	0.489767	0.490016	0.0282457	13	0.142951	11	0	7.7013	1.38408e-05
2	1	0	1	0	0	1441.69	0.502769	0.503037	0.0282218	13	0.143027	11	0	10.3018	1.41966e-05
2	1	0	1	0	0	1444.29	0.515771	0.516088	0.0281246	13	0.143102	11	0	12.9022	1.45148e-05
2	1	0	1	0	0	1446.89	0.528773	0.529093	0.0283953	13	0.143178	11	0	15.5026	1.50237e-05
2	1	0	1	0	0	1449.49	0.541775	0.542075	0.0292572	13	0.143255	11	0	18.1031	1.58596e-05
2	1	0	0	0	0	1452.09	0.554778	0.555102	0.0306872	13	0.143333	11	0	20.7036	1.70345e-05
2	1	0	0	0	0	1454.69	0.56778	0.568075	0.0334874	13	0.143417	11	0	23.304	1.90233e-05
2	1	0	0	0	0	1457.29	0.580782	0.581089	0.037241	13	0.143508	11	0	25.9044	2.16404e-05
2	1	0	1	0	0	1459.89	0.593785	0.594113	0.0439146	13	0.143612	11	0	28.505	2.60903e-05
2	1	0	1	0	0	1462.49	0.606787	0.6071	0.0560714	13	0.143741	11	0	31.1054	3.4041e-05
2	1	0	1	0	0	1465.09	0.619789	0.620046	0.0773582	13	0.143913	11	0	33.7058	4.79656e-05
2	1	0	1	0	0	1467.69	0.632792	0.633108	0.114542	13	0.144158	11	0	36.3062	7.25173e-05
2	1	0	0	0	0	1470.29	0.645794	0.64608	0.176367	13	0.144529	11	0	38.9068	0.000113947
2	1	0	0	0	0	1472.89	0.658796	0.659142	0.27562	13	0.145107	11	0	41.5072	0.000181673
2	1	0	0	0	0	1475.49	0.671798	0.67207	0.425882	13	0.146006	11	0	44.1076	0.000286223
2	1	0	0	0	0	1478.09	0.684801	0.685112	0.635414	13	0.147372	11	0	46.708	0.00043533
2	1	0	1	0	0	1480.7	0.697803	0.698084	0.907121	13	0.149365	11	0	49.3086	0.000633247
2	1	0	0	0	0	1483.1	0.690151	0.690482	0.712739	13	0.151387	11	0	51.7084	0.000492133
2	1	0	0	0	0	1485.7	0.677149	0.677496	0.469982	13	0.15291	11	0	54.3088	0.000318411
2	1	0	0	0	0	1488.3	0.664147	0.664461	0.289767	13	0.153885	11	0	56.9092	0.000192539
2	1	0	0	0	0	1490.9	0.651145	0.651478	0.166053	13	0.154468	11	0	59.5096	0.00010818
2	1	0	1	0	0	1493.5	0.638142	0.638406	0.0863975	13	0.15479	11	0	62.1102	5.51566e-05
2	1	0	1	0	0	1496.1	0.62514	0.62541	0.0382309	13	0.154947	11	0	64.7106	2.391e-05
2	1	0	1	0	0	1498.7	0.612138	0.612453	0.00993875	13	0.155007	11	0	67.311	6.08702e-06
2	0	0	1	0	0	1501.3	0.599136	0.599418	-0.00625179	13	0.15501	11	0	1.1002	-3.74743e-06
2	0	0	0	0	0	1503.9	0.586133	0.586471	-0.0158231	13	0.154979	11	0	3.7007	-9.27976e-06
2	0	0	0	0	0	1506.5	0.573131	0.573427	-0.0215864	13	0.154927	11	0	6.3011	-1.23782e-05
2	0	0	0	0	0	1509.1	0.560129	0.560402	-0.0260325	13	0.154863	11	0	8.9015	-1.45886e-05
2	0	0	1	0	0	1511.7	0.547127	0.54743	-0.0290773	13	0.154791	11	0	11.5021	-1.59178e-05
2	0	0	1	0	0	1514.3	0.534124	0.534427	-0.0315732	13	0.154713	11	0	14.1025	-1.68735e-05
2	0	0	1	0	0	1516.9	0.521122	0.52141	-0.0328372	13	0.154631	11	0	16.7029	-1.71217e-05
2	0	0	1	0	0	1519.5	0.50812	0.508414	-0.0338286	13	0.154546	11	0	19.3033	-1.71989e-05
2	0	0	0	0	0	1522.1	0.495118	0.495433	-0.0350268	13	0.154458	11	0	21.9039	-1.73534e-05
2	0	0	0	0	0	1524.7	0.482115	0.482437	-0.0360293	13	0.154367	11	0	24.5043	-1.73819e-05
2	0	0	0	0	0	1527.3	0.469113	0.469398	-0.0368439	13	0.154273	11	0	27.1047	-1.72945e-05
2	0	0	0	0	0	1529.9	0.456111	0.456501	-0.0379212	13	0.154177	11	0	29.7051	-1.7311e-05
2	1	0	0	0	1	1532.38	0.456261	0.456556	0.0251771	14	0.154154	11	0	1.0002	1.14948e-05
2	1	0	0	0	1	1534.98	0.469263	0.469559	0.0275492	14	0.154225	11	0	3.6006	1.2936e-05
2	1	0	0	0	1	1537.58	0.482265	0.482517	0.0286971	14	0.154299	11	0	6.201	1.38468e-05
2	1	0	0	0	1	1540.18	0.495268	0.495606	0.0287874	14	0.154374	11	0	8.8014	1.42672e-05
2	1	0	1	0	1	1542.78	0.50827	0.508598	0.0294232	14	0.154449	11	0	11.402	1.49646e-05
2	1	0	1	0	1	1545.38	0.521272	0.521544	0.0298087	14	0.154525	11	0	14.0024	1.55465e-05
2	1	0	1	0	1	1547.98	0.534274	0.534604	0.0300559	14	0.154601	11	0	16.6028	1.6068e-05
2	1	0	1	0	1	1550.58	0.547277	0.547579	0.0309375	14	0.154678	11	0	19.2033	1.69408e-05
2	1	0	0	0	1	1553.18	0.560279	0.560545	0.0321814	14	0.154758	11	0	21.8038	1.80391e-05
2	1	0	0	0	1	1555.78	0.573281	0.573672	0.0345152	14	0.154844	11	0	24.4042	1.98004e-05
2	1	0	0	0	1	1558.38	0.586283	0.58658	0.0388406	14	0.154939	11	0	27.0046	2.27831e-05
2	1	0	1	0	1	1560.98	0.599285	0.599527	0.0476973	14	0.155052	11	0	29.6051	2.85958e-05
2	1	0	1	0	1	1563.58	0.612288	0.612566	0.0628939	14	0.155195	11	0	32.2056	3.85266e-05
2	1	0	1	0	1	1566.18	0.62529	0.625588	0.0895137	14	0.155392	11	0	34.806	5.59987e-05
2	1	0	1	0	1	1568.78	0.638292	0.638579	0.135131	14	0.155681	11	0	37.4064	8.62917e-05
2	1	0	0	0	1	1571.38	0.651295	0.651625	0.210613	14	0.156125	11	0	40.007	0.000137241
2	1	0	0	0	1	1573.98	0.664297	0.664558	0.3297	14	0.15682	11	0	42.6074	0.000219105
2	1	0	0	0	1	1576.58	0.677299	0.677613	0.503931	14	0.157894	11	0	45.2078	0.00034147
2	1	0	0	0	1	1579.18	0.690302	0.69057	0.739724	14	0.1595	11	0	47.8082	0.000510832
2	1	0	1	0	1	1581.58	0.697653	0.697954	0.882429	14	0.16156	11	0	50.208	0.000615895
2	1	0	0	0	1	1584.18	0.684651	0.68496	0.602086	14	0.163471	11	0	52.8086	0.000412405
2	1	0	0	0	1	1586.78	0.671648	0.671955	0.385578	14	0.164741	11	0	55.409	0.000259091
2	1	0	0	0	1	1589.39	0.658646	0.658924	0.230946	14	0.165532	11	0	58.0094	0.000152176
2	1	0	0	0	1	1591.99	0.645644	0.645942	0.127566	14	0.165989	11	0	60.6098	8.24003e-05
2	1	0	1	0	1	1594.59	0.632641	0.632936	0.063624	14	0.16623	11	0	63.2104	4.02699e-05
2	1	0	1	0	1	1597.19	0.619639	0.619892	0.0253024	14	0.166339	11	0	65.8108	1.56848e-05
2	1	0	1	0	1	1599.79	0.606637	0.606896	0.00256606	14	0.166371	11	0	68.4112	1.55733e-06
2	0	0	1	0	1	1602.39	0.593634	0.593882	-0.010769	14	0.166356	11	0	2.2004	-6.39552e-06
2	0	0	0	0	1	1604.99	0.580632	0.580918	-0.0192744	14	0.166315	11	0	4.8009	-1.11968e-05
2	0	0	0	0	1	1607.59	0.56763	0.567888	-0.0247223	14	0.166257	11	0	7.4013	-1.40395e-05
2	0	0	0	0	1	1610.19	0.554628	0.554901	-0.0282664	14	0.166189	11	0	10.0017	-1.56851e-05
2	0	0	1	0	1	1612.79	0.541626	0.541942	-0.0304111	14	0.166114	11	0	12.6022	-1.6481e-05
2	0	0	1	0	1	1615.39	0.528623	0.528933	-0.0314211	14	0.166035	11	0	15.2027	-1.66197e-05
2	0	0	1	0	1	1617.99	0.515621	0.516001	-0.0324167	14	0.165952	11	0	17.8031	-1.67271e-05
2	0	0	1	0	1	1620.59	0.502619	0.502978	-0.0336123	14	0.165866	11	0	20.4035	-1.69062e-05
2	0	0	1	0	1	1623.19	0.489617	0.489917	-0.034627	14	0.165777	11	0	23.004	-1.69644e-05
2	0	0	0	0	1	1625.79	0.476614	0.477	-0.0348042	14	0.165685	11	0	25.6045	-1.66016e-05
2	0	0	0	0	1	1628.39	0.463612	0.4639	-0.0364488	14	0.165591	11	0	28.2049	-1.69086e-05
2	0	0	0	0	1	1630.99	0.45061	0.450931	-0.0386188	14	0.165493	11	0	30.8053	-1.74144e-05
2	1	0	0	0	0	1633.46	0.461762	0.462092	0.0268421	15	0.165541	11	0	2.1004	1.24035e-05
2	1	0	0	0	0	1636.07	0.474764	0.475089	0.028223	15	0.165615	11	0	4.7008	1.34084e-05
2	1	0	0	0	0	1638.67	0.487766	0.488067	0.0296323	15	0.16569	11	0	7.3012	1.44625e-05
2	1	0	0	0	0	1641.27	0.500769	0.50106	0.0294104	15	0.165765	11	0	9.9016	1.47364e-05
2	1	0	1	0	0	1643.87	0.513771	0.514086	0.0284809	15	0.16584	11	0	12.5022	1.46416e-05
2	1	0	1	0	0	1646.47	0.526773	0.527042	0.0283423	15	0.165916	11	0	15.1026	1.49376e-05
2	1	0	1	0	0	1649.07	0.539775	0.540051	0.0288752	15	0.165992	11	0	17.703	1.55941e-05
2	1	0	1	0	0	1651.67	0.552778	0.553058	0.0306673	15	0.16607	11	0	20.3034	1.69608e-05
2	1	0	0	0	0	1654.27	0.56578	0.566098	0.0333043	15	0.166152	11	0	22.904	1.88535e-05
2	1	0	0	0	0	1656.87	0.578782	0.579078	0.0366227	15	0.166241	11	0	25.5044	2.12074e-05
2	1	0	0	0	0	1659.47	0.591784	0.592116	0.0421235	15	0.166343	11	0	28.1048	2.4942e-05
2	1	0	1	0	0	1662.07	0.604787	0.605159	0.0527803	15	0.166466	11	0	30.7053	3.19404e-05
2	1	0	1	0	0	1664.67	0.617789	0.618124	0.0723091	15	0.166628	11	0	33.3058	4.4696e-05
2	1	0	1	0	0	1667.27	0.630791	0.631066	0.106461	15	0.166857	11	0	35.9062	6.71838e-05
2	1	0	1	0	0	1669.87	0.643793	0.644067	0.163065	15	0.167201	11	0	38.5066	0.000105025
2	1	0	0	0	0	1672.47	0.656796	0.657135	0.25492	15	0.167735	11	0	41.1072	0.000167517
2	1	0	0	0	0	1675.07	0.669798	0.670163	0.396674	15	0.16857	11	0	43.7076	0.000265836
2	1	0	0	0	0	1677.67	0.6828	0.683152	0.595893	15	0.169847	11	0	46.308	0.000407086
2	1	0	0	0	0	1680.27	0.695802	0.696084	0.857323	15	0.171724	11	0	48.9084	0.000596769
2	1	0	1	0	0	1682.67	0.692152	0.692453	0.750309	15	0.173796	11	0	51.3082	0.000519554
2	1	0	0	0	0	1685.27	0.67915	0.679384	0.500364	15	0.175408	11	0	53.9088	0.000339939
2	1	0	0	0	0	1687.87	0.666147	0.66644	0.310942	15	0.17645	11	0	56.5092	0.000207225
2	1	0	0	0	0	1690.47	0.653145	0.653393	0.180916	15	0.177079	11	0	59.1096	0.000118209
2	1	0	0	0	0	1693.07	0.640143	0.640453	0.0963074	15	0.17743	11	0	61.71	6.16803e-05
2	1	0	1	0	0	1695.68	0.627141	0.627393	0.0444013	15	0.177605	11	0	64.3106	2.78571e-05
2	1	0	1	0	0	1698.28	0.614138	0.614443	0.0137796	15	0.177676	11	0	66.911	8.46676e-06
2	0	0	1	0	0	1700.88	0.601136	0.601445	-0.00407228	15	0.177684	11	0	0.7001	-2.44925e-06
2	0	0	1	0	0	1703.48	0.588134	0.588425	-0.0146851	15	0.177657	11	0	3.3005	-8.64109e-06
2	0	0	0	0	0	1706.08	0.575131	0.575445	-0.0217107	15	0.177608	11	0	5.9011	-1.24933e-05
2	0	0	0	0	0	1708.68	0.562129	0.562475	-0.0260485	15	0.177545	11	0	8.5015	-1.46516e-05
2	0	0	0	0	0	1711.28	0.549127	0.549493	-0.0288673	15	0.177474	11	0	11.1019	-1.58624e-05
2	0	0	1	0	0	1713.88	0.536125	0.536439	-0.0311012	15	0.177397	11	0	13.7024	-1.66839e-05
2	0	0	1	0	0	1716.48	0.523122	0.523446	-0.0325482	15	0.177316	11	0	16.3029	-1.70372e-05
2	0	0	1	0	0	1719.08	0.51012	0.510351	-0.0337044	15	0.177231	11	0	18.9033	-1.72011e-05
2	0	0	1	0	0	1721.68	0.497118	0.497467	-0.0340321	15	0.177144	11	0	21.5037	-1.69299e-05
2	0	0	1	0	0	1724.28	0.484116	0.484441	-0.034608	15	0.177054	11	0	24.1042	-1.67655e-05
2	0	0	0	0	0	1726.88	0.471113	0.471439	-0.0356665	15	0.176962	11	0	26.7047	-1.68146e-05
2	0	0	0	0	0	1729.48	0.458111	0.458409	-0.0367845	15	0.176866	11	0	29.3051	-1.68623e-05
2	0	0	1	0	0	1731.1	0.449985	0.450437	-0.0334564	15	0.176804	11	0	30.9223	-1.507e-05