File: ACS_Catal_2026/Figures_Na_K/main_figures/data/EC/20240401_2-128_CV_cycles_alpha_gamma/alpha/20240328_2-128_005_alpha_K-2_03_CVA_C01.mpt
EC-Lab ASCII FILE
Nb header lines : 66

Cyclic Voltammetry Advanced

Run on channel : 1 (SN 66412)
User :
CE vs. WE compliance from -10 V to 10 V
Electrode connection : standard
Potential control : Ewe
Ewe ctrl range : min = -1.00 V, max = 1.00 V
Safety Limits :
	Do not start on E overload
Acquisition started on : 04/01/2024 19:56:53.320
Loaded Setting File :  C:\Users\NakamuraT\Documents\EC-Lab\Data\Yatsuzuka\20240328_2-129_UV-vis_K_Na_diff\20240328_2-129_001_preconditioning+CV_inK.mps
Saved on :
	File : 20240328_2-128_005_alpha_K-2_03_CVA_C01.mpr
	Directory : C:\Users\NakamuraT\Documents\EC-Lab\Data\Yatsuzuka\20240401_2-128_CV_cycles_alpha_gamma\
	Host : 192.109.209.100
Device : SP-150e (SN .003411)
Address : 192.109.209.236
EC-Lab for windows v11.50 (software)
Internet server v11.50 (firmware)
Command interpretor v11.50 (firmware)
Electrode material :
Initial state :
Electrolyte :
Comments :
Electrode surface area : 0.001 cm2
Characteristic mass : 0.001 g
Equivalent Weight : 0.000 g/eq.
Density : 0.000 g/cm3
Volume (V) : 0.001 cm3
Cycle Definition : Charge/Discharge alternance
Ei (V)              0.450
vs.                 Ref
ti (h:m:s)          0:00:10.0000
dti (s)             0.0000
dE/dt               5.000
dE/dt unit          mV/s
E1 (V)              0.700
vs.                 Ref
t1 (h:m:s)          0:00:0.0000
dt1 (s)             0.1000
Step percent        50
N                   10
E range min (V)     -1.000
E range max (V)     1.000
I Range             10 mA
I Range min         Unset
I Range max         Unset
I Range init        Unset
Bandwidth           5
E2 (V)              0.450
vs.                 Ref
t2 (h:m:s)          0:00:0.0000
dt2 (s)             0.1000
nc cycles           14
nr                  1
Reverse Scan        0
Ef (V)              0.000
vs.                 Eoc
tf (h:m:s)          0:00:0.0000
dtf (s)             0.1000

mode	ox/red	error	control changes	Ns changes	counter inc.	time/s	control/V	Ewe/V	<I>/mA	cycle number	(Q-Qo)/C	I Range	Ns	step time/s	P/W
2	0	0	0	0	0	231.314	0.449935	0.450361	-0.00491061	1	0.0000000E+000	11	0	0.000000000000000E+000	-2.21154e-06
2	1	0	0	0	0	233.87	0.462712	0.463048	0.0306301	1	7.24989e-05	11	0	2.5004	1.41832e-05
2	1	0	0	0	0	236.47	0.475714	0.476009	0.0308677	1	0.000152576	11	0	5.1008	1.46933e-05
2	1	0	0	0	0	239.071	0.488716	0.48895	0.0309616	1	0.000232702	11	0	7.7012	1.51387e-05
2	1	0	1	0	0	241.671	0.501719	0.502044	0.030681	1	0.000312917	11	0	10.3018	1.54032e-05
2	1	0	1	0	0	244.272	0.514721	0.515032	0.0310301	1	0.000393697	11	0	12.9022	1.59815e-05
2	1	0	1	0	0	246.872	0.527723	0.52804	0.0322632	1	0.000476155	11	0	15.5026	1.70362e-05
2	1	0	1	0	0	249.472	0.540725	0.541092	0.034383	1	0.000562222	11	0	18.103	1.86044e-05
2	1	0	0	0	0	252.073	0.553728	0.554098	0.0382249	1	0.000655809	11	0	20.7036	2.11803e-05
2	1	0	0	0	0	254.673	0.56673	0.567043	0.0452824	1	0.000763672	11	0	23.304	2.56771e-05
2	1	0	0	0	0	257.274	0.579732	0.580079	0.0588761	1	0.000897991	11	0	25.9044	3.41528e-05
2	1	0	0	0	0	259.874	0.592735	0.593036	0.0839661	1	0.00108116	11	0	28.5048	4.9795e-05
2	1	0	1	0	0	262.475	0.605737	0.606064	0.128503	1	0.00135233	11	0	31.1054	7.78809e-05
2	1	0	1	0	0	265.075	0.618739	0.61907	0.204053	1	0.00177703	11	0	33.7058	0.000126323
2	1	0	1	0	0	267.676	0.631741	0.632009	0.325636	1	0.00245563	11	0	36.3062	0.000205805
2	1	0	1	0	0	270.276	0.644744	0.645074	0.504031	1	0.00352302	11	0	38.9067	0.000325137
2	1	0	0	0	0	272.877	0.657746	0.658075	0.743366	1	0.00513337	11	0	41.5072	0.000489191
2	1	0	0	0	0	275.477	0.670748	0.671055	1.03872	1	0.00743991	11	0	44.1076	0.000697036
2	1	0	0	0	0	278.077	0.68375	0.684042	1.38224	1	0.010578	11	0	46.708	0.000945507
2	1	0	1	0	0	280.678	0.696752	0.697008	1.76206	1	0.0146574	11	0	49.3085	0.00122817
2	1	0	1	0	0	283.088	0.691152	0.691439	1.57341	1	0.0188461	11	0	51.7182	0.00108792
2	1	0	0	0	0	285.688	0.678149	0.67845	1.20165	1	0.0224419	11	0	54.3188	0.00081526
2	1	0	0	0	0	288.289	0.665147	0.66544	0.870738	1	0.0251249	11	0	56.9192	0.000579423
2	1	0	0	0	0	290.889	0.652145	0.652461	0.596906	1	0.0270212	11	0	59.5196	0.000389458
2	1	0	1	0	0	293.489	0.639143	0.639454	0.380911	1	0.0282773	11	0	62.1201	0.000243575
2	1	0	1	0	0	296.09	0.62614	0.62647	0.222487	1	0.0290494	11	0	64.7206	0.000139382
2	1	0	1	0	0	298.69	0.613138	0.613411	0.117318	1	0.0294806	11	0	67.321	7.19641e-05
2	1	0	1	0	0	301.291	0.600136	0.60043	0.0530626	1	0.0296939	11	0	69.9214	3.18604e-05
2	1	0	0	0	0	303.891	0.587134	0.587446	0.0159205	1	0.0297783	11	0	72.522	9.35246e-06
2	0	0	0	0	0	306.492	0.574131	0.574468	-0.0051492	1	0.0297893	11	0	0.7002	-2.95806e-06
2	0	0	0	0	0	309.092	0.561129	0.561444	-0.0168318	1	0.0297595	11	0	3.3006	-9.45013e-06
2	0	0	0	0	0	311.693	0.548127	0.548456	-0.0234371	1	0.0297066	11	0	5.901	-1.28542e-05
2	0	0	1	0	0	314.293	0.535124	0.535446	-0.0271538	1	0.0296399	11	0	8.5016	-1.45394e-05
2	0	0	1	0	0	316.894	0.522122	0.52242	-0.0298216	1	0.0295648	11	0	11.102	-1.55794e-05
2	0	0	1	0	0	319.494	0.50912	0.509428	-0.0319159	1	0.0294842	11	0	13.7024	-1.62589e-05
2	0	0	1	0	0	322.094	0.496118	0.496449	-0.0333285	1	0.0293994	11	0	16.3028	-1.65459e-05
2	0	0	0	0	0	324.695	0.483115	0.48342	-0.0343725	1	0.0293111	11	0	18.9034	-1.66163e-05
2	0	0	0	0	0	327.295	0.470113	0.470428	-0.0356873	1	0.0292194	11	0	21.5038	-1.67883e-05
2	0	0	0	0	0	329.896	0.457111	0.457425	-0.036968	1	0.0291244	11	0	24.1042	-1.69101e-05
2	1	0	1	0	1	332.368	0.455261	0.455574	0.0250574	2	0.029088	11	0	0.8001	1.14155e-05
2	1	0	0	0	1	334.969	0.468263	0.468622	0.0279234	2	0.0291575	11	0	3.4006	1.30855e-05
2	1	0	0	0	1	337.569	0.481265	0.48155	0.0283396	2	0.0292302	11	0	6.001	1.36469e-05
2	1	0	0	0	1	340.17	0.494267	0.494558	0.0284611	2	0.0293038	11	0	8.6014	1.40757e-05
2	1	0	1	0	1	342.77	0.50727	0.50758	0.0284741	2	0.0293779	11	0	11.2019	1.44529e-05
2	1	0	1	0	1	345.371	0.520272	0.520558	0.0288091	2	0.0294529	11	0	13.8024	1.49968e-05
2	1	0	1	0	1	347.971	0.533274	0.533581	0.0304035	2	0.02953	11	0	16.4028	1.62227e-05
2	1	0	1	0	1	350.571	0.546276	0.546553	0.0329861	2	0.0296117	11	0	19.0032	1.80286e-05
2	1	0	0	0	1	353.172	0.559279	0.559573	0.0377454	2	0.0297027	11	0	21.6038	2.11213e-05
2	1	0	0	0	1	355.772	0.572281	0.572623	0.0464795	2	0.0298114	11	0	24.2042	2.66152e-05
2	1	0	0	0	1	358.373	0.585283	0.585598	0.0635493	2	0.0299529	11	0	26.8046	3.72143e-05
2	1	0	0	0	1	360.973	0.598286	0.598604	0.0950676	2	0.0301554	11	0	29.405	5.69078e-05
2	1	0	1	0	1	363.574	0.611288	0.611548	0.150177	2	0.0304677	11	0	32.0056	9.18404e-05
2	1	0	1	0	1	366.174	0.62429	0.624601	0.242932	2	0.0309696	11	0	34.606	0.000151736
2	1	0	1	0	1	368.775	0.637292	0.637636	0.387634	2	0.0317781	11	0	37.2064	0.00024717
2	1	0	1	0	1	371.375	0.650294	0.650615	0.592216	2	0.03304	11	0	39.8068	0.000385305
2	1	0	0	0	1	373.976	0.663297	0.663576	0.856233	2	0.0349117	11	0	42.4074	0.000568176
2	1	0	0	0	1	376.576	0.676299	0.676619	1.16994	2	0.0375395	11	0	45.0078	0.000791602
2	1	0	0	0	1	379.176	0.689301	0.689589	1.53403	2	0.0410494	11	0	47.6082	0.00105785
2	1	0	1	0	1	381.576	0.698653	0.69894	1.8038	2	0.0451479	11	0	50.008	0.00126075
2	1	0	1	0	1	384.177	0.685651	0.685956	1.40372	2	0.0493065	11	0	52.6084	0.00096289
2	1	0	0	0	1	386.777	0.672648	0.672967	1.05674	2	0.0524934	11	0	55.209	0.000711148
2	1	0	0	0	1	389.378	0.659646	0.659924	0.748708	2	0.0548297	11	0	57.8094	0.00049409
2	1	0	0	0	1	391.978	0.646644	0.646911	0.497491	2	0.0564364	11	0	60.4098	0.000321832
2	1	0	1	0	1	394.578	0.633641	0.63392	0.305026	2	0.0574671	11	0	63.0103	0.000193362
2	1	0	1	0	1	397.179	0.620639	0.620958	0.169969	2	0.0580722	11	0	65.6108	0.000105544
2	1	0	1	0	1	399.779	0.607637	0.607919	0.0843584	2	0.0583932	11	0	68.2112	5.12831e-05
2	1	0	1	0	1	402.38	0.594635	0.594904	0.0336378	2	0.0585398	11	0	70.8116	2.00112e-05
2	1	0	1	0	1	404.98	0.581633	0.581973	0.00488206	2	0.0585858	11	0	73.4121	2.84123e-06
2	0	0	0	0	1	407.581	0.56863	0.568882	-0.011228	2	0.0585755	11	0	1.8004	-6.38739e-06
2	0	0	0	0	1	410.181	0.555628	0.55593	-0.0202689	2	0.0585337	11	0	4.4008	-1.12681e-05
2	0	0	0	0	1	412.782	0.542626	0.542926	-0.0253997	2	0.0584738	11	0	7.0012	-1.37902e-05
2	0	0	1	0	1	415.382	0.529624	0.529935	-0.0284681	2	0.0584033	11	0	9.6018	-1.50862e-05
2	0	0	1	0	1	417.983	0.516621	0.516965	-0.0307377	2	0.0583257	11	0	12.2022	-1.58903e-05
2	0	0	1	0	1	420.583	0.503619	0.503959	-0.0324195	2	0.0582433	11	0	14.8026	-1.63381e-05
2	0	0	1	0	1	423.183	0.490617	0.490918	-0.0339612	2	0.0581569	11	0	17.403	-1.66722e-05
2	0	0	0	0	1	425.784	0.477615	0.477893	-0.0352172	2	0.0580673	11	0	20.0036	-1.683e-05
2	0	0	0	0	1	428.384	0.464612	0.464906	-0.0362696	2	0.0579744	11	0	22.604	-1.6862e-05
2	0	0	0	0	1	430.985	0.45161	0.451916	-0.0374148	2	0.0578779	11	0	25.2044	-1.69083e-05
2	1	0	1	0	0	433.457	0.460762	0.461038	0.0263985	3	0.0579109	11	0	1.9002	1.21707e-05
2	1	0	0	0	0	436.058	0.473764	0.474119	0.0279097	3	0.0579819	11	0	4.5008	1.32325e-05
2	1	0	0	0	0	438.658	0.486766	0.487015	0.0282215	3	0.0580547	11	0	7.1012	1.37443e-05
2	1	0	0	0	0	441.259	0.499768	0.500068	0.0283418	3	0.0581278	11	0	9.7016	1.41728e-05
2	1	0	0	0	0	443.859	0.512771	0.513049	0.0285442	3	0.0582014	11	0	12.302	1.46446e-05
2	1	0	1	0	0	446.46	0.525773	0.526118	0.0292234	3	0.0582764	11	0	14.9026	1.53749e-05
2	1	0	1	0	0	449.06	0.538775	0.539039	0.0307752	3	0.0583545	11	0	17.503	1.6589e-05
2	1	0	1	0	0	451.66	0.551777	0.552103	0.0343285	3	0.0584388	11	0	20.1034	1.89529e-05
2	1	0	1	0	0	454.261	0.56478	0.565103	0.0404487	3	0.0585349	11	0	22.7039	2.28577e-05
2	1	0	0	0	0	456.861	0.577782	0.57811	0.0519491	3	0.0586537	11	0	25.3044	3.00323e-05
2	1	0	0	0	0	459.462	0.590784	0.591098	0.0739434	3	0.0588146	11	0	27.9048	4.37078e-05
2	1	0	0	0	0	462.062	0.603786	0.6041	0.113257	3	0.059053	11	0	30.5052	6.84187e-05
2	1	0	1	0	0	464.663	0.616789	0.61708	0.182102	3	0.0594298	11	0	33.1058	0.000112372
2	1	0	1	0	0	467.263	0.629791	0.630073	0.295103	3	0.0600401	11	0	35.7062	0.000185936
2	1	0	1	0	0	469.864	0.642793	0.643052	0.464229	3	0.061016	11	0	38.3066	0.000298524
2	1	0	1	0	0	472.464	0.655795	0.656072	0.693957	3	0.0625104	11	0	40.907	0.000455286
2	1	0	0	0	0	475.065	0.668798	0.669065	0.984332	3	0.0646826	11	0	43.5076	0.000658582
2	1	0	0	0	0	477.665	0.6818	0.682103	1.31976	3	0.0676704	11	0	46.108	0.000900211
2	1	0	0	0	0	480.265	0.694802	0.695088	1.69426	3	0.0715812	11	0	48.7084	0.00117766
2	1	0	1	0	0	482.665	0.693152	0.693431	1.62935	3	0.075789	11	0	51.1082	0.00112984
2	1	0	1	0	0	485.266	0.68015	0.680449	1.25285	3	0.0795265	11	0	53.7086	0.000852501
2	1	0	0	0	0	487.866	0.667148	0.667425	0.919944	3	0.0823413	11	0	56.3092	0.000613993
2	1	0	0	0	0	490.467	0.654145	0.654468	0.635753	3	0.0843484	11	0	58.9096	0.000416079
2	1	0	0	0	0	493.067	0.641143	0.641436	0.407839	3	0.0856901	11	0	61.51	0.000261602
2	1	0	0	0	0	495.667	0.628141	0.628433	0.240193	3	0.086518	11	0	64.1104	0.000150945
2	1	0	1	0	0	498.268	0.615138	0.615457	0.127448	3	0.0869845	11	0	66.711	7.8439e-05
2	1	0	1	0	0	500.868	0.602136	0.602445	0.0580931	3	0.0872178	11	0	69.3114	3.49979e-05
2	1	0	1	0	0	503.469	0.589134	0.589493	0.0185443	3	0.0873128	11	0	71.9118	1.09317e-05
2	0	0	1	0	0	506.069	0.576132	0.576439	-0.0035054	3	0.0873297	11	0	0.5001	-2.02065e-06
2	0	0	0	0	0	508.67	0.563129	0.563424	-0.0160289	3	0.0873034	11	0	3.1006	-9.03105e-06
2	0	0	0	0	0	511.27	0.550127	0.550418	-0.0229976	3	0.0872525	11	0	5.701	-1.26583e-05
2	0	0	0	0	0	513.871	0.537125	0.537401	-0.0270325	3	0.0871875	11	0	8.3014	-1.45273e-05
2	0	0	1	0	0	516.471	0.524123	0.524425	-0.0295279	3	0.0871137	11	0	10.902	-1.54852e-05
2	0	0	1	0	0	519.072	0.51112	0.511409	-0.0313749	3	0.0870341	11	0	13.5024	-1.60454e-05
2	0	0	1	0	0	521.672	0.498118	0.498429	-0.0327438	3	0.0869502	11	0	16.1028	-1.63205e-05
2	0	0	1	0	0	524.272	0.485116	0.48546	-0.0339747	3	0.0868627	11	0	18.7032	-1.64934e-05
2	0	0	0	0	0	526.873	0.472114	0.472417	-0.0354228	3	0.0867719	11	0	21.3038	-1.67343e-05
2	0	0	0	0	0	529.473	0.459111	0.459435	-0.0369145	3	0.0866776	11	0	23.9042	-1.69598e-05
2	1	0	1	0	1	531.946	0.45326	0.45355	0.0228022	4	0.0866168	11	0	0.4	1.03419e-05
2	1	0	1	0	1	534.546	0.466263	0.466562	0.0272306	4	0.086684	11	0	3.0004	1.27048e-05
2	1	0	0	0	1	537.147	0.479265	0.479597	0.0277275	4	0.0867555	11	0	5.601	1.3298e-05
2	1	0	0	0	1	539.747	0.492267	0.492587	0.0277852	4	0.0868281	11	0	8.2014	1.36866e-05
2	1	0	0	0	1	542.348	0.505269	0.505606	0.0279991	4	0.0869011	11	0	10.8018	1.41565e-05
2	1	0	0	0	1	544.948	0.518272	0.518593	0.028707	4	0.086975	11	0	13.4022	1.48872e-05
2	1	0	1	0	1	547.549	0.531274	0.53157	0.0299552	4	0.0870507	11	0	16.0028	1.59233e-05
2	1	0	1	0	1	550.149	0.544276	0.544604	0.0320005	4	0.0871305	11	0	18.6032	1.74276e-05
2	1	0	1	0	1	552.749	0.557278	0.557597	0.0362113	4	0.0872184	11	0	21.2036	2.01913e-05
2	1	0	1	0	1	555.35	0.570281	0.570582	0.0442857	4	0.0873216	11	0	23.8041	2.52687e-05
2	1	0	0	0	1	557.95	0.583283	0.583592	0.0593179	4	0.0874537	11	0	26.4046	3.46175e-05
2	1	0	0	0	1	560.551	0.596285	0.596597	0.0868565	4	0.0876399	11	0	29.005	5.18184e-05
2	1	0	0	0	1	563.151	0.609287	0.609567	0.136704	4	0.0879249	11	0	31.6054	8.33305e-05
2	1	0	1	0	1	565.752	0.622289	0.622557	0.22199	4	0.0883829	11	0	34.2059	0.000138201
2	1	0	1	0	1	568.352	0.635292	0.635555	0.357709	4	0.0891255	11	0	36.8064	0.000227344
2	1	0	1	0	1	570.953	0.648294	0.648557	0.552499	4	0.0902976	11	0	39.4068	0.000358327
2	1	0	1	0	1	573.553	0.661296	0.661578	0.808126	4	0.0920564	11	0	42.0072	0.000534638
2	1	0	0	0	1	576.154	0.674299	0.67464	1.11678	4	0.0945494	11	0	44.6078	0.000753424
2	1	0	0	0	1	578.754	0.687301	0.687575	1.46927	4	0.0979048	11	0	47.2082	0.00101023
2	1	0	1	0	1	581.289	0.699978	0.700245	1.84908	4	0.102105	11	0	49.743	0.00129481
2	1	0	1	0	1	583.754	0.687651	0.687934	1.46235	4	0.106171	11	0	52.2084	0.001006
2	1	0	1	0	1	586.355	0.674649	0.674958	1.10474	4	0.109499	11	0	54.8088	0.000745651
2	1	0	0	0	1	588.955	0.661646	0.661948	0.790213	4	0.111951	11	0	57.4094	0.00052308
2	1	0	0	0	1	591.556	0.648644	0.648908	0.531119	4	0.113655	11	0	60.0098	0.000344647
2	1	0	0	0	1	594.156	0.635642	0.635956	0.327652	4	0.114757	11	0	62.6102	0.000208372
2	1	0	0	0	1	596.756	0.62264	0.622971	0.184912	4	0.115411	11	0	65.2106	0.000115195
2	1	0	1	0	1	599.357	0.609637	0.60996	0.0926383	4	0.115761	11	0	67.8112	5.65057e-05
2	1	0	1	0	1	601.957	0.596635	0.596976	0.0381366	4	0.115925	11	0	70.4116	2.27666e-05
2	1	0	1	0	1	604.558	0.583633	0.583977	0.00769979	4	0.11598	11	0	73.012	4.49651e-06
2	0	0	1	0	1	607.158	0.57063	0.570932	-0.00929756	4	0.115975	11	0	1.5003	-5.30827e-06
2	0	0	0	0	1	609.759	0.557628	0.55796	-0.0189522	4	0.115937	11	0	4.1008	-1.05746e-05
2	0	0	0	0	1	612.359	0.544626	0.544952	-0.0245817	4	0.115879	11	0	6.7012	-1.33959e-05
2	0	0	0	0	1	614.96	0.531624	0.531899	-0.0280325	4	0.11581	11	0	9.3016	-1.49105e-05
2	0	0	1	0	1	617.56	0.518622	0.518892	-0.0304531	4	0.115734	11	0	11.9021	-1.58019e-05
2	0	0	1	0	1	620.161	0.505619	0.505953	-0.0321341	4	0.115653	11	0	14.5026	-1.62583e-05
2	0	0	1	0	1	622.761	0.492617	0.492979	-0.0335632	4	0.115568	11	0	17.103	-1.65459e-05
2	0	0	1	0	1	625.361	0.479615	0.479912	-0.0349396	4	0.115479	11	0	19.7034	-1.67679e-05
2	0	0	0	0	1	627.962	0.466613	0.46692	-0.0361986	4	0.115387	11	0	22.304	-1.69018e-05
2	0	0	0	0	1	630.562	0.45361	0.45385	-0.0375294	4	0.115292	11	0	24.9044	-1.70327e-05
2	1	0	1	0	0	633.035	0.458761	0.459059	0.02588	5	0.115299	11	0	1.5002	1.18804e-05
2	1	0	1	0	0	635.635	0.471764	0.472071	0.0275453	5	0.115369	11	0	4.1006	1.30033e-05
2	1	0	0	0	0	638.236	0.484766	0.485014	0.0277754	5	0.115441	11	0	6.7012	1.34715e-05
2	1	0	0	0	0	640.836	0.497768	0.498102	0.0277742	5	0.115514	11	0	9.3016	1.38344e-05
2	1	0	0	0	0	643.437	0.51077	0.511103	0.0279269	5	0.115587	11	0	11.902	1.42735e-05
2	1	0	0	0	0	646.037	0.523773	0.524041	0.0285916	5	0.115661	11	0	14.5024	1.49832e-05
2	1	0	1	0	0	648.638	0.536775	0.537124	0.0301884	5	0.115738	11	0	17.103	1.62149e-05
2	1	0	1	0	0	651.238	0.549777	0.550051	0.0331313	5	0.11582	11	0	19.7034	1.82239e-05
2	1	0	1	0	0	653.838	0.562779	0.563136	0.0388294	5	0.115913	11	0	22.3038	2.18662e-05
2	1	0	1	0	0	656.439	0.575782	0.576062	0.0491159	5	0.116026	11	0	24.9042	2.82938e-05
2	1	0	0	0	0	659.039	0.588784	0.5891	0.0685136	5	0.116176	11	0	27.5048	4.03613e-05
2	1	0	0	0	0	661.64	0.601786	0.602111	0.103886	5	0.116395	11	0	30.1052	6.25509e-05
2	1	0	0	0	0	664.24	0.614788	0.615148	0.166532	5	0.116739	11	0	32.7056	0.000102442
2	1	0	1	0	0	666.841	0.627791	0.628121	0.271073	5	0.117298	11	0	35.3061	0.000170267
2	1	0	1	0	0	669.441	0.640793	0.641048	0.430105	5	0.118198	11	0	37.9066	0.000275718
2	1	0	1	0	0	672.042	0.653795	0.654067	0.650672	5	0.119591	11	0	40.507	0.000425583
2	1	0	1	0	0	674.642	0.666797	0.667084	0.927177	5	0.121632	11	0	43.1074	0.000618505
2	1	0	0	0	0	677.243	0.6798	0.680092	1.25796	5	0.124464	11	0	45.708	0.000855532
2	1	0	0	0	0	679.843	0.692802	0.69311	1.62727	5	0.128209	11	0	48.3084	0.00112788
2	1	0	1	0	0	682.243	0.695152	0.695456	1.68814	5	0.132401	11	0	50.7082	0.00117402
2	1	0	1	0	0	684.843	0.68215	0.682464	1.30027	5	0.136273	11	0	53.3086	0.000887385
2	1	0	1	0	0	687.444	0.669148	0.669427	0.965616	5	0.139206	11	0	55.909	0.000646409
2	1	0	0	0	0	690.044	0.656146	0.656432	0.671133	5	0.14132	11	0	58.5096	0.000440553
2	1	0	0	0	0	692.645	0.643143	0.643453	0.433997	5	0.142743	11	0	61.11	0.000279256
2	1	0	0	0	0	695.245	0.630141	0.630418	0.259156	5	0.143631	11	0	63.7104	0.000163377
2	1	0	0	0	0	697.845	0.617139	0.617524	0.139193	5	0.144137	11	0	66.3108	8.59547e-05
2	1	0	1	0	0	700.446	0.604136	0.604468	0.0649756	5	0.144394	11	0	68.9114	3.92756e-05
2	1	0	1	0	0	703.046	0.591134	0.591466	0.0225135	5	0.144502	11	0	71.5118	1.3316e-05
2	1	0	1	0	0	705.647	0.578132	0.578483	-0.00101753	5	0.144527	11	0	0.000000000000000E+000	-5.88625e-07
2	0	0	1	0	0	708.247	0.56513	0.565471	-0.0140216	5	0.144505	11	0	2.6004	-7.92883e-06
2	0	0	0	0	0	710.848	0.552127	0.552411	-0.0216323	5	0.144457	11	0	5.201	-1.19499e-05
2	0	0	0	0	0	713.448	0.539125	0.539499	-0.0262716	5	0.144394	11	0	7.8014	-1.41735e-05
2	0	0	0	0	0	716.049	0.526123	0.526435	-0.0292566	5	0.144322	11	0	10.4018	-1.54017e-05
2	0	0	1	0	0	718.649	0.513121	0.513373	-0.0312713	5	0.144244	11	0	13.0023	-1.60538e-05
2	0	0	1	0	0	721.25	0.500118	0.500483	-0.0324037	5	0.144162	11	0	15.6028	-1.62175e-05
2	0	0	1	0	0	723.85	0.487116	0.487392	-0.0335435	5	0.144075	11	0	18.2032	-1.63489e-05
2	0	0	1	0	0	726.45	0.474114	0.474386	-0.0349142	5	0.143986	11	0	20.8036	-1.65628e-05
2	0	0	1	0	0	729.051	0.461112	0.46142	-0.0364764	5	0.143893	11	0	23.4041	-1.68309e-05
2	1	0	1	0	1	731.523	0.45126	0.451585	0.0131135	6	0.14381	11	0	0.000000000000000E+000	5.92184e-06
2	1	0	1	0	1	734.124	0.464262	0.464583	0.0268216	6	0.143874	11	0	2.6004	1.24609e-05
2	1	0	1	0	1	736.724	0.477264	0.477531	0.027834	6	0.143945	11	0	5.2008	1.32916e-05
2	1	0	0	0	1	739.325	0.490267	0.490579	0.0280316	6	0.144017	11	0	7.8014	1.37517e-05
2	1	0	0	0	1	741.925	0.503269	0.503544	0.0280941	6	0.14409	11	0	10.4018	1.41466e-05
2	1	0	0	0	1	744.526	0.516271	0.516583	0.0282376	6	0.144163	11	0	13.0022	1.45871e-05
2	1	0	0	0	1	747.126	0.529274	0.529526	0.0290361	6	0.144238	11	0	15.6026	1.53753e-05
2	1	0	1	0	1	749.727	0.542276	0.542606	0.0308963	6	0.144317	11	0	18.2032	1.67645e-05
2	1	0	1	0	1	752.327	0.555278	0.555571	0.0346099	6	0.144402	11	0	20.8036	1.92283e-05
2	1	0	1	0	1	754.927	0.56828	0.568606	0.0420851	6	0.144501	11	0	23.404	2.39299e-05
2	1	0	1	0	1	757.528	0.581283	0.581565	0.0555884	6	0.144626	11	0	26.0044	3.23283e-05
2	1	0	0	0	1	760.128	0.594285	0.594605	0.080304	6	0.144799	11	0	28.605	4.77492e-05
2	1	0	0	0	1	762.729	0.607287	0.607591	0.125148	6	0.145061	11	0	31.2054	7.60388e-05
2	1	0	0	0	1	765.329	0.620289	0.62058	0.20324	6	0.14548	11	0	33.8058	0.000126126
2	1	0	1	0	1	767.93	0.633292	0.633579	0.330021	6	0.146163	11	0	36.4063	0.000209094
2	1	0	1	0	1	770.53	0.646294	0.646595	0.515285	6	0.147249	11	0	39.0068	0.000333181
2	1	0	1	0	1	773.131	0.659296	0.659622	0.758865	6	0.148894	11	0	41.6072	0.000500564
2	1	0	1	0	1	775.731	0.672298	0.672651	1.0615	6	0.151252	11	0	44.2076	0.000714022
2	1	0	1	0	1	778.331	0.6853	0.685651	1.40767	6	0.154455	11	0	46.8081	0.00096517
2	1	0	0	0	1	780.932	0.698303	0.69863	1.78909	6	0.158605	11	0	49.4086	0.00124991
2	1	0	1	0	1	783.332	0.689651	0.689941	1.51109	6	0.162655	11	0	51.8084	0.00104256
2	1	0	1	0	1	785.932	0.676649	0.677013	1.14997	6	0.166102	11	0	54.4088	0.000778546
2	1	0	1	0	1	788.533	0.663647	0.663915	0.830856	6	0.168668	11	0	57.0092	0.000551618
2	1	0	0	0	1	791.133	0.650645	0.650919	0.563461	6	0.170468	11	0	59.6098	0.000366768
2	1	0	0	0	1	793.734	0.637642	0.637941	0.353294	6	0.171646	11	0	62.2102	0.000225381
2	1	0	0	0	1	796.334	0.62464	0.624958	0.201337	6	0.172353	11	0	64.8106	0.000125828
2	1	0	0	0	1	798.934	0.611638	0.611926	0.102649	6	0.172737	11	0	67.411	6.28135e-05
2	1	0	1	0	1	801.535	0.598635	0.598969	0.0440226	6	0.17292	11	0	70.0116	2.63681e-05
2	1	0	1	0	1	804.135	0.585633	0.585994	0.0108338	6	0.172986	11	0	72.612	6.34856e-06
2	0	0	1	0	1	806.736	0.572631	0.572919	-0.00762883	6	0.172987	11	0	1.3002	-4.3707e-06
2	0	0	1	0	1	809.336	0.559629	0.559891	-0.0178511	6	0.172952	11	0	3.9006	-9.99468e-06
2	0	0	0	0	1	811.937	0.546627	0.546954	-0.0238124	6	0.172896	11	0	6.5012	-1.30243e-05
2	0	0	0	0	1	814.537	0.533624	0.53395	-0.0273018	6	0.172829	11	0	9.1016	-1.45778e-05
2	0	0	0	0	1	817.138	0.520622	0.520947	-0.0298698	6	0.172754	11	0	11.702	-1.55606e-05
2	0	0	0	0	1	819.738	0.50762	0.507941	-0.0315975	6	0.172674	11	0	14.3024	-1.60497e-05
2	0	0	1	0	1	822.339	0.494617	0.494918	-0.0329994	6	0.17259	11	0	16.903	-1.6332e-05
2	0	0	1	0	1	824.939	0.481615	0.481875	-0.0343841	6	0.172503	11	0	19.5034	-1.65689e-05
2	0	0	1	0	1	827.539	0.468613	0.468974	-0.0358061	6	0.172412	11	0	22.1038	-1.67921e-05
2	0	0	1	0	1	830.14	0.45561	0.455897	-0.0371404	6	0.172318	11	0	24.7043	-1.69322e-05
2	1	0	1	0	0	832.612	0.456761	0.457076	0.0252439	7	0.1723	11	0	1.1002	1.15384e-05
2	1	0	1	0	0	835.213	0.469763	0.470048	0.0271683	7	0.172369	11	0	3.7006	1.27704e-05
2	1	0	1	0	0	837.813	0.482765	0.483103	0.0274255	7	0.172441	11	0	6.301	1.32493e-05
2	1	0	1	0	0	840.414	0.495767	0.496077	0.027582	7	0.172513	11	0	8.9015	1.36828e-05
2	1	0	0	0	0	843.014	0.50877	0.509099	0.0279609	7	0.172586	11	0	11.502	1.42349e-05
2	1	0	0	0	0	845.615	0.521772	0.522094	0.0285222	7	0.17266	11	0	14.1024	1.48913e-05
2	1	0	0	0	0	848.215	0.534774	0.535064	0.0300033	7	0.172735	11	0	16.7028	1.60537e-05
2	1	0	1	0	0	850.816	0.547777	0.54811	0.0323989	7	0.172816	11	0	19.3034	1.77582e-05
2	1	0	1	0	0	853.416	0.560779	0.561086	0.037237	7	0.172905	11	0	21.9038	2.08931e-05
2	1	0	1	0	0	856.016	0.573781	0.57408	0.0463561	7	0.173013	11	0	24.5042	2.66121e-05
2	1	0	1	0	0	858.617	0.586784	0.587064	0.0634077	7	0.173154	11	0	27.1046	3.72244e-05
2	1	0	0	0	0	861.217	0.599786	0.600118	0.0952782	7	0.173357	11	0	29.7052	5.71782e-05
2	1	0	0	0	0	863.818	0.612788	0.61311	0.152118	7	0.173673	11	0	32.3056	9.32652e-05
2	1	0	0	0	0	866.418	0.62579	0.626118	0.248927	7	0.174185	11	0	34.906	0.000155858
2	1	0	0	0	0	869.019	0.638793	0.639052	0.399469	7	0.175016	11	0	37.5064	0.000255281
2	1	0	1	0	0	871.619	0.651795	0.652134	0.610646	7	0.176318	11	0	40.107	0.000398224
2	1	0	1	0	0	874.22	0.664797	0.665078	0.879992	7	0.178244	11	0	42.7074	0.000585263
2	1	0	1	0	0	876.82	0.677799	0.678095	1.19964	7	0.180941	11	0	45.3078	0.000813472
2	1	0	1	0	0	879.42	0.690802	0.69106	1.56041	7	0.184525	11	0	47.9083	0.00107834
2	1	0	0	0	0	881.82	0.697153	0.697428	1.73897	7	0.188649	11	0	50.308	0.00121281
2	1	0	1	0	0	884.421	0.68415	0.684462	1.35834	7	0.192664	11	0	52.9086	0.00092973
2	1	0	1	0	0	887.021	0.671148	0.671427	1.00787	7	0.195729	11	0	55.509	0.000676712
2	1	0	1	0	0	889.622	0.658146	0.658418	0.710852	7	0.197953	11	0	58.1094	0.000468037
2	1	0	1	0	0	892.222	0.645144	0.645384	0.464327	7	0.199467	11	0	60.7098	0.000299669
2	1	0	0	0	0	894.823	0.632141	0.632448	0.278966	7	0.20042	11	0	63.3104	0.000176431
2	1	0	0	0	0	897.423	0.619139	0.619386	0.152066	7	0.200968	11	0	65.9108	9.41873e-05
2	1	0	0	0	0	900.023	0.606137	0.606396	0.0725527	7	0.201251	11	0	68.5112	4.39957e-05
2	1	0	1	0	0	902.624	0.593135	0.593469	0.0265119	7	0.201374	11	0	71.1118	1.5734e-05
2	0	0	1	0	0	905.224	0.580132	0.580402	0.000868767	7	0.201407	11	0	73.7122	5.04234e-07
2	0	0	1	0	0	907.825	0.56713	0.567479	-0.0128147	7	0.20139	11	0	2.3004	-7.2721e-06
2	0	0	1	0	0	910.425	0.554128	0.554485	-0.0206011	7	0.201345	11	0	4.9008	-1.1423e-05
2	0	0	0	0	0	913.026	0.541126	0.541422	-0.0253276	7	0.201284	11	0	7.5014	-1.37129e-05
2	0	0	0	0	0	915.626	0.528123	0.528478	-0.0281588	7	0.201213	11	0	10.1018	-1.48813e-05
2	0	0	0	0	0	918.227	0.515121	0.515474	-0.030341	7	0.201136	11	0	12.7022	-1.564e-05
2	0	0	0	0	0	920.827	0.502119	0.502447	-0.0320064	7	0.201054	11	0	15.3026	-1.60815e-05
2	0	0	1	0	0	923.428	0.489117	0.48947	-0.0334079	7	0.200969	11	0	17.9032	-1.63522e-05
2	0	0	1	0	0	926.028	0.476114	0.476378	-0.0348138	7	0.20088	11	0	20.5036	-1.65845e-05
2	0	0	1	0	0	928.628	0.463112	0.463462	-0.0360992	7	0.200788	11	0	23.104	-1.67306e-05
2	0	0	1	0	0	931.214	0.450185	0.450509	-0.0373213	7	0.200693	11	0	25.6894	-1.68136e-05
2	1	0	1	0	1	933.701	0.462262	0.462557	0.026594	8	0.200744	11	0	2.2004	1.23012e-05
2	1	0	1	0	1	936.302	0.475264	0.475538	0.0274789	8	0.200815	11	0	4.8008	1.30673e-05
2	1	0	1	0	1	938.902	0.488266	0.488576	0.0276816	8	0.200887	11	0	7.4012	1.35246e-05
2	1	0	1	0	1	941.503	0.501269	0.501562	0.0277401	8	0.200959	11	0	10.0017	1.39134e-05
2	1	0	0	0	1	944.103	0.514271	0.514651	0.0280924	8	0.201032	11	0	12.6022	1.44578e-05
2	1	0	0	0	1	946.704	0.527273	0.52764	0.0287944	8	0.201106	11	0	15.2026	1.51931e-05
2	1	0	0	0	1	949.304	0.540275	0.540618	0.0304531	8	0.201184	11	0	17.803	1.64635e-05
2	1	0	1	0	1	951.905	0.553278	0.553604	0.0337026	8	0.201267	11	0	20.4036	1.86579e-05
2	1	0	1	0	1	954.505	0.56628	0.566567	0.0401036	8	0.201363	11	0	23.004	2.27214e-05
2	1	0	1	0	1	957.105	0.579282	0.579645	0.051976	8	0.201482	11	0	25.6044	3.01276e-05
2	1	0	1	0	1	959.706	0.592284	0.592532	0.0741478	8	0.201643	11	0	28.2048	4.3935e-05
2	1	0	0	0	1	962.306	0.605287	0.605618	0.114667	8	0.201885	11	0	30.8054	6.94445e-05
2	1	0	0	0	1	964.907	0.618289	0.618576	0.186165	8	0.202269	11	0	33.4058	0.000115157
2	1	0	0	0	1	967.507	0.631291	0.631588	0.303564	8	0.202895	11	0	36.0062	0.000191728
2	1	0	0	0	1	970.108	0.644294	0.644592	0.47866	8	0.2039	11	0	38.6066	0.000308541
2	1	0	1	0	1	972.708	0.657296	0.657606	0.7146	8	0.205441	11	0	41.2072	0.000469925
2	1	0	1	0	1	975.309	0.670298	0.670584	1.00804	8	0.207672	11	0	43.8076	0.000675973
2	1	0	1	0	1	977.909	0.6833	0.683653	1.34756	8	0.210727	11	0	46.408	0.000921267
2	1	0	1	0	1	980.509	0.696303	0.69659	1.72723	8	0.214723	11	0	49.0084	0.00120317
2	1	0	0	0	1	982.909	0.691652	0.691951	1.56556	8	0.218863	11	0	51.4082	0.00108329
2	1	0	1	0	1	985.51	0.678649	0.678926	1.19377	8	0.222441	11	0	54.0088	0.000810482
2	1	0	1	0	1	988.11	0.665647	0.66588	0.871801	8	0.225115	11	0	56.6092	0.000580515
2	1	0	1	0	1	990.711	0.652645	0.652928	0.597024	8	0.227011	11	0	59.2096	0.000389814
2	1	0	1	0	1	993.311	0.639643	0.639925	0.37847	8	0.228264	11	0	61.81	0.000242193
2	1	0	0	0	1	995.912	0.62664	0.626938	0.218519	8	0.229027	11	0	64.4106	0.000136998
2	1	0	0	0	1	998.512	0.613638	0.613944	0.112945	8	0.229446	11	0	67.011	6.93418e-05
2	1	0	0	0	1	1001.11	0.600636	0.600903	0.0494113	8	0.229649	11	0	69.6114	2.96914e-05
2	1	0	1	0	1	1003.71	0.587633	0.587922	0.0136578	8	0.229727	11	0	72.2119	8.02971e-06
2	0	0	1	0	1	1006.31	0.574631	0.574941	-0.0060386	8	0.229735	11	0	0.9002	-3.47184e-06
2	0	0	1	0	1	1008.91	0.561629	0.561937	-0.017035	8	0.229704	11	0	3.5006	-9.57258e-06
2	0	0	1	0	1	1011.51	0.548627	0.548966	-0.0234161	8	0.229651	11	0	6.101	-1.28547e-05
2	0	0	0	0	1	1014.11	0.535625	0.535933	-0.0271135	8	0.229585	11	0	8.7016	-1.4531e-05
2	0	0	0	0	1	1016.72	0.522622	0.522944	-0.0295698	8	0.229512	11	0	11.302	-1.54634e-05
2	0	0	0	0	1	1019.32	0.50962	0.50992	-0.0311615	8	0.229433	11	0	13.9024	-1.58899e-05
2	0	0	0	0	1	1021.92	0.496618	0.49692	-0.0324794	8	0.22935	11	0	16.5028	-1.61397e-05
2	0	0	1	0	1	1024.52	0.483616	0.483919	-0.0335802	8	0.229263	11	0	19.1034	-1.62501e-05
2	0	0	1	0	1	1027.12	0.470613	0.470947	-0.03501	8	0.229173	11	0	21.7038	-1.64879e-05
2	0	0	1	0	1	1029.72	0.457611	0.457895	-0.0363145	8	0.22908	11	0	24.3042	-1.66282e-05
2	1	0	0	0	0	1032.19	0.454761	0.455067	0.0237665	9	0.229038	11	0	0.7	1.08154e-05
2	1	0	1	0	0	1034.79	0.467763	0.468126	0.0267471	9	0.229106	11	0	3.3006	1.2521e-05
2	1	0	1	0	0	1037.39	0.480765	0.481059	0.0274707	9	0.229177	11	0	5.901	1.3215e-05
2	1	0	1	0	0	1039.99	0.493767	0.494059	0.027626	9	0.229249	11	0	8.5014	1.36489e-05
2	1	0	1	0	0	1042.59	0.50677	0.507103	0.0278266	9	0.229321	11	0	11.1018	1.41109e-05
2	1	0	0	0	0	1045.19	0.519772	0.520115	0.0282413	9	0.229395	11	0	13.7024	1.46887e-05
2	1	0	0	0	0	1047.79	0.532774	0.533081	0.0293879	9	0.22947	11	0	16.3028	1.56661e-05
2	1	0	0	0	0	1050.39	0.545776	0.54609	0.0316283	9	0.229549	11	0	18.9032	1.72719e-05
2	1	0	1	0	0	1052.99	0.558779	0.559097	0.0359313	9	0.229637	11	0	21.5037	2.00891e-05
2	1	0	1	0	0	1055.59	0.571781	0.572065	0.0439727	9	0.22974	11	0	24.1042	2.51552e-05
2	1	0	1	0	0	1058.19	0.584783	0.585067	0.0594167	9	0.229873	11	0	26.7046	3.47627e-05
2	1	0	1	0	0	1060.79	0.597785	0.5981	0.0879993	9	0.230062	11	0	29.305	5.26324e-05
2	1	0	0	0	0	1063.4	0.610788	0.611101	0.139772	9	0.230353	11	0	31.9056	8.54146e-05
2	1	0	0	0	0	1066	0.62379	0.624044	0.228296	9	0.230823	11	0	34.506	0.000142467
2	1	0	0	0	0	1068.6	0.636792	0.637089	0.368951	9	0.231588	11	0	37.1064	0.000235054
2	1	0	0	0	0	1071.2	0.649794	0.650096	0.5699	9	0.232797	11	0	39.7068	0.00037049
2	1	0	1	0	0	1073.8	0.662797	0.663056	0.830925	9	0.234608	11	0	42.3074	0.000550949
2	1	0	1	0	0	1076.4	0.675799	0.676102	1.14311	9	0.237167	11	0	44.9078	0.000772856
2	1	0	1	0	0	1079	0.688801	0.689091	1.49674	9	0.24059	11	0	47.5082	0.00103139
2	1	0	0	0	0	1081.4	0.699153	0.699439	1.80247	9	0.24461	11	0	49.908	0.00126072
2	1	0	0	0	0	1084	0.686151	0.686435	1.40019	9	0.248759	11	0	52.5084	0.00096114
2	1	0	1	0	0	1086.6	0.673149	0.673451	1.05327	9	0.251939	11	0	55.109	0.000709325
2	1	0	1	0	0	1089.2	0.660146	0.660476	0.748065	9	0.254268	11	0	57.7094	0.000494079
2	1	0	1	0	0	1091.8	0.647144	0.647444	0.494002	9	0.255867	11	0	60.3098	0.000319839
2	1	0	1	0	0	1094.4	0.634142	0.634413	0.301041	9	0.256888	11	0	62.9102	0.000190985
2	1	0	0	0	0	1097	0.621139	0.62144	0.166554	9	0.257484	11	0	65.5108	0.000103503
2	1	0	0	0	0	1099.6	0.608137	0.608451	0.0812041	9	0.257796	11	0	68.1112	4.94087e-05
2	1	0	0	0	0	1102.2	0.595135	0.595453	0.0315974	9	0.257936	11	0	70.7116	1.88148e-05
2	1	0	0	0	0	1104.8	0.582133	0.582471	0.00391003	9	0.257978	11	0	73.312	2.27748e-06
2	0	0	1	0	0	1107.4	0.56913	0.569418	-0.0111959	9	0.257966	11	0	1.9004	-6.37515e-06
2	0	0	1	0	0	1110	0.556128	0.556406	-0.0195739	9	0.257925	11	0	4.5008	-1.0891e-05
2	0	0	1	0	0	1112.6	0.543126	0.543409	-0.0246774	9	0.257866	11	0	7.1012	-1.34099e-05
2	0	0	1	0	0	1115.2	0.530124	0.530403	-0.0277844	9	0.257797	11	0	9.7017	-1.47369e-05
2	0	0	0	0	0	1117.8	0.517121	0.517455	-0.0298909	9	0.257721	11	0	12.3022	-1.54672e-05
2	0	0	0	0	0	1120.4	0.504119	0.50444	-0.0313787	9	0.257641	11	0	14.9026	-1.58287e-05
2	0	0	0	0	0	1123	0.491117	0.491443	-0.0327153	9	0.257557	11	0	17.503	-1.60777e-05
2	0	0	1	0	0	1125.61	0.478115	0.478417	-0.0340635	9	0.257469	11	0	20.1036	-1.62966e-05
2	0	0	1	0	0	1128.21	0.465112	0.465447	-0.0355031	9	0.257379	11	0	22.704	-1.65248e-05
2	0	0	1	0	0	1130.81	0.45211	0.452377	-0.036886	9	0.257284	11	0	25.3044	-1.66864e-05
2	1	0	0	0	1	1133.28	0.460262	0.460579	0.0258639	10	0.25731	11	0	1.8002	1.19124e-05
2	1	0	1	0	1	1135.88	0.473264	0.47355	0.027061	10	0.25738	11	0	4.4008	1.28148e-05
2	1	0	1	0	1	1138.48	0.486266	0.486636	0.0274892	10	0.257452	11	0	7.0012	1.33772e-05
2	1	0	1	0	1	1141.08	0.499268	0.499559	0.0276491	10	0.257524	11	0	9.6016	1.38123e-05
2	1	0	1	0	1	1143.68	0.512271	0.512568	0.0278401	10	0.257597	11	0	12.202	1.427e-05
2	1	0	0	0	1	1146.28	0.525273	0.525558	0.0285461	10	0.257671	11	0	14.8026	1.50027e-05
2	1	0	0	0	1	1148.88	0.538275	0.538616	0.0300963	10	0.257748	11	0	17.403	1.62103e-05
2	1	0	0	0	1	1151.48	0.551277	0.551644	0.0331878	10	0.25783	11	0	20.0034	1.83078e-05
2	1	0	0	0	1	1154.08	0.56428	0.564572	0.0387956	10	0.257923	11	0	22.6038	2.19029e-05
2	1	0	1	0	1	1156.68	0.577282	0.577604	0.0496187	10	0.258036	11	0	25.2044	2.86599e-05
2	1	0	1	0	1	1159.28	0.590284	0.590622	0.069501	10	0.258188	11	0	27.8048	4.10488e-05
2	1	0	1	0	1	1161.88	0.603286	0.603585	0.106238	10	0.258411	11	0	30.4052	6.41238e-05
2	1	0	1	0	1	1164.48	0.616288	0.616652	0.171565	10	0.258765	11	0	33.0057	0.000105796
2	1	0	0	0	1	1167.08	0.629291	0.62961	0.280223	10	0.259341	11	0	35.6062	0.000176431
2	1	0	0	0	1	1169.69	0.642293	0.642619	0.445195	10	0.260272	11	0	38.2066	0.000286091
2	1	0	0	0	1	1172.29	0.655295	0.655542	0.670974	10	0.261711	11	0	40.807	0.000439852
2	1	0	1	0	1	1174.89	0.668298	0.668577	0.951602	10	0.263812	11	0	43.4076	0.000636219
2	1	0	1	0	1	1177.49	0.6813	0.681595	1.27939	10	0.266706	11	0	46.008	0.000872023
2	1	0	1	0	1	1180.09	0.694302	0.694587	1.65493	10	0.270514	11	0	48.6084	0.00114949
2	1	0	0	0	1	1182.49	0.693652	0.693951	1.62181	10	0.27467	11	0	51.0082	0.00112546
2	1	0	0	0	1	1185.09	0.68065	0.680946	1.24525	10	0.278378	11	0	53.6086	0.000847944
2	1	0	1	0	1	1187.69	0.667648	0.667933	0.918007	10	0.281177	11	0	56.2092	0.000613167
2	1	0	1	0	1	1190.29	0.654645	0.65492	0.632533	10	0.283178	11	0	58.8096	0.000414258
2	1	0	1	0	1	1192.89	0.641643	0.641933	0.406317	10	0.284517	11	0	61.41	0.000260828
2	1	0	1	0	1	1195.49	0.628641	0.628933	0.237061	10	0.285339	11	0	64.0104	0.000149096
2	1	0	0	0	1	1198.09	0.615638	0.615907	0.124141	10	0.285798	11	0	66.611	7.6459e-05
2	1	0	0	0	1	1200.69	0.602636	0.602964	0.0559491	10	0.286024	11	0	69.2114	3.37353e-05
2	1	0	0	0	1	1203.29	0.589634	0.589922	0.0173542	10	0.286115	11	0	71.8118	1.02376e-05
2	0	0	0	0	1	1205.89	0.576632	0.576935	-0.00409379	10	0.286129	11	0	0.5	-2.36185e-06
2	0	0	1	0	1	1208.49	0.563629	0.563939	-0.0158293	10	0.286103	11	0	3.1006	-8.92677e-06
2	0	0	1	0	1	1211.09	0.550627	0.55092	-0.0224229	10	0.286052	11	0	5.701	-1.23532e-05
2	0	0	1	0	1	1213.69	0.537625	0.537925	-0.0261374	10	0.285988	11	0	8.3014	-1.40599e-05
2	0	0	1	0	1	1216.29	0.524623	0.524834	-0.0286712	10	0.285916	11	0	10.9018	-1.50476e-05
2	0	0	0	0	1	1218.89	0.51162	0.511903	-0.0305685	10	0.285839	11	0	13.5024	-1.56481e-05
2	0	0	0	0	1	1221.49	0.498618	0.498917	-0.0318829	10	0.285757	11	0	16.1028	-1.59069e-05
2	0	0	0	0	1	1224.09	0.485616	0.485965	-0.0332103	10	0.285671	11	0	18.7032	-1.6139e-05
2	0	0	1	0	1	1226.69	0.472614	0.472927	-0.034591	10	0.285583	11	0	21.3037	-1.6359e-05
2	0	0	1	0	1	1229.29	0.459611	0.459925	-0.0360542	10	0.285491	11	0	23.9042	-1.65822e-05
2	1	0	0	0	0	1231.77	0.45276	0.453085	0.0217539	11	0.285425	11	0	0.3	9.85635e-06
2	1	0	0	0	0	1234.37	0.465762	0.466094	0.0269958	11	0.285491	11	0	2.9004	1.25826e-05
2	1	0	1	0	0	1236.97	0.478765	0.479034	0.0276754	11	0.285562	11	0	5.501	1.32574e-05
2	1	0	1	0	0	1239.57	0.491767	0.492085	0.0278042	11	0.285634	11	0	8.1014	1.3682e-05
2	1	0	1	0	0	1242.17	0.504769	0.505045	0.028019	11	0.285707	11	0	10.7018	1.41508e-05
2	1	0	1	0	0	1244.77	0.517771	0.518066	0.0284628	11	0.28578	11	0	13.3022	1.47456e-05
2	1	0	0	0	0	1247.37	0.530774	0.531031	0.0291498	11	0.285855	11	0	15.9028	1.54794e-05
2	1	0	0	0	0	1249.97	0.543776	0.54401	0.030818	11	0.285933	11	0	18.5032	1.67653e-05
2	1	0	0	0	0	1252.57	0.556778	0.557046	0.034928	11	0.286018	11	0	21.1036	1.94565e-05
2	1	0	0	0	0	1255.17	0.569781	0.570055	0.0423113	11	0.286118	11	0	23.704	2.41198e-05
2	1	0	1	0	0	1257.77	0.582783	0.583112	0.055975	11	0.286245	11	0	26.3046	3.26397e-05
2	1	0	1	0	0	1260.37	0.595785	0.596098	0.0817679	11	0.286421	11	0	28.905	4.87416e-05
2	1	0	1	0	0	1262.97	0.608787	0.609096	0.128475	11	0.286689	11	0	31.5054	7.82535e-05
2	1	0	1	0	0	1265.57	0.62179	0.622115	0.209903	11	0.28712	11	0	34.1058	0.000130584
2	1	0	0	0	0	1268.17	0.634792	0.635059	0.341244	11	0.287826	11	0	36.7064	0.00021671
2	1	0	0	0	0	1270.77	0.647794	0.648048	0.530927	11	0.288948	11	0	39.3068	0.000344066
2	1	0	0	0	0	1273.37	0.660796	0.661109	0.781839	11	0.290644	11	0	41.9072	0.00051688
2	1	0	1	0	0	1275.98	0.673799	0.674084	1.08798	11	0.293067	11	0	44.5078	0.000733387
2	1	0	1	0	0	1278.58	0.686801	0.687074	1.43666	11	0.296341	11	0	47.1082	0.000987089
2	1	0	1	0	0	1281.17	0.699753	0.700073	1.82115	11	0.300552	11	0	49.6986	0.00127493
2	1	0	0	0	0	1283.58	0.688151	0.688444	1.45514	11	0.304495	11	0	52.1084	0.00100178
2	1	0	0	0	0	1286.18	0.675149	0.675443	1.0941	11	0.307795	11	0	54.7088	0.000739006
2	1	0	1	0	0	1288.78	0.662147	0.662466	0.78722	11	0.310232	11	0	57.3093	0.000521506
2	1	0	1	0	0	1291.38	0.649144	0.649439	0.526922	11	0.311927	11	0	59.9098	0.000342204
2	1	0	1	0	0	1293.98	0.636142	0.636496	0.326323	11	0.313023	11	0	62.5102	0.000207703
2	1	0	1	0	0	1296.58	0.62314	0.623413	0.182532	11	0.313672	11	0	65.1106	0.000113793
2	1	0	0	0	0	1299.18	0.610138	0.610419	0.090705	11	0.314016	11	0	67.7112	5.53681e-05
2	1	0	0	0	0	1301.78	0.597135	0.597468	0.0370358	11	0.314174	11	0	70.3116	2.21277e-05
2	1	0	0	0	0	1304.38	0.584133	0.584447	0.00692513	11	0.314226	11	0	72.912	4.04737e-06
2	0	0	0	0	0	1306.98	0.571131	0.571438	-0.00938713	11	0.31422	11	0	1.5002	-5.36416e-06
2	0	0	1	0	0	1309.58	0.558129	0.558371	-0.0186649	11	0.314182	11	0	4.1008	-1.04219e-05
2	0	0	1	0	0	1312.18	0.545126	0.54548	-0.024001	11	0.314125	11	0	6.7012	-1.30921e-05
2	0	0	1	0	0	1314.78	0.532124	0.532395	-0.0272472	11	0.314058	11	0	9.3016	-1.45063e-05
2	0	0	1	0	0	1317.38	0.519122	0.519408	-0.0295714	11	0.313983	11	0	11.902	-1.53596e-05
2	0	0	0	0	0	1319.98	0.506119	0.506395	-0.0311753	11	0.313904	11	0	14.5026	-1.5787e-05
2	0	0	0	0	0	1322.58	0.493117	0.493419	-0.0324601	11	0.31382	11	0	17.103	-1.60164e-05
2	0	0	0	0	0	1325.18	0.480115	0.480403	-0.0337241	11	0.313734	11	0	19.7034	-1.62012e-05
2	0	0	1	0	0	1327.78	0.467112	0.467449	-0.0349938	11	0.313644	11	0	22.3039	-1.63578e-05
2	0	0	1	0	0	1330.38	0.45411	0.454409	-0.0364178	11	0.31355	11	0	24.9044	-1.65486e-05
2	1	0	0	0	1	1332.86	0.458261	0.458546	0.0251713	12	0.313552	11	0	1.4002	1.15422e-05
2	1	0	0	0	1	1335.46	0.471263	0.471562	0.0268922	12	0.313621	11	0	4.0006	1.26813e-05
2	1	0	1	0	1	1338.06	0.484265	0.484565	0.0271568	12	0.313692	11	0	6.6011	1.31592e-05
2	1	0	1	0	1	1340.66	0.497268	0.497556	0.0273814	12	0.313764	11	0	9.2016	1.36238e-05
2	1	0	1	0	1	1343.26	0.51027	0.51058	0.0278192	12	0.313837	11	0	11.802	1.42039e-05
2	1	0	1	0	1	1345.86	0.523272	0.52362	0.0284979	12	0.31391	11	0	14.4024	1.4922e-05
2	1	0	0	0	1	1348.46	0.536275	0.53655	0.0296341	12	0.313986	11	0	17.003	1.59001e-05
2	1	0	0	0	1	1351.06	0.549277	0.549604	0.0321579	12	0.314067	11	0	19.6034	1.76741e-05
2	1	0	0	0	1	1353.66	0.562279	0.562597	0.0371985	12	0.314157	11	0	22.2038	2.09278e-05
2	1	0	0	0	1	1356.26	0.575282	0.575604	0.0467414	12	0.314266	11	0	24.8042	2.69045e-05
2	1	0	1	0	1	1358.86	0.588284	0.588628	0.0645392	12	0.314409	11	0	27.4048	3.79896e-05
2	1	0	1	0	1	1361.46	0.601286	0.601574	0.0978044	12	0.314616	11	0	30.0052	5.88366e-05
2	1	0	1	0	1	1364.06	0.614288	0.614582	0.157134	12	0.314941	11	0	32.6056	9.65714e-05
2	1	0	1	0	1	1366.66	0.627291	0.627607	0.257728	12	0.315471	11	0	35.206	0.000161752
2	1	0	0	0	1	1369.26	0.640293	0.640596	0.412314	12	0.31633	11	0	37.8066	0.000264127
2	1	0	0	0	1	1371.86	0.653295	0.65358	0.628163	12	0.317672	11	0	40.407	0.000410555
2	1	0	0	0	1	1374.46	0.666297	0.666573	0.904163	12	0.319654	11	0	43.0074	0.00060269
2	1	0	0	0	1	1377.06	0.6793	0.67962	1.22749	12	0.322418	11	0	45.6078	0.000834225
2	1	0	1	0	1	1379.66	0.692302	0.692596	1.59084	12	0.326078	11	0	48.2084	0.00110181
2	1	0	0	0	1	1382.06	0.695652	0.695936	1.68203	12	0.330209	11	0	50.6082	0.00117059
2	1	0	0	0	1	1384.66	0.68265	0.68295	1.29861	12	0.334074	11	0	53.2086	0.000886887
2	1	0	0	0	1	1387.27	0.669648	0.669912	0.957579	12	0.336995	11	0	55.809	0.000641493
2	1	0	1	0	1	1389.87	0.656645	0.656955	0.668721	12	0.339096	11	0	58.4095	0.00043932
2	1	0	1	0	1	1392.47	0.643643	0.643909	0.435233	12	0.340517	11	0	61.01	0.000280251
2	1	0	1	0	1	1395.07	0.630641	0.630911	0.257907	12	0.341404	11	0	63.6104	0.000162716
2	1	0	1	0	1	1397.67	0.617639	0.617933	0.13743	12	0.341906	11	0	66.2108	8.49226e-05
2	1	0	1	0	1	1400.27	0.604637	0.604937	0.0633728	12	0.342158	11	0	68.8113	3.83366e-05
2	1	0	0	0	1	1402.87	0.591634	0.591928	0.0215393	12	0.342262	11	0	71.4118	1.27497e-05
2	1	0	0	0	1	1405.47	0.578632	0.578926	-0.00153149	12	0.342285	11	0	0.2	-8.86622e-07
2	0	0	0	0	1	1408.07	0.56563	0.565929	-0.0140877	12	0.342263	11	0	2.8004	-7.97262e-06
2	0	0	1	0	1	1410.67	0.552628	0.552974	-0.0210829	12	0.342215	11	0	5.401	-1.16583e-05
2	0	0	1	0	1	1413.27	0.539625	0.539881	-0.0255163	12	0.342154	11	0	8.0014	-1.37758e-05
2	0	0	1	0	1	1415.87	0.526623	0.526929	-0.0281461	12	0.342083	11	0	10.6018	-1.4831e-05
2	0	0	1	0	1	1418.47	0.513621	0.513933	-0.0302079	12	0.342006	11	0	13.2022	-1.55248e-05
2	0	0	0	0	1	1421.07	0.500619	0.500918	-0.0316785	12	0.341925	11	0	15.8028	-1.58683e-05
2	0	0	0	0	1	1423.67	0.487616	0.487877	-0.0330038	12	0.341841	11	0	18.4032	-1.61018e-05
2	0	0	0	0	1	1426.27	0.474614	0.474935	-0.0342161	12	0.341753	11	0	21.0036	-1.62504e-05
2	0	0	0	0	1	1428.87	0.461612	0.461909	-0.0357125	12	0.341661	11	0	23.604	-1.64959e-05
2	0	0	0	0	0	1431.34	0.45076	0.451087	0.00372706	13	0.341575	11	0	26.0766	1.68123e-06
2	1	0	0	0	0	1433.95	0.463762	0.464116	0.0265464	13	0.341637	11	0	2.5004	1.23206e-05
2	1	0	0	0	0	1436.55	0.476764	0.477048	0.0274727	13	0.341707	11	0	5.1008	1.31058e-05
2	1	0	1	0	0	1439.15	0.489767	0.490121	0.0275619	13	0.341779	11	0	7.7013	1.35087e-05
2	1	0	1	0	0	1441.75	0.502769	0.503082	0.0277751	13	0.341852	11	0	10.3018	1.39731e-05
2	1	0	1	0	0	1444.35	0.515771	0.516047	0.0279891	13	0.341925	11	0	12.9022	1.44437e-05
2	1	0	1	0	0	1446.95	0.528773	0.529058	0.0286922	13	0.341999	11	0	15.5026	1.51798e-05
2	1	0	1	0	0	1449.55	0.541775	0.542092	0.0302427	13	0.342076	11	0	18.1031	1.63943e-05
2	1	0	0	0	0	1452.15	0.554778	0.555036	0.0338598	13	0.34216	11	0	20.7036	1.87934e-05
2	1	0	0	0	0	1454.75	0.56778	0.568076	0.0404367	13	0.342257	11	0	23.304	2.29711e-05
2	1	0	0	0	0	1457.35	0.580782	0.581096	0.0528806	13	0.342377	11	0	25.9044	3.07287e-05
2	1	0	1	0	0	1459.95	0.593785	0.594056	0.0759509	13	0.342542	11	0	28.505	4.51191e-05
2	1	0	1	0	0	1462.55	0.606787	0.607073	0.11832	13	0.34279	11	0	31.1054	7.18288e-05
2	1	0	1	0	0	1465.15	0.619789	0.620113	0.192552	13	0.343186	11	0	33.7058	0.000119404
2	1	0	1	0	0	1467.75	0.632792	0.63307	0.314749	13	0.343835	11	0	36.3062	0.000199258
2	1	0	0	0	0	1470.35	0.645794	0.646077	0.495292	13	0.344877	11	0	38.9068	0.000319997
2	1	0	0	0	0	1472.95	0.658796	0.659092	0.737571	13	0.346469	11	0	41.5072	0.000486127
2	1	0	0	0	0	1475.55	0.671798	0.672128	1.03344	13	0.348762	11	0	44.1076	0.000694601
2	1	0	0	0	0	1478.15	0.684801	0.685069	1.37539	13	0.35189	11	0	46.708	0.000942234
2	1	0	1	0	0	1480.75	0.697803	0.698105	1.74954	13	0.355949	11	0	49.3086	0.00122136
2	1	0	0	0	0	1483.15	0.690151	0.690427	1.50453	13	0.359977	11	0	51.7084	0.00103877
2	1	0	0	0	0	1485.75	0.677149	0.677475	1.14937	13	0.363419	11	0	54.3088	0.000778672
2	1	0	0	0	0	1488.35	0.664147	0.664415	0.832056	13	0.365985	11	0	56.9092	0.00055283
2	1	0	0	0	0	1490.95	0.651145	0.651423	0.562406	13	0.367785	11	0	59.5096	0.000366365
2	1	0	1	0	0	1493.56	0.638142	0.638419	0.3509	13	0.368958	11	0	62.1102	0.000224021
2	1	0	1	0	0	1496.16	0.62514	0.625363	0.199221	13	0.369659	11	0	64.7106	0.000124585
2	1	0	1	0	0	1498.76	0.612138	0.612452	0.100766	13	0.370038	11	0	67.311	6.17146e-05
2	1	0	1	0	0	1501.36	0.599136	0.599424	0.0426097	13	0.370216	11	0	69.9115	2.55412e-05
2	1	0	0	0	0	1503.96	0.586133	0.586451	0.00996602	13	0.37028	11	0	72.512	5.84458e-06
2	0	0	0	0	0	1506.56	0.573131	0.573439	-0.0077871	13	0.37028	11	0	1.2002	-4.46543e-06
2	0	0	0	0	0	1509.16	0.560129	0.560367	-0.0179244	13	0.370246	11	0	3.8006	-1.00442e-05
2	0	0	1	0	0	1511.76	0.547127	0.547413	-0.0236112	13	0.370191	11	0	6.4012	-1.29251e-05
2	0	0	1	0	0	1514.36	0.534124	0.534435	-0.0272095	13	0.370125	11	0	9.0016	-1.45417e-05
2	0	0	1	0	0	1516.96	0.521122	0.521444	-0.0292559	13	0.370052	11	0	11.602	-1.52553e-05
2	0	0	1	0	0	1519.56	0.50812	0.508377	-0.0308855	13	0.369973	11	0	14.2024	-1.57015e-05
2	0	0	0	0	0	1522.16	0.495118	0.49544	-0.0321167	13	0.369891	11	0	16.803	-1.59119e-05
2	0	0	0	0	0	1524.76	0.482115	0.4824	-0.0336241	13	0.369805	11	0	19.4034	-1.62203e-05
2	0	0	0	0	0	1527.36	0.469113	0.469442	-0.0349129	13	0.369716	11	0	22.0038	-1.63896e-05
2	0	0	0	0	0	1529.96	0.456111	0.456384	-0.036344	13	0.369624	11	0	24.6042	-1.65868e-05
2	1	0	0	0	1	1532.43	0.456261	0.456537	0.0248844	14	0.369601	11	0	1.0002	1.13607e-05
2	1	0	0	0	1	1535.03	0.469263	0.469528	0.0271998	14	0.369669	11	0	3.6006	1.27711e-05
2	1	0	0	0	1	1537.63	0.482265	0.48257	0.0277527	14	0.36974	11	0	6.201	1.33926e-05
2	1	0	0	0	1	1540.24	0.495268	0.495544	0.0278605	14	0.369812	11	0	8.8014	1.38061e-05
2	1	0	1	0	1	1542.84	0.50827	0.508557	0.0280434	14	0.369884	11	0	11.402	1.42616e-05
2	1	0	1	0	1	1545.44	0.521272	0.521565	0.0281786	14	0.369958	11	0	14.0024	1.4697e-05
2	1	0	1	0	1	1548.04	0.534274	0.53459	0.02935	14	0.370033	11	0	16.6028	1.56902e-05
2	1	0	1	0	1	1550.64	0.547277	0.547497	0.0317976	14	0.370112	11	0	19.2033	1.74091e-05
2	1	0	0	0	1	1553.24	0.560279	0.560561	0.0361688	14	0.3702	11	0	21.8038	2.02748e-05
2	1	0	0	0	1	1555.84	0.573281	0.573576	0.0444479	14	0.370305	11	0	24.4042	2.54942e-05
2	1	0	0	0	1	1558.44	0.586283	0.586626	0.0605161	14	0.37044	11	0	27.0046	3.55003e-05
2	1	0	1	0	1	1561.04	0.599285	0.599572	0.0902464	14	0.370633	11	0	29.6051	5.41092e-05
2	1	0	1	0	1	1563.64	0.612288	0.612579	0.144193	14	0.370933	11	0	32.2056	8.833e-05
2	1	0	1	0	1	1566.24	0.62529	0.625608	0.236798	14	0.371419	11	0	34.806	0.000148143
2	1	0	1	0	1	1568.84	0.638292	0.638599	0.38303	14	0.372214	11	0	37.4064	0.000244603
2	1	0	0	0	1	1571.44	0.651295	0.651567	0.590424	14	0.373467	11	0	40.007	0.000384701
2	1	0	0	0	1	1574.04	0.664297	0.664614	0.854838	14	0.375337	11	0	42.6074	0.000568138
2	1	0	0	0	1	1576.64	0.677299	0.677577	1.16931	14	0.377959	11	0	45.2078	0.000792299
2	1	0	0	0	1	1579.24	0.690302	0.690589	1.52563	14	0.381462	11	0	47.8082	0.00105358
2	1	0	1	0	1	1581.64	0.697653	0.69789	1.73255	14	0.385514	11	0	50.208	0.00120913
2	1	0	0	0	1	1584.24	0.684651	0.684967	1.34563	14	0.389502	11	0	52.8086	0.000921709
2	1	0	0	0	1	1586.84	0.671648	0.671917	1.00987	14	0.392555	11	0	55.409	0.000678546
2	1	0	0	0	1	1589.44	0.658646	0.658897	0.7101	14	0.394777	11	0	58.0094	0.000467883
2	1	0	0	0	1	1592.04	0.645644	0.645921	0.465666	14	0.396293	11	0	60.6098	0.000300783
2	1	0	1	0	1	1594.64	0.632641	0.632964	0.279041	14	0.397247	11	0	63.2104	0.000176623
2	1	0	1	0	1	1597.24	0.619639	0.619883	0.150581	14	0.397793	11	0	65.8108	9.33426e-05
2	1	0	1	0	1	1599.84	0.606637	0.606907	0.0712255	14	0.398071	11	0	68.4112	4.32273e-05
2	1	0	1	0	1	1602.45	0.593634	0.59389	0.0255843	14	0.398191	11	0	71.0117	1.51943e-05
2	1	0	0	0	1	1605.05	0.580632	0.58095	0.000637318	14	0.398223	11	0	73.6122	3.7025e-07
2	0	0	0	0	1	1607.65	0.56763	0.56792	-0.0128813	14	0.398205	11	0	2.3004	-7.31557e-06
2	0	0	0	0	1	1610.25	0.554628	0.554886	-0.0206388	14	0.398161	11	0	4.9008	-1.14522e-05
2	0	0	1	0	1	1612.85	0.541626	0.541936	-0.0248529	14	0.398101	11	0	7.5013	-1.34687e-05
2	0	0	1	0	1	1615.45	0.528623	0.528927	-0.0277129	14	0.398031	11	0	10.1018	-1.46581e-05
2	0	0	1	0	1	1618.05	0.515621	0.515906	-0.0298166	14	0.397956	11	0	12.7022	-1.53826e-05
2	0	0	1	0	1	1620.65	0.502619	0.50292	-0.0313944	14	0.397876	11	0	15.3026	-1.57889e-05
2	0	0	1	0	1	1623.25	0.489617	0.489875	-0.0325727	14	0.397792	11	0	17.9031	-1.59565e-05
2	0	0	0	0	1	1625.85	0.476614	0.476901	-0.0339987	14	0.397706	11	0	20.5036	-1.6214e-05
2	0	0	0	0	1	1628.45	0.463612	0.463924	-0.0354208	14	0.397615	11	0	23.104	-1.64325e-05
2	0	0	0	0	1	1631.05	0.45061	0.450944	-0.036772	14	0.397522	11	0	25.7044	-1.65821e-05
2	1	0	0	0	0	1633.52	0.461762	0.462071	0.0263467	15	0.397567	11	0	2.1004	1.21741e-05
2	1	0	0	0	0	1636.12	0.474764	0.475081	0.0272733	15	0.397637	11	0	4.7008	1.29571e-05
2	1	0	0	0	0	1638.72	0.487766	0.488047	0.0274072	15	0.397708	11	0	7.3012	1.3376e-05
2	1	0	0	0	0	1641.32	0.500769	0.501091	0.0275794	15	0.39778	11	0	9.9016	1.38198e-05
2	1	0	1	0	0	1643.92	0.513771	0.514057	0.0278471	15	0.397853	11	0	12.5022	1.4315e-05
2	1	0	1	0	0	1646.53	0.526773	0.527085	0.0284872	15	0.397927	11	0	15.1026	1.50152e-05
2	1	0	1	0	0	1649.13	0.539775	0.540097	0.0300192	15	0.398003	11	0	17.703	1.62133e-05
2	1	0	1	0	0	1651.73	0.552778	0.553073	0.0331361	15	0.398086	11	0	20.3034	1.83267e-05
2	1	0	0	0	0	1654.33	0.56578	0.566093	0.03904	15	0.398179	11	0	22.904	2.21002e-05
2	1	0	0	0	0	1656.93	0.578782	0.579085	0.050019	15	0.398294	11	0	25.5044	2.89653e-05
2	1	0	0	0	0	1659.53	0.591784	0.592115	0.0708399	15	0.39845	11	0	28.1048	4.19454e-05
2	1	0	1	0	0	1662.13	0.604787	0.605129	0.109091	15	0.398679	11	0	30.7053	6.60141e-05
2	1	0	1	0	0	1664.73	0.617789	0.618074	0.177069	15	0.399044	11	0	33.3058	0.000109442
2	1	0	1	0	0	1667.33	0.630791	0.631079	0.290238	15	0.399641	11	0	35.9062	0.000183163
2	1	0	1	0	0	1669.93	0.643793	0.64409	0.461286	15	0.400606	11	0	38.5066	0.00029711
2	1	0	0	0	0	1672.53	0.656796	0.657068	0.693833	15	0.402097	11	0	41.1072	0.000455896
2	1	0	0	0	0	1675.13	0.669798	0.670108	0.983342	15	0.404269	11	0	43.7076	0.000658945
2	1	0	0	0	0	1677.73	0.6828	0.683097	1.31836	15	0.407255	11	0	46.308	0.000900569
2	1	0	0	0	0	1680.33	0.695802	0.696085	1.69076	15	0.41116	11	0	48.9084	0.00117691
2	1	0	1	0	0	1682.73	0.692152	0.692423	1.5611	15	0.415259	11	0	51.3082	0.00108094
2	1	0	0	0	0	1685.33	0.67915	0.679422	1.1906	15	0.418821	11	0	53.9088	0.000808919
2	1	0	0	0	0	1687.93	0.666147	0.666399	0.869189	15	0.421487	11	0	56.5092	0.000579227
2	1	0	0	0	0	1690.53	0.653145	0.653397	0.593139	15	0.423374	11	0	59.1096	0.000387555
2	1	0	0	0	0	1693.13	0.640143	0.640419	0.376887	15	0.424622	11	0	61.71	0.000241365
2	1	0	1	0	0	1695.73	0.627141	0.627433	0.217028	15	0.42538	11	0	64.3106	0.00013617
2	1	0	1	0	0	1698.33	0.614138	0.61447	0.11155	15	0.425796	11	0	66.911	6.85439e-05
2	1	0	1	0	0	1700.93	0.601136	0.601431	0.0482768	15	0.425996	11	0	69.5114	2.90352e-05
2	1	0	1	0	0	1703.53	0.588134	0.588498	0.0132633	15	0.426072	11	0	72.1118	7.80541e-06
2	0	0	0	0	0	1706.13	0.575131	0.575409	-0.00594494	15	0.426079	11	0	0.9002	-3.42077e-06
2	0	0	0	0	0	1708.74	0.562129	0.562503	-0.0166444	15	0.426048	11	0	3.5006	-9.36255e-06
2	0	0	0	0	0	1711.34	0.549127	0.549442	-0.0226822	15	0.425996	11	0	6.101	-1.24626e-05
2	0	0	1	0	0	1713.94	0.536125	0.536381	-0.0261317	15	0.425932	11	0	8.7015	-1.40165e-05
2	0	0	1	0	0	1716.54	0.523122	0.523385	-0.0285774	15	0.42586	11	0	11.302	-1.4957e-05
2	0	0	1	0	0	1719.14	0.51012	0.510504	-0.0303567	15	0.425782	11	0	13.9024	-1.54972e-05
2	0	0	1	0	0	1721.74	0.497118	0.497425	-0.0320863	15	0.425701	11	0	16.5028	-1.59605e-05
2	0	0	1	0	0	1724.34	0.484116	0.484438	-0.0334683	15	0.425616	11	0	19.1033	-1.62133e-05
2	0	0	0	0	0	1726.94	0.471113	0.47139	-0.0346535	15	0.425528	11	0	21.7038	-1.63353e-05
2	0	0	0	0	0	1729.54	0.458111	0.458469	-0.0359602	15	0.425436	11	0	24.3042	-1.64866e-05
2	0	0	1	0	0	1731.16	0.449985	0.450246	-0.0392738	15	0.425378	11	0	25.9214	-1.76829e-05