File: ACS_Catal_2026/Figures_Na_K/main_figures/data/EC/20240401_2-128_CV_cycles_alpha_gamma/alpha/20240328_2-128_003_alpha_Na-1_03_CVA_C01.mpt
EC-Lab ASCII FILE
Nb header lines : 66

Cyclic Voltammetry Advanced

Run on channel : 1 (SN 66412)
User :
CE vs. WE compliance from -10 V to 10 V
Electrode connection : standard
Potential control : Ewe
Ewe ctrl range : min = -1.00 V, max = 1.00 V
Safety Limits :
	Do not start on E overload
Acquisition started on : 04/01/2024 19:24:04.746
Loaded Setting File :  C:\Users\NakamuraT\Documents\EC-Lab\Data\Yatsuzuka\20240328_2-129_UV-vis_K_Na_diff\20240328_2-129_001_preconditioning+CV_inK.mps
Saved on :
	File : 20240328_2-128_003_alpha_Na-1_03_CVA_C01.mpr
	Directory : C:\Users\NakamuraT\Documents\EC-Lab\Data\Yatsuzuka\20240401_2-128_CV_cycles_alpha_gamma\
	Host : 192.109.209.100
Device : SP-150e (SN .003411)
Address : 192.109.209.236
EC-Lab for windows v11.50 (software)
Internet server v11.50 (firmware)
Command interpretor v11.50 (firmware)
Electrode material :
Initial state :
Electrolyte :
Comments :
Electrode surface area : 0.001 cm2
Characteristic mass : 0.001 g
Equivalent Weight : 0.000 g/eq.
Density : 0.000 g/cm3
Volume (V) : 0.001 cm3
Cycle Definition : Charge/Discharge alternance
Ei (V)              0.450
vs.                 Ref
ti (h:m:s)          0:00:10.0000
dti (s)             0.0000
dE/dt               5.000
dE/dt unit          mV/s
E1 (V)              0.700
vs.                 Ref
t1 (h:m:s)          0:00:0.0000
dt1 (s)             0.1000
Step percent        50
N                   10
E range min (V)     -1.000
E range max (V)     1.000
I Range             10 mA
I Range min         Unset
I Range max         Unset
I Range init        Unset
Bandwidth           5
E2 (V)              0.450
vs.                 Ref
t2 (h:m:s)          0:00:0.0000
dt2 (s)             0.1000
nc cycles           14
nr                  1
Reverse Scan        0
Ef (V)              0.000
vs.                 Eoc
tf (h:m:s)          0:00:0.0000
dtf (s)             0.1000

mode	ox/red	error	control changes	Ns changes	counter inc.	time/s	control/V	Ewe/V	<I>/mA	cycle number	(Q-Qo)/C	I Range	Ns	step time/s	P/W
2	0	0	1	0	0	231.232	0.449948	0.450221	-0.00350997	1	0.0000000E+000	11	0	0.000000000000000E+000	-1.58027e-06
2	1	0	1	0	0	233.788	0.462725	0.463022	0.0348753	1	7.98254e-05	11	0	2.5004	1.6148e-05
2	1	0	1	0	0	236.388	0.475727	0.476067	0.0336292	1	0.000168784	11	0	5.1008	1.60098e-05
2	1	0	0	0	0	238.989	0.48873	0.489036	0.0345431	1	0.000258199	11	0	7.7014	1.68928e-05
2	1	0	0	0	0	241.589	0.501732	0.502073	0.0349294	1	0.000348253	11	0	10.3018	1.75371e-05
2	1	0	0	0	0	244.19	0.514734	0.51507	0.0341503	1	0.000439008	11	0	12.9022	1.75898e-05
2	1	0	1	0	0	246.79	0.527737	0.528065	0.0369087	1	0.000531497	11	0	15.5028	1.94902e-05
2	1	0	1	0	0	249.391	0.540739	0.541051	0.0367084	1	0.000626802	11	0	18.1032	1.98611e-05
2	1	0	1	0	0	251.991	0.553742	0.554066	0.0405858	1	0.000727273	11	0	20.7037	2.24872e-05
2	1	0	0	0	0	254.592	0.566744	0.567097	0.0435536	1	0.000836373	11	0	23.3042	2.46991e-05
2	1	0	0	0	0	257.192	0.579746	0.580098	0.0520834	1	0.000959958	11	0	25.9046	3.02135e-05
2	1	0	1	0	0	259.793	0.592749	0.593105	0.0627812	1	0.0011081	11	0	28.5052	3.72358e-05
2	1	0	1	0	0	262.393	0.605751	0.60606	0.0836544	1	0.00129742	11	0	31.1056	5.06996e-05
2	1	0	1	0	0	264.993	0.618753	0.619084	0.116482	1	0.00155504	11	0	33.706	7.21119e-05
2	1	0	0	0	0	267.594	0.631756	0.632098	0.169329	1	0.00192231	11	0	36.3066	0.000107032
2	1	0	0	0	0	270.194	0.644758	0.645145	0.251842	1	0.00246222	11	0	38.907	0.000162475
2	1	0	1	0	0	272.795	0.657761	0.657991	0.371738	1	0.0032623	11	0	41.5075	0.0002446
2	1	0	1	0	0	275.395	0.670763	0.671027	0.537066	1	0.00443386	11	0	44.108	0.000360386
2	1	0	1	0	0	277.996	0.683765	0.684061	0.751814	1	0.0061017	11	0	46.7084	0.000514287
2	1	0	1	0	0	280.596	0.696767	0.697043	1.02018	1	0.00839656	11	0	49.3089	0.000711108
2	1	0	1	0	0	283.003	0.691166	0.691504	0.866291	1	0.0107887	11	0	51.7157	0.000599044
2	1	0	0	0	0	285.604	0.678164	0.678463	0.610896	1	0.0126994	11	0	54.3162	0.000414471
2	1	0	0	0	0	288.204	0.665162	0.665536	0.407472	1	0.0140106	11	0	56.9166	0.000271187
2	1	0	1	0	0	290.805	0.652159	0.652517	0.255512	1	0.0148596	11	0	59.5172	0.000166726
2	1	0	1	0	0	293.405	0.639157	0.639482	0.147844	1	0.0153739	11	0	62.1176	9.45433e-05
2	1	0	1	0	0	296.005	0.626155	0.62648	0.0786219	1	0.0156622	11	0	64.718	4.9255e-05
2	1	0	0	0	0	298.606	0.613152	0.613495	0.0344749	1	0.0158036	11	0	67.3186	2.11501e-05
2	1	0	0	0	0	301.206	0.60015	0.600416	0.00606933	1	0.0158537	11	0	69.919	3.64413e-06
2	0	0	0	0	0	303.807	0.587148	0.587534	-0.00902025	1	0.0158483	11	0	1.6002	-5.2997e-06
2	0	0	1	0	0	306.407	0.574145	0.574445	-0.0196654	1	0.0158091	11	0	4.2008	-1.12967e-05
2	0	0	1	0	0	309.008	0.561143	0.561403	-0.0262388	1	0.0157489	11	0	6.8012	-1.47305e-05
2	0	0	1	0	0	311.608	0.548141	0.548447	-0.0294634	1	0.0156758	11	0	9.4017	-1.61591e-05
2	0	0	0	0	0	314.209	0.535138	0.535491	-0.0327512	1	0.0155944	11	0	12.0022	-1.7538e-05
2	0	0	0	0	0	316.809	0.522136	0.522422	-0.0334502	1	0.0155075	11	0	14.6026	-1.74751e-05
2	0	0	1	0	0	319.41	0.509133	0.509486	-0.0363388	1	0.0154162	11	0	17.2032	-1.85141e-05
2	0	0	1	0	0	322.01	0.496131	0.496474	-0.0364221	1	0.0153216	11	0	19.8036	-1.80826e-05
2	0	0	1	0	0	324.611	0.483129	0.483481	-0.0379481	1	0.015224	11	0	22.404	-1.83472e-05
2	0	0	0	0	0	327.211	0.470126	0.470524	-0.0396401	1	0.0151232	11	0	25.0046	-1.86516e-05
2	0	0	0	0	0	329.812	0.457124	0.457477	-0.0397974	1	0.0150195	11	0	27.605	-1.82064e-05
2	1	0	1	0	1	332.287	0.455273	0.455518	0.02717	2	0.0149794	11	0	0.8001	1.23764e-05
2	1	0	1	0	1	334.887	0.468276	0.468639	0.0313266	2	0.015056	11	0	3.4006	1.46809e-05
2	1	0	1	0	1	337.488	0.481278	0.481605	0.0303612	2	0.0151365	11	0	6.001	1.46221e-05
2	1	0	0	0	1	340.088	0.494281	0.494525	0.0317178	2	0.0152179	11	0	8.6016	1.56853e-05
2	1	0	0	0	1	342.689	0.507283	0.507558	0.0318402	2	0.0153	11	0	11.202	1.61607e-05
2	1	0	0	0	1	345.289	0.520285	0.520665	0.0311274	2	0.0153827	11	0	13.8024	1.62069e-05
2	1	0	1	0	1	347.89	0.533288	0.533609	0.0330926	2	0.0154665	11	0	16.403	1.76585e-05
2	1	0	1	0	1	350.49	0.54629	0.546562	0.0339603	2	0.0155527	11	0	19.0034	1.85614e-05
2	1	0	1	0	1	353.09	0.559292	0.559679	0.0357016	2	0.0156435	11	0	21.6039	1.99814e-05
2	1	0	0	0	1	355.691	0.572295	0.572566	0.0414644	2	0.015743	11	0	24.2044	2.37411e-05
2	1	0	0	0	1	358.291	0.585297	0.585598	0.0475546	2	0.0158576	11	0	26.8048	2.78479e-05
2	1	0	1	0	1	360.892	0.5983	0.598643	0.0615852	2	0.0159984	11	0	29.4054	3.68676e-05
2	1	0	1	0	1	363.492	0.611302	0.611548	0.0841858	2	0.0161845	11	0	32.0058	5.14837e-05
2	1	0	1	0	1	366.093	0.624304	0.62467	0.121338	2	0.0164462	11	0	34.6062	7.57965e-05
2	1	0	0	0	1	368.693	0.637307	0.637635	0.180813	2	0.0168313	11	0	37.2068	0.000115292
2	1	0	0	0	1	371.294	0.650309	0.65066	0.272495	2	0.0174111	11	0	39.8072	0.000177302
2	1	0	0	0	1	373.894	0.663311	0.663624	0.406003	2	0.0182847	11	0	42.4076	0.000269433
2	1	0	1	0	1	376.495	0.676314	0.676714	0.593536	2	0.0195715	11	0	45.0082	0.000401654
2	1	0	1	0	1	379.095	0.689316	0.68963	0.822724	2	0.0214057	11	0	47.6086	0.000567375
2	1	0	1	0	1	381.492	0.698668	0.698981	1.01026	2	0.0236771	11	0	50.0054	0.00070615
2	1	0	1	0	1	384.092	0.685665	0.685995	0.718883	2	0.0259089	11	0	52.6059	0.00049315
2	1	0	0	0	1	386.693	0.672663	0.672927	0.493082	2	0.0274712	11	0	55.2064	0.000331808
2	1	0	0	0	1	389.293	0.659661	0.660043	0.318425	2	0.0285134	11	0	57.8068	0.000210174
2	1	0	1	0	1	391.894	0.646658	0.646924	0.192181	2	0.0291643	11	0	60.4074	0.000124326
2	1	0	1	0	1	394.494	0.633656	0.633949	0.105582	2	0.0295426	11	0	63.0078	6.69337e-05
2	1	0	1	0	1	397.095	0.620654	0.620872	0.0517027	2	0.0297414	11	0	65.6082	3.21007e-05
2	1	0	0	0	1	399.695	0.607651	0.607967	0.0180583	2	0.0298269	11	0	68.2088	1.09789e-05
2	0	0	0	0	1	402.296	0.594649	0.594996	-0.00326202	2	0.0298428	11	0	0.5	-1.94089e-06
2	0	0	0	0	1	404.896	0.581647	0.581978	-0.0150297	2	0.029817	11	0	3.1004	-8.74694e-06
2	0	0	1	0	1	407.497	0.568644	0.568902	-0.0238542	2	0.0297654	11	0	5.701	-1.35707e-05
2	0	0	1	0	1	410.097	0.555642	0.555946	-0.0272335	2	0.0296981	11	0	8.3014	-1.51404e-05
2	0	0	0	0	1	412.698	0.542639	0.542992	-0.0317927	2	0.0296208	11	0	10.902	-1.72632e-05
2	0	0	0	0	1	415.298	0.529637	0.529942	-0.0326325	2	0.0295368	11	0	13.5024	-1.72933e-05
2	0	0	0	0	1	417.899	0.516635	0.517021	-0.0350229	2	0.0294481	11	0	16.1028	-1.81076e-05
2	0	0	1	0	1	420.499	0.503632	0.503926	-0.0368816	2	0.0293558	11	0	18.7034	-1.85856e-05
2	0	0	1	0	1	423.1	0.49063	0.490906	-0.0381967	2	0.0292602	11	0	21.3038	-1.8751e-05
2	0	0	1	0	1	425.7	0.477628	0.477992	-0.0382875	2	0.0291616	11	0	23.9042	-1.83011e-05
2	0	0	0	0	1	428.301	0.464625	0.465002	-0.0387913	2	0.0290599	11	0	26.5048	-1.80381e-05
2	0	0	0	0	1	430.901	0.451623	0.451936	-0.0409677	2	0.0289549	11	0	29.1052	-1.85148e-05
2	1	0	1	0	0	433.376	0.460775	0.461185	0.0284088	3	0.0289905	11	0	1.9004	1.31017e-05
2	1	0	1	0	0	435.977	0.473777	0.474187	0.0301125	3	0.0290687	11	0	4.5008	1.4279e-05
2	1	0	1	0	0	438.577	0.486779	0.487055	0.0300418	3	0.0291488	11	0	7.1012	1.4632e-05
2	1	0	0	0	0	441.178	0.499782	0.500085	0.0309002	3	0.0292296	11	0	9.7018	1.54527e-05
2	1	0	0	0	0	443.778	0.512784	0.513121	0.0313065	3	0.0293106	11	0	12.3022	1.6064e-05
2	1	0	0	0	0	446.378	0.525786	0.526159	0.0322026	3	0.0293924	11	0	14.9026	1.69437e-05
2	1	0	1	0	0	448.979	0.538789	0.539141	0.0328849	3	0.0294756	11	0	17.5032	1.77296e-05
2	1	0	1	0	0	451.579	0.551791	0.552022	0.0348402	3	0.0295617	11	0	20.1036	1.92326e-05
2	1	0	1	0	0	454.18	0.564794	0.565105	0.0376549	3	0.0296535	11	0	22.7041	2.1279e-05
2	1	0	0	0	0	456.78	0.577796	0.578156	0.0419193	3	0.0297554	11	0	25.3046	2.42359e-05
2	1	0	0	0	0	459.381	0.590798	0.591138	0.0500847	3	0.029875	11	0	27.905	2.96069e-05
2	1	0	1	0	0	461.981	0.603801	0.604071	0.0659317	3	0.030026	11	0	30.5056	3.98274e-05
2	1	0	1	0	0	464.582	0.616803	0.617176	0.093241	3	0.0302304	11	0	33.106	5.75462e-05
2	1	0	1	0	0	467.182	0.629805	0.630071	0.136808	3	0.0305236	11	0	35.7064	8.61989e-05
2	1	0	0	0	0	469.783	0.642808	0.643162	0.204777	3	0.0309612	11	0	38.307	0.000131705
2	1	0	0	0	0	472.383	0.65581	0.65614	0.311345	3	0.0316237	11	0	40.9074	0.000204286
2	1	0	1	0	0	474.984	0.668813	0.669113	0.462015	3	0.0326203	11	0	43.5079	0.00030914
2	1	0	1	0	0	477.584	0.681815	0.682089	0.665265	3	0.0340747	11	0	46.1084	0.00045377
2	1	0	1	0	0	480.185	0.694817	0.69512	0.920556	3	0.0361265	11	0	48.7088	0.000639897
2	1	0	1	0	0	482.581	0.693167	0.693464	0.863311	3	0.0384152	11	0	51.1056	0.000598675
2	1	0	1	0	0	485.182	0.680164	0.68052	0.604828	3	0.0403064	11	0	53.7061	0.000411598
2	1	0	0	0	0	487.782	0.667162	0.667503	0.401791	3	0.0415995	11	0	56.3066	0.000268197
2	1	0	0	0	0	490.383	0.65416	0.654452	0.248475	3	0.0424319	11	0	58.907	0.000162615
2	1	0	1	0	0	492.983	0.641157	0.641523	0.144957	3	0.0429347	11	0	61.5076	9.29932e-05
2	1	0	1	0	0	495.584	0.628155	0.628467	0.0752842	3	0.0432135	11	0	64.108	4.73136e-05
2	1	0	1	0	0	498.184	0.615153	0.615507	0.0318223	3	0.0433486	11	0	66.7084	1.95869e-05
2	1	0	0	0	0	500.785	0.60215	0.602524	0.00523727	3	0.0433948	11	0	69.309	3.15558e-06
2	0	0	0	0	0	503.385	0.589148	0.589476	-0.0106839	3	0.0433871	11	0	1.6002	-6.29788e-06
2	0	0	0	0	0	505.986	0.576146	0.576474	-0.0204548	3	0.043347	11	0	4.2006	-1.17916e-05
2	0	0	1	0	0	508.586	0.563143	0.563476	-0.0265918	3	0.0432868	11	0	6.8012	-1.49838e-05
2	0	0	1	0	0	511.187	0.550141	0.550413	-0.0303169	3	0.043214	11	0	9.4016	-1.66868e-05
2	0	0	1	0	0	513.787	0.537139	0.537444	-0.0331018	3	0.0431333	11	0	12.0021	-1.77904e-05
2	0	0	0	0	0	516.388	0.524136	0.524441	-0.0348854	3	0.0430472	11	0	14.6026	-1.82953e-05
2	0	0	0	0	0	518.988	0.511134	0.511453	-0.0361747	3	0.0429569	11	0	17.203	-1.85017e-05
2	0	0	1	0	0	521.589	0.498131	0.498458	-0.0372738	3	0.0428632	11	0	19.8036	-1.85795e-05
2	0	0	1	0	0	524.189	0.485129	0.485397	-0.038408	3	0.0427666	11	0	22.404	-1.86431e-05
2	0	0	1	0	0	526.789	0.472127	0.472482	-0.0397224	3	0.0426669	11	0	25.0044	-1.87681e-05
2	0	0	0	0	0	529.39	0.459124	0.459431	-0.0408608	3	0.0425639	11	0	27.605	-1.87727e-05
2	1	0	0	0	1	531.865	0.453273	0.453576	0.0238026	4	0.042497	11	0	0.4	1.07963e-05
2	1	0	1	0	1	534.466	0.466276	0.466591	0.0289907	4	0.0425707	11	0	3.0006	1.35268e-05
2	1	0	1	0	1	537.066	0.479278	0.479599	0.0297928	4	0.0426494	11	0	5.601	1.42886e-05
2	1	0	1	0	1	539.666	0.49228	0.492589	0.03003	4	0.0427293	11	0	8.2014	1.47925e-05
2	1	0	0	0	1	542.267	0.505283	0.505616	0.0303338	4	0.0428097	11	0	10.802	1.53373e-05
2	1	0	0	0	1	544.867	0.518285	0.518599	0.0313313	4	0.0428904	11	0	13.4024	1.62484e-05
2	1	0	0	0	1	547.468	0.531287	0.531576	0.032088	4	0.042972	11	0	16.0028	1.70572e-05
2	1	0	1	0	1	550.068	0.54429	0.544605	0.0330654	4	0.0430553	11	0	18.6034	1.80076e-05
2	1	0	1	0	1	552.669	0.557292	0.557599	0.0351638	4	0.0431423	11	0	21.2038	1.96073e-05
2	1	0	1	0	1	555.269	0.570294	0.570595	0.0388812	4	0.0432362	11	0	23.8043	2.21854e-05
2	1	0	0	0	1	557.87	0.583297	0.583618	0.0450081	4	0.0433425	11	0	26.4048	2.62676e-05
2	1	0	0	0	1	560.47	0.596299	0.596598	0.0553585	4	0.0434706	11	0	29.0052	3.30268e-05
2	1	0	1	0	1	563.071	0.609302	0.609679	0.0745737	4	0.0436363	11	0	31.6058	4.5466e-05
2	1	0	1	0	1	565.671	0.622304	0.622627	0.10534	4	0.0438659	11	0	34.2062	6.55876e-05
2	1	0	1	0	1	568.272	0.635306	0.635647	0.156728	4	0.0442015	11	0	36.8066	9.96235e-05
2	1	0	0	0	1	570.872	0.648309	0.648633	0.237683	4	0.0447077	11	0	39.4072	0.000154169
2	1	0	0	0	1	573.473	0.661311	0.661662	0.358899	4	0.045476	11	0	42.0076	0.00023747
2	1	0	0	0	1	576.073	0.674313	0.674647	0.52964	4	0.0466233	11	0	44.608	0.00035732
2	1	0	1	0	1	578.674	0.687316	0.687635	0.75164	4	0.0482817	11	0	47.2086	0.000516854
2	1	0	1	0	1	581.205	0.699993	0.700277	1.01895	4	0.0505135	11	0	49.7404	0.000713548
2	1	0	1	0	1	583.671	0.687666	0.687997	0.735879	4	0.0526435	11	0	52.2058	0.000506282
2	1	0	1	0	1	586.271	0.674663	0.674935	0.501279	4	0.0542328	11	0	54.8063	0.000338331
2	1	0	0	0	1	588.872	0.661661	0.661944	0.323827	4	0.0552897	11	0	57.4068	0.000214355
2	1	0	0	0	1	591.472	0.648659	0.648919	0.193763	4	0.0559503	11	0	60.0072	0.000125737
2	1	0	1	0	1	594.073	0.635656	0.635977	0.106375	4	0.0563335	11	0	62.6078	6.7652e-05
2	1	0	1	0	1	596.673	0.622654	0.622902	0.05109	4	0.0565341	11	0	65.2082	3.18241e-05
2	1	0	1	0	1	599.274	0.609652	0.609987	0.0172909	4	0.0566207	11	0	67.8086	1.05472e-05
2	0	0	0	0	1	601.874	0.596649	0.597014	-0.0030767	4	0.0566376	11	0	0.4002	-1.83683e-06
2	0	0	0	0	1	604.475	0.583647	0.583989	-0.0146045	4	0.0566124	11	0	3.0006	-8.52886e-06
2	0	0	0	0	1	607.075	0.570645	0.570977	-0.0221381	4	0.0565617	11	0	5.601	-1.26404e-05
2	0	0	1	0	1	609.676	0.557642	0.55799	-0.0269902	4	0.0564951	11	0	8.2016	-1.50603e-05
2	0	0	1	0	1	612.276	0.54464	0.544952	-0.0302112	4	0.0564186	11	0	10.802	-1.64637e-05
2	0	0	0	0	1	614.877	0.531637	0.531964	-0.0322076	4	0.0563354	11	0	13.4026	-1.71333e-05
2	0	0	0	0	1	617.477	0.518635	0.518925	-0.0336179	4	0.0562476	11	0	16.003	-1.74451e-05
2	0	0	0	0	1	620.077	0.505633	0.505952	-0.0350279	4	0.0561561	11	0	18.6034	-1.77224e-05
2	0	0	1	0	1	622.678	0.49263	0.492918	-0.0362933	4	0.0560614	11	0	21.204	-1.78896e-05
2	0	0	1	0	1	625.278	0.479628	0.479957	-0.0376645	4	0.0559638	11	0	23.8044	-1.80774e-05
2	0	0	1	0	1	627.879	0.466626	0.46691	-0.0393324	4	0.055863	11	0	26.4048	-1.83647e-05
2	0	0	0	0	1	630.479	0.453623	0.453917	-0.0406375	4	0.0557587	11	0	29.0054	-1.8446e-05
2	1	0	0	0	0	632.954	0.458774	0.459096	0.0272027	5	0.0557661	11	0	1.5002	1.24887e-05
2	1	0	1	0	0	635.555	0.471777	0.472081	0.0295965	5	0.0558427	11	0	4.1008	1.3972e-05
2	1	0	1	0	0	638.155	0.484779	0.485094	0.0304073	5	0.0559217	11	0	6.7012	1.47504e-05
2	1	0	1	0	0	640.756	0.497781	0.498086	0.0312512	5	0.0560013	11	0	9.3016	1.55658e-05
2	1	0	0	0	0	643.356	0.510784	0.511068	0.0315183	5	0.0560812	11	0	11.9022	1.6108e-05
2	1	0	0	0	0	645.957	0.523786	0.524114	0.0316822	5	0.0561615	11	0	14.5026	1.66051e-05
2	1	0	0	0	0	648.557	0.536788	0.537033	0.0316161	5	0.0562431	11	0	17.103	1.69789e-05
2	1	0	1	0	0	651.158	0.549791	0.550098	0.0322406	5	0.0563269	11	0	19.7036	1.77355e-05
2	1	0	1	0	0	653.758	0.562793	0.563094	0.0345598	5	0.0564152	11	0	22.304	1.94604e-05
2	1	0	1	0	0	656.359	0.575796	0.576112	0.0391089	5	0.0565122	11	0	24.9045	2.25311e-05
2	1	0	0	0	0	658.959	0.588798	0.589086	0.0477629	5	0.0566246	11	0	27.505	2.81364e-05
2	1	0	0	0	0	661.56	0.6018	0.602092	0.0598376	5	0.0567635	11	0	30.1054	3.60277e-05
2	1	0	1	0	0	664.16	0.614803	0.615134	0.082784	5	0.0569483	11	0	32.706	5.09233e-05
2	1	0	1	0	0	666.761	0.627805	0.628087	0.120651	5	0.0572102	11	0	35.3064	7.57795e-05
2	1	0	1	0	0	669.361	0.640807	0.64114	0.181592	5	0.0575986	11	0	37.9068	0.000116426
2	1	0	0	0	0	671.962	0.65381	0.654114	0.278983	5	0.0581892	11	0	40.5074	0.000182487
2	1	0	0	0	0	674.562	0.666812	0.667094	0.417784	5	0.0590834	11	0	43.1078	0.000278702
2	1	0	1	0	0	677.162	0.679815	0.68007	0.605272	5	0.0604066	11	0	45.7083	0.000411627
2	1	0	1	0	0	679.763	0.692817	0.69309	0.849469	5	0.0622891	11	0	48.3088	0.000588758
2	1	0	1	0	0	682.16	0.695167	0.695483	0.881631	5	0.0645222	11	0	50.7056	0.000613159
2	1	0	1	0	0	684.76	0.682165	0.68252	0.620113	5	0.0664587	11	0	53.306	0.00042324
2	1	0	1	0	0	687.361	0.669162	0.669535	0.412042	5	0.0677857	11	0	55.9065	0.000275877
2	1	0	0	0	0	689.961	0.65616	0.656505	0.256707	5	0.0686433	11	0	58.507	0.000168529
2	1	0	0	0	0	692.562	0.643158	0.643508	0.149323	5	0.0691608	11	0	61.1074	9.60905e-05
2	1	0	1	0	0	695.162	0.630155	0.630482	0.0772218	5	0.0694485	11	0	63.708	4.86869e-05
2	1	0	1	0	0	697.763	0.617153	0.617529	0.0345348	5	0.0695891	11	0	66.3084	2.13262e-05
2	1	0	1	0	0	700.363	0.604151	0.604532	0.00600677	5	0.0696387	11	0	68.9088	3.63129e-06
2	0	0	0	0	0	702.964	0.591148	0.591437	-0.00851616	5	0.0696333	11	0	1.5004	-5.03677e-06
2	0	0	0	0	0	705.564	0.578146	0.578439	-0.0187638	5	0.069595	11	0	4.1008	-1.08537e-05
2	0	0	0	0	0	708.164	0.565144	0.565438	-0.0260299	5	0.0695364	11	0	6.7012	-1.47183e-05
2	0	0	1	0	0	710.765	0.552141	0.552482	-0.0283209	5	0.0694652	11	0	9.3018	-1.56468e-05
2	0	0	1	0	0	713.365	0.539139	0.539425	-0.0321826	5	0.0693859	11	0	11.9022	-1.73601e-05
2	0	0	1	0	0	715.966	0.526137	0.52649	-0.0338687	5	0.069301	11	0	14.5027	-1.78315e-05
2	0	0	0	0	0	718.566	0.513134	0.513416	-0.0339656	5	0.0692121	11	0	17.1032	-1.74385e-05
2	0	0	0	0	0	721.167	0.500132	0.500485	-0.0370018	5	0.0691196	11	0	19.7036	-1.85188e-05
2	0	0	1	0	0	723.767	0.487129	0.487459	-0.0368355	5	0.069024	11	0	22.3042	-1.79558e-05
2	0	0	1	0	0	726.368	0.474127	0.474427	-0.0382433	5	0.0689256	11	0	24.9046	-1.81436e-05
2	0	0	1	0	0	728.968	0.461125	0.461427	-0.0407784	5	0.0688237	11	0	27.505	-1.88162e-05
2	1	0	0	0	1	731.443	0.451273	0.451561	0.0131725	6	0.0687331	11	0	0.000000000000000E+000	5.94818e-06
2	1	0	0	0	1	734.044	0.464275	0.464601	0.0287188	6	0.0688028	11	0	2.6004	1.33428e-05
2	1	0	1	0	1	736.644	0.477278	0.477589	0.0309787	6	0.0688807	11	0	5.201	1.47951e-05
2	1	0	1	0	1	739.245	0.49028	0.490554	0.0295293	6	0.0689598	11	0	7.8014	1.44857e-05
2	1	0	1	0	1	741.845	0.503282	0.503608	0.0309927	6	0.0690393	11	0	10.4018	1.56082e-05
2	1	0	0	0	1	744.446	0.516285	0.51658	0.0306309	6	0.0691191	11	0	13.0024	1.58233e-05
2	1	0	0	0	1	747.046	0.529287	0.52963	0.0304153	6	0.0691994	11	0	15.6028	1.61088e-05
2	1	0	0	0	1	749.647	0.542289	0.542586	0.0326836	6	0.0692812	11	0	18.2032	1.77337e-05
2	1	0	1	0	1	752.247	0.555292	0.555623	0.033172	6	0.0693661	11	0	20.8038	1.84311e-05
2	1	0	1	0	1	754.848	0.568294	0.568591	0.0360982	6	0.0694569	11	0	23.4042	2.05251e-05
2	1	0	1	0	1	757.448	0.581296	0.581664	0.0427344	6	0.0695584	11	0	26.0047	2.4857e-05
2	1	0	0	0	1	760.049	0.594299	0.594601	0.050551	6	0.0696785	11	0	28.6052	3.00577e-05
2	1	0	0	0	1	762.649	0.607301	0.607604	0.0674968	6	0.0698312	11	0	31.2056	4.10113e-05
2	1	0	1	0	1	765.25	0.620304	0.620607	0.0960311	6	0.07004	11	0	33.8062	5.95975e-05
2	1	0	1	0	1	767.85	0.633306	0.633624	0.140404	6	0.0703424	11	0	36.4066	8.89636e-05
2	1	0	1	0	1	770.45	0.646308	0.646583	0.214937	6	0.0707967	11	0	39.007	0.000138974
2	1	0	0	0	1	773.051	0.659311	0.659613	0.325616	6	0.0714892	11	0	41.6076	0.00021478
2	1	0	0	0	1	775.651	0.672313	0.672604	0.484669	6	0.0725327	11	0	44.208	0.000325991
2	1	0	0	0	1	778.252	0.685315	0.685567	0.699124	6	0.0740595	11	0	46.8084	0.000479296
2	1	0	1	0	1	780.852	0.698318	0.698553	0.957378	6	0.0762002	11	0	49.409	0.000668779
2	1	0	1	0	1	783.249	0.689666	0.689972	0.754433	6	0.0783057	11	0	51.8058	0.000520537
2	1	0	1	0	1	785.85	0.676664	0.676942	0.516818	6	0.0799423	11	0	54.4062	0.000349856
2	1	0	1	0	1	788.45	0.663662	0.663959	0.332133	6	0.0810355	11	0	57.0067	0.000220523
2	1	0	0	0	1	791.051	0.650659	0.650958	0.201076	6	0.0817201	11	0	59.6072	0.000130892
2	1	0	0	0	1	793.651	0.637657	0.637968	0.112232	6	0.0821191	11	0	62.2076	7.16007e-05
2	1	0	1	0	1	796.252	0.624654	0.624966	0.0541288	6	0.0823298	11	0	64.8082	3.38287e-05
2	1	0	1	0	1	798.852	0.611652	0.611953	0.0205637	6	0.0824223	11	0	67.4086	1.2584e-05
2	0	0	1	0	1	801.452	0.59865	0.59901	-0.00239746	6	0.0824427	11	0	0.2	-1.4361e-06
2	0	0	0	0	1	804.053	0.585647	0.58598	-0.0136372	6	0.0824201	11	0	2.8006	-7.99114e-06
2	0	0	0	0	1	806.653	0.572645	0.572973	-0.0229815	6	0.0823712	11	0	5.401	-1.31678e-05
2	0	0	0	0	1	809.254	0.559643	0.55997	-0.0268484	6	0.0823063	11	0	8.0014	-1.50343e-05
2	0	0	1	0	1	811.854	0.54664	0.546981	-0.0305497	6	0.0822311	11	0	10.602	-1.67101e-05
2	0	0	1	0	1	814.455	0.533638	0.533941	-0.0322659	6	0.0821493	11	0	13.2024	-1.72281e-05
2	0	0	0	0	1	817.055	0.520635	0.520964	-0.0341166	6	0.0820625	11	0	15.803	-1.77735e-05
2	0	0	0	0	1	819.656	0.507633	0.507958	-0.0352955	6	0.0819723	11	0	18.4034	-1.79286e-05
2	0	0	0	0	1	822.256	0.494631	0.49492	-0.0357225	6	0.0818787	11	0	21.0038	-1.76798e-05
2	0	0	1	0	1	824.857	0.481628	0.481939	-0.0383785	6	0.0817823	11	0	23.6044	-1.84961e-05
2	0	0	1	0	1	827.457	0.468626	0.46894	-0.0391679	6	0.0816829	11	0	26.2048	-1.83674e-05
2	0	0	1	0	1	830.058	0.455624	0.455955	-0.0392818	6	0.0815801	11	0	28.8052	-1.79107e-05
2	1	0	0	0	0	832.533	0.456774	0.45705	0.0278203	7	0.0815603	11	0	1.1002	1.27153e-05
2	1	0	0	0	0	835.133	0.469776	0.470066	0.0291565	7	0.0816359	11	0	3.7006	1.37055e-05
2	1	0	1	0	0	837.734	0.482779	0.483093	0.03021	7	0.0817146	11	0	6.3012	1.45942e-05
2	1	0	1	0	0	840.334	0.495781	0.49609	0.0313179	7	0.0817939	11	0	8.9016	1.55365e-05
2	1	0	1	0	0	842.935	0.508783	0.509076	0.0303587	7	0.0818734	11	0	11.502	1.54549e-05
2	1	0	0	0	0	845.535	0.521786	0.52212	0.0300016	7	0.0819532	11	0	14.1026	1.56644e-05
2	1	0	0	0	0	848.136	0.534788	0.535074	0.0320118	7	0.0820339	11	0	16.703	1.71287e-05
2	1	0	0	0	0	850.736	0.54779	0.548126	0.0316496	7	0.0821163	11	0	19.3034	1.7348e-05
2	1	0	1	0	0	853.337	0.560793	0.561127	0.0341116	7	0.0822029	11	0	21.904	1.91409e-05
2	1	0	1	0	0	855.937	0.573795	0.574089	0.0381536	7	0.0822968	11	0	24.5044	2.19036e-05
2	1	0	1	0	0	858.537	0.586797	0.587104	0.0441772	7	0.082404	11	0	27.1049	2.59366e-05
2	1	0	0	0	0	861.138	0.5998	0.600102	0.0575059	7	0.0825344	11	0	29.7054	3.45094e-05
2	1	0	0	0	0	863.738	0.612802	0.61315	0.0754512	7	0.0827048	11	0	32.3058	4.62629e-05
2	1	0	1	0	0	866.339	0.625805	0.626128	0.111096	7	0.0829438	11	0	34.9064	6.95603e-05
2	1	0	1	0	0	868.939	0.638807	0.639151	0.165688	7	0.0832964	11	0	37.5068	0.0001059
2	1	0	1	0	0	871.54	0.651809	0.652148	0.250124	7	0.083832	11	0	40.1072	0.000163118
2	1	0	0	0	0	874.14	0.664812	0.665141	0.379478	7	0.0846458	11	0	42.7078	0.000252407
2	1	0	0	0	0	876.741	0.677814	0.678122	0.56338	7	0.0858641	11	0	45.3082	0.000382041
2	1	0	1	0	0	879.341	0.690817	0.691141	0.795732	7	0.0876173	11	0	47.9087	0.000549963
2	1	0	0	0	0	881.738	0.697168	0.697486	0.904734	7	0.0897796	11	0	50.3054	0.00063104
2	1	0	1	0	0	884.339	0.684165	0.684455	0.640618	7	0.0917791	11	0	52.906	0.000438474
2	1	0	1	0	0	886.939	0.671163	0.671477	0.427617	7	0.0931556	11	0	55.5064	0.000287135
2	1	0	1	0	0	889.539	0.65816	0.658468	0.266652	7	0.0940497	11	0	58.1069	0.000175582
2	1	0	0	0	0	892.14	0.645158	0.645459	0.15683	7	0.0945925	11	0	60.7074	0.000101227
2	1	0	0	0	0	894.74	0.632156	0.632406	0.0829572	7	0.094896	11	0	63.3078	5.24627e-05
2	1	0	1	0	0	897.341	0.619153	0.619411	0.0359444	7	0.0950461	11	0	65.9084	2.22643e-05
2	1	0	1	0	0	899.941	0.606151	0.606399	0.00928346	7	0.0951013	11	0	68.5088	5.62948e-06
2	0	0	1	0	0	902.542	0.593149	0.593463	-0.00861431	7	0.0950995	11	0	1.4002	-5.11227e-06
2	0	0	0	0	0	905.142	0.580146	0.580473	-0.0189906	7	0.0950638	11	0	4.0008	-1.10235e-05
2	0	0	0	0	0	907.743	0.567144	0.567466	-0.023584	7	0.0950072	11	0	6.6012	-1.33831e-05
2	0	0	1	0	0	910.343	0.554141	0.554449	-0.0291497	7	0.0949375	11	0	9.2017	-1.6162e-05
2	0	0	1	0	0	912.944	0.541139	0.541474	-0.0313062	7	0.0948595	11	0	11.8022	-1.69515e-05
2	0	0	1	0	0	915.544	0.528137	0.528448	-0.0317914	7	0.0947757	11	0	14.4026	-1.68001e-05
2	0	0	1	0	0	918.145	0.515135	0.515421	-0.0352195	7	0.0946878	11	0	17.0031	-1.81529e-05
2	0	0	0	0	0	920.745	0.502132	0.502439	-0.0352118	7	0.0945966	11	0	19.6036	-1.76918e-05
2	0	0	0	0	0	923.346	0.48913	0.489426	-0.0364569	7	0.0945024	11	0	22.204	-1.7843e-05
2	0	0	1	0	0	925.946	0.476127	0.476527	-0.0386423	7	0.0944052	11	0	24.8046	-1.84141e-05
2	0	0	1	0	0	928.547	0.463125	0.463439	-0.0386254	7	0.0943048	11	0	27.405	-1.79005e-05
2	0	0	1	0	0	931.132	0.450198	0.450504	-0.0399274	7	0.0942016	11	0	29.9904	-1.79875e-05
2	1	0	0	0	1	933.622	0.462275	0.462616	0.0283731	8	0.0942571	11	0	2.2004	1.31259e-05
2	1	0	0	0	1	936.223	0.475277	0.4756	0.0293412	8	0.0943344	11	0	4.8008	1.39547e-05
2	1	0	1	0	1	938.823	0.48828	0.488552	0.030967	8	0.0944133	11	0	7.4014	1.5129e-05
2	1	0	1	0	1	941.424	0.501282	0.50159	0.0312033	8	0.0944923	11	0	10.0018	1.56513e-05
2	1	0	1	0	1	944.024	0.514284	0.514607	0.0301481	8	0.0945717	11	0	12.6022	1.55144e-05
2	1	0	0	0	1	946.625	0.527287	0.527624	0.0312988	8	0.0946516	11	0	15.2028	1.6514e-05
2	1	0	0	0	1	949.225	0.540289	0.540592	0.0310624	8	0.0947327	11	0	17.8032	1.67921e-05
2	1	0	0	0	1	951.825	0.553291	0.553599	0.0330249	8	0.0948162	11	0	20.4036	1.82826e-05
2	1	0	1	0	1	954.426	0.566294	0.566645	0.0359167	8	0.0949049	11	0	23.0042	2.0352e-05
2	1	0	1	0	1	957.026	0.579296	0.57959	0.0400021	8	0.0950026	11	0	25.6046	2.31848e-05
2	1	0	1	0	1	959.627	0.592298	0.592686	0.0482022	8	0.095117	11	0	28.2051	2.85688e-05
2	1	0	0	0	1	962.227	0.605301	0.605567	0.0627696	8	0.0952601	11	0	30.8056	3.80112e-05
2	1	0	0	0	1	964.828	0.618303	0.618589	0.088209	8	0.0954528	11	0	33.406	5.45651e-05
2	1	0	1	0	1	967.428	0.631306	0.631648	0.127756	8	0.0957289	11	0	36.0066	8.06967e-05
2	1	0	1	0	1	970.029	0.644308	0.644567	0.195726	8	0.0961429	11	0	38.607	0.000126159
2	1	0	1	0	1	972.629	0.65731	0.657639	0.296833	8	0.0967741	11	0	41.2074	0.000195209
2	1	0	0	0	1	975.23	0.670313	0.670627	0.446064	8	0.0977321	11	0	43.808	0.000299142
2	1	0	0	0	1	977.83	0.683315	0.683634	0.648243	8	0.0991448	11	0	46.4084	0.000443161
2	1	0	0	0	1	980.431	0.696317	0.696645	0.897739	8	0.101147	11	0	49.0088	0.000625405
2	1	0	0	0	1	982.827	0.691667	0.69198	0.78201	8	0.103288	11	0	51.4056	0.000541135
2	1	0	1	0	1	985.428	0.678664	0.678981	0.537779	8	0.104991	11	0	54.0062	0.000365142
2	1	0	1	0	1	988.028	0.665662	0.666008	0.35123	8	0.106134	11	0	56.6066	0.000233922
2	1	0	1	0	1	990.629	0.65266	0.652983	0.212695	8	0.106853	11	0	59.2071	0.000138886
2	1	0	0	0	1	993.229	0.639657	0.639936	0.119079	8	0.107275	11	0	61.8076	7.62032e-05
2	1	0	0	0	1	995.83	0.626655	0.626937	0.0586897	8	0.107499	11	0	64.408	3.67947e-05
2	1	0	1	0	1	998.43	0.613652	0.614016	0.0227306	8	0.1076	11	0	67.0086	1.3957e-05
2	0	0	1	0	1	1001.03	0.60065	0.600969	-0.00109593	8	0.107626	11	0	0.000000000000000E+000	-6.58623e-07
2	0	0	1	0	1	1003.63	0.587648	0.587931	-0.0126516	8	0.107607	11	0	2.6004	-7.43827e-06
2	0	0	0	0	1	1006.23	0.574645	0.574963	-0.0222977	8	0.10756	11	0	5.201	-1.28204e-05
2	0	0	0	0	1	1008.83	0.561643	0.561946	-0.0257801	8	0.107497	11	0	7.8014	-1.4487e-05
2	0	0	0	0	1	1011.43	0.548641	0.548958	-0.0302946	8	0.107423	11	0	10.4018	-1.66305e-05
2	0	0	1	0	1	1014.03	0.535638	0.535924	-0.0317079	8	0.107343	11	0	13.0024	-1.6993e-05
2	0	0	1	0	1	1016.63	0.522636	0.522973	-0.0338153	8	0.107257	11	0	15.6028	-1.76845e-05
2	0	0	0	0	1	1019.23	0.509633	0.510003	-0.0349027	8	0.107168	11	0	18.2034	-1.78005e-05
2	0	0	0	0	1	1021.83	0.496631	0.496958	-0.0361811	8	0.107076	11	0	20.8038	-1.79805e-05
2	0	0	0	0	1	1024.43	0.483629	0.483951	-0.0369579	8	0.10698	11	0	23.4042	-1.78858e-05
2	0	0	1	0	1	1027.04	0.470626	0.470975	-0.0383882	8	0.106882	11	0	26.0048	-1.80799e-05
2	0	0	1	0	1	1029.64	0.457624	0.457925	-0.0395927	8	0.10678	11	0	28.6052	-1.81305e-05
2	1	0	1	0	0	1032.11	0.454774	0.455076	0.0270553	9	0.106734	11	0	0.7	1.23122e-05
2	1	0	0	0	0	1034.71	0.467776	0.468148	0.0287886	9	0.106808	11	0	3.3006	1.34773e-05
2	1	0	0	0	0	1037.31	0.480778	0.481071	0.0313181	9	0.106886	11	0	5.901	1.50662e-05
2	1	0	1	0	0	1039.91	0.493781	0.494158	0.0295353	9	0.106965	11	0	8.5016	1.45951e-05
2	1	0	1	0	0	1042.51	0.506783	0.507122	0.0311089	9	0.107044	11	0	11.102	1.5776e-05
2	1	0	1	0	0	1045.11	0.519785	0.519977	0.0296899	9	0.107123	11	0	13.7024	1.54381e-05
2	1	0	0	0	0	1047.71	0.532788	0.533077	0.0314326	9	0.107204	11	0	16.303	1.6756e-05
2	1	0	0	0	0	1050.31	0.54579	0.546128	0.0320324	9	0.107285	11	0	18.9034	1.74938e-05
2	1	0	0	0	0	1052.91	0.558792	0.559059	0.0328529	9	0.10737	11	0	21.5038	1.83667e-05
2	1	0	1	0	0	1055.52	0.571795	0.57207	0.0376168	9	0.107462	11	0	24.1044	2.15194e-05
2	1	0	1	0	0	1058.12	0.584797	0.585093	0.0420446	9	0.107565	11	0	26.7048	2.46e-05
2	1	0	1	0	0	1060.72	0.597799	0.598154	0.0537335	9	0.107688	11	0	29.3053	3.21409e-05
2	1	0	0	0	0	1063.32	0.610802	0.611093	0.0698695	9	0.107847	11	0	31.9058	4.26967e-05
2	1	0	0	0	0	1065.92	0.623804	0.624069	0.100978	9	0.108067	11	0	34.5062	6.30172e-05
2	1	0	1	0	0	1068.52	0.636807	0.637096	0.15164	9	0.10839	11	0	37.1068	9.6609e-05
2	1	0	1	0	0	1071.12	0.649809	0.650062	0.229275	9	0.108878	11	0	39.7072	0.000149043
2	1	0	1	0	0	1073.72	0.662811	0.663134	0.350608	9	0.109623	11	0	42.3076	0.0002325
2	1	0	0	0	0	1076.32	0.675814	0.676147	0.520605	9	0.110744	11	0	44.9082	0.000352005
2	1	0	0	0	0	1078.92	0.688816	0.689184	0.739888	9	0.112373	11	0	47.5086	0.000509919
2	1	0	0	0	0	1081.32	0.699168	0.699458	0.94013	9	0.114436	11	0	49.9054	0.000657581
2	1	0	0	0	0	1083.92	0.686166	0.686491	0.66684	9	0.116513	11	0	52.5058	0.00045778
2	1	0	1	0	0	1086.52	0.673163	0.673485	0.446112	9	0.117945	11	0	55.1064	0.00030045
2	1	0	1	0	0	1089.12	0.660161	0.660434	0.283683	9	0.118883	11	0	57.7068	0.000187354
2	1	0	1	0	0	1091.72	0.647158	0.647418	0.165392	9	0.119455	11	0	60.3073	0.000107078
2	1	0	0	0	0	1094.32	0.634156	0.634451	0.0874879	9	0.119777	11	0	62.9078	5.55068e-05
2	1	0	0	0	0	1096.92	0.621154	0.621409	0.0407706	9	0.119939	11	0	65.5082	2.53352e-05
2	1	0	1	0	0	1099.52	0.608151	0.608409	0.00979263	9	0.120002	11	0	68.1088	5.95793e-06
2	0	0	1	0	0	1102.12	0.595149	0.595464	-0.00664725	9	0.120004	11	0	1.0002	-3.95819e-06
2	0	0	1	0	0	1104.72	0.582147	0.582523	-0.0173011	9	0.119971	11	0	3.6006	-1.00783e-05
2	0	0	0	0	0	1107.32	0.569144	0.569475	-0.0248709	9	0.119917	11	0	6.2012	-1.41633e-05
2	0	0	0	0	0	1109.92	0.556142	0.556487	-0.0272442	9	0.119848	11	0	8.8016	-1.51611e-05
2	0	0	1	0	0	1112.52	0.543139	0.543407	-0.0310265	9	0.119772	11	0	11.4021	-1.686e-05
2	0	0	1	0	0	1115.12	0.530137	0.530463	-0.0332774	9	0.119689	11	0	14.0026	-1.76524e-05
2	0	0	1	0	0	1117.72	0.517135	0.517387	-0.0332284	9	0.119602	11	0	16.603	-1.7192e-05
2	0	0	1	0	0	1120.32	0.504133	0.504426	-0.0359616	9	0.119512	11	0	19.2035	-1.814e-05
2	0	0	0	0	0	1122.92	0.49113	0.491389	-0.0363796	9	0.119419	11	0	21.804	-1.78765e-05
2	0	0	0	0	0	1125.52	0.478128	0.478442	-0.0369862	9	0.119322	11	0	24.4044	-1.76957e-05
2	0	0	1	0	0	1128.12	0.465125	0.465413	-0.0394488	9	0.119223	11	0	27.005	-1.836e-05
2	0	0	1	0	0	1130.73	0.452123	0.45251	-0.0394203	9	0.11912	11	0	29.6054	-1.78381e-05
2	1	0	1	0	1	1133.2	0.460275	0.460659	0.0285635	10	0.119148	11	0	1.8002	1.31581e-05
2	1	0	0	0	1	1135.8	0.473277	0.473659	0.0291267	10	0.119225	11	0	4.4008	1.37961e-05
2	1	0	0	0	1	1138.4	0.486279	0.486573	0.0299255	10	0.119303	11	0	7.0012	1.45609e-05
2	1	0	1	0	1	1141	0.499282	0.499558	0.0294544	10	0.119382	11	0	9.6018	1.47142e-05
2	1	0	1	0	1	1143.6	0.512284	0.512542	0.0313227	10	0.119461	11	0	12.2022	1.60542e-05
2	1	0	1	0	1	1146.2	0.525286	0.525663	0.0303923	10	0.119541	11	0	14.8026	1.59761e-05
2	1	0	0	0	1	1148.8	0.538289	0.538649	0.0304648	10	0.119621	11	0	17.4032	1.64098e-05
2	1	0	0	0	1	1151.4	0.551291	0.551572	0.0331624	10	0.119704	11	0	20.0036	1.82914e-05
2	1	0	0	0	1	1154	0.564293	0.564599	0.0343991	10	0.119791	11	0	22.604	1.94217e-05
2	1	0	1	0	1	1156.6	0.577296	0.577635	0.0387777	10	0.119886	11	0	25.2046	2.23994e-05
2	1	0	1	0	1	1159.21	0.590298	0.5906	0.0464407	10	0.119995	11	0	27.805	2.74279e-05
2	1	0	1	0	1	1161.81	0.6033	0.603618	0.0585471	10	0.12013	11	0	30.4055	3.53401e-05
2	1	0	0	0	1	1164.41	0.616303	0.616643	0.0811526	10	0.12031	11	0	33.006	5.00422e-05
2	1	0	0	0	1	1167.01	0.629305	0.629623	0.117541	10	0.120564	11	0	35.6064	7.40063e-05
2	1	0	1	0	1	1169.61	0.642308	0.642626	0.176987	10	0.120943	11	0	38.207	0.000113737
2	1	0	1	0	1	1172.21	0.65531	0.655599	0.27323	10	0.12152	11	0	40.8074	0.00017913
2	1	0	1	0	1	1174.81	0.668312	0.66863	0.410679	10	0.1224	11	0	43.4078	0.000274592
2	1	0	0	0	1	1177.41	0.681315	0.681589	0.603943	10	0.123709	11	0	46.0084	0.000411641
2	1	0	0	0	1	1180.01	0.694317	0.694632	0.845894	10	0.125581	11	0	48.6088	0.000587585
2	1	0	0	0	1	1182.41	0.693667	0.693996	0.808046	10	0.127722	11	0	51.0056	0.000560781
2	1	0	0	0	1	1185.01	0.680665	0.68095	0.56469	10	0.129494	11	0	53.606	0.000384526
2	1	0	1	0	1	1187.61	0.667662	0.667983	0.36833	10	0.130695	11	0	56.2066	0.000246038
2	1	0	1	0	1	1190.21	0.65466	0.654936	0.223878	10	0.131454	11	0	58.807	0.000146626
2	1	0	1	0	1	1192.81	0.641658	0.641915	0.127093	10	0.131903	11	0	61.4075	8.15831e-05
2	1	0	0	0	1	1195.41	0.628655	0.628934	0.0648742	10	0.132144	11	0	64.008	4.08016e-05
2	1	0	0	0	1	1198.01	0.615653	0.615968	0.0248787	10	0.132255	11	0	66.6084	1.53245e-05
2	1	0	1	0	1	1200.61	0.60265	0.602977	0.0012103	10	0.132288	11	0	69.209	7.29785e-07
2	0	0	1	0	1	1203.21	0.589648	0.590006	-0.0113453	10	0.132272	11	0	2.3004	-6.69378e-06
2	0	0	1	0	1	1205.81	0.576646	0.576975	-0.0209079	10	0.132228	11	0	4.9008	-1.20634e-05
2	0	0	0	0	1	1208.41	0.563643	0.563977	-0.0271025	10	0.132167	11	0	7.5014	-1.52852e-05
2	0	0	0	0	1	1211.01	0.550641	0.550928	-0.0301406	10	0.132095	11	0	10.1018	-1.66053e-05
2	0	0	0	0	1	1213.61	0.537639	0.537929	-0.0314683	10	0.132015	11	0	12.7022	-1.69277e-05
2	0	0	1	0	1	1216.21	0.524636	0.524939	-0.0321206	10	0.131931	11	0	15.3028	-1.68614e-05
2	0	0	1	0	1	1218.81	0.511634	0.511948	-0.0344002	10	0.131843	11	0	17.9032	-1.76111e-05
2	0	0	1	0	1	1221.41	0.498632	0.498983	-0.0363455	10	0.131751	11	0	20.5037	-1.81358e-05
2	0	0	0	0	1	1224.01	0.485629	0.485954	-0.0376846	10	0.131657	11	0	23.1042	-1.8313e-05
2	0	0	0	0	1	1226.61	0.472627	0.472944	-0.0379429	10	0.13156	11	0	25.7046	-1.79449e-05
2	0	0	1	0	1	1229.21	0.459624	0.459948	-0.0383345	10	0.131459	11	0	28.3052	-1.76319e-05
2	1	0	1	0	0	1231.69	0.452773	0.453086	0.0242886	11	0.131387	11	0	0.3	1.10048e-05
2	1	0	1	0	0	1234.29	0.465776	0.466063	0.0297226	11	0.13146	11	0	2.9005	1.38526e-05
2	1	0	0	0	0	1236.89	0.478778	0.479104	0.0292434	11	0.131537	11	0	5.501	1.40106e-05
2	1	0	0	0	0	1239.49	0.49178	0.492091	0.0295565	11	0.131616	11	0	8.1014	1.45445e-05
2	1	0	1	0	0	1242.09	0.504783	0.5051	0.0305307	11	0.131695	11	0	10.702	1.54211e-05
2	1	0	1	0	0	1244.69	0.517785	0.518085	0.0313822	11	0.131774	11	0	13.3024	1.62587e-05
2	1	0	1	0	0	1247.29	0.530787	0.531064	0.0309109	11	0.131854	11	0	15.9028	1.64156e-05
2	1	0	0	0	0	1249.89	0.54379	0.544128	0.0306848	11	0.131935	11	0	18.5034	1.66965e-05
2	1	0	0	0	0	1252.49	0.556792	0.557088	0.0323721	11	0.132018	11	0	21.1038	1.80341e-05
2	1	0	0	0	0	1255.09	0.569794	0.570076	0.0365247	11	0.132108	11	0	23.7042	2.08219e-05
2	1	0	1	0	0	1257.69	0.582797	0.583162	0.0420071	11	0.132208	11	0	26.3048	2.44969e-05
2	1	0	1	0	0	1260.29	0.595799	0.596102	0.0500696	11	0.132326	11	0	28.9052	2.98466e-05
2	1	0	1	0	0	1262.9	0.608801	0.609107	0.0654153	11	0.132475	11	0	31.5057	3.98449e-05
2	1	0	0	0	0	1265.5	0.621804	0.622166	0.0930536	11	0.13268	11	0	34.1062	5.78948e-05
2	1	0	0	0	0	1268.1	0.634806	0.635078	0.139163	11	0.132977	11	0	36.7066	8.83791e-05
2	1	0	1	0	0	1270.7	0.647809	0.648149	0.211265	11	0.133424	11	0	39.3072	0.000136931
2	1	0	1	0	0	1273.3	0.660811	0.661137	0.323167	11	0.13411	11	0	41.9076	0.000213658
2	1	0	1	0	0	1275.9	0.673813	0.67412	0.482245	11	0.135146	11	0	44.508	0.00032509
2	1	0	0	0	0	1278.5	0.686816	0.687131	0.696699	11	0.136668	11	0	47.1086	0.000478723
2	1	0	0	0	0	1281.09	0.699768	0.700104	0.959185	11	0.138805	11	0	49.699	0.000671529
2	1	0	0	0	0	1283.5	0.688166	0.688459	0.694985	11	0.140783	11	0	52.1058	0.000478469
2	1	0	0	0	0	1286.1	0.675164	0.675524	0.472051	11	0.142289	11	0	54.7062	0.000318882
2	1	0	1	0	0	1288.7	0.662161	0.662473	0.298209	11	0.143278	11	0	57.3068	0.000197555
2	1	0	1	0	0	1291.3	0.649159	0.649471	0.177089	11	0.143886	11	0	59.9072	0.000115014
2	1	0	1	0	0	1293.9	0.636156	0.636479	0.0966273	11	0.144232	11	0	62.5077	6.15013e-05
2	1	0	0	0	0	1296.5	0.623154	0.623455	0.0446416	11	0.144408	11	0	65.1082	2.7832e-05
2	1	0	0	0	0	1299.1	0.610152	0.610438	0.0126192	11	0.14448	11	0	67.7086	7.70322e-06
2	0	0	1	0	0	1301.7	0.597149	0.597431	-0.00609902	11	0.144488	11	0	0.8002	-3.64374e-06
2	0	0	1	0	0	1304.3	0.584147	0.584484	-0.0160945	11	0.144458	11	0	3.4006	-9.40699e-06
2	0	0	1	0	0	1306.9	0.571145	0.571487	-0.022349	11	0.144406	11	0	6.001	-1.27722e-05
2	0	0	0	0	0	1309.5	0.558142	0.558464	-0.0272293	11	0.144339	11	0	8.6016	-1.52066e-05
2	0	0	0	0	0	1312.1	0.54514	0.545495	-0.0308566	11	0.144264	11	0	11.202	-1.68321e-05
2	0	0	1	0	0	1314.7	0.532137	0.53248	-0.0330612	11	0.144182	11	0	13.8025	-1.76044e-05
2	0	0	1	0	0	1317.3	0.519135	0.519465	-0.033125	11	0.144096	11	0	16.403	-1.72073e-05
2	0	0	1	0	0	1319.9	0.506133	0.50646	-0.0344051	11	0.144007	11	0	19.0034	-1.74248e-05
2	0	0	0	0	0	1322.5	0.493131	0.493502	-0.0360847	11	0.143914	11	0	21.604	-1.78079e-05
2	0	0	0	0	0	1325.1	0.480128	0.480422	-0.0377356	11	0.143819	11	0	24.2044	-1.8129e-05
2	0	0	0	0	0	1327.7	0.467126	0.467473	-0.039419	11	0.14372	11	0	26.8048	-1.84273e-05
2	0	0	1	0	0	1330.3	0.454123	0.454355	-0.0403133	11	0.143618	11	0	29.4054	-1.83165e-05
2	1	0	1	0	1	1332.78	0.458274	0.458586	0.0271422	12	0.14362	11	0	1.4002	1.2447e-05
2	1	0	1	0	1	1335.38	0.471277	0.471593	0.0299418	12	0.143695	11	0	4.0007	1.41203e-05
2	1	0	0	0	1	1337.98	0.484279	0.484611	0.0309545	12	0.143773	11	0	6.6012	1.50009e-05
2	1	0	0	0	1	1340.58	0.497281	0.497562	0.0305836	12	0.143852	11	0	9.2016	1.52172e-05
2	1	0	1	0	1	1343.18	0.510284	0.510623	0.0296918	12	0.143931	11	0	11.8022	1.51613e-05
2	1	0	1	0	1	1345.78	0.523286	0.523618	0.0296043	12	0.14401	11	0	14.4026	1.55014e-05
2	1	0	1	0	1	1348.38	0.536288	0.536629	0.0303292	12	0.14409	11	0	17.003	1.62755e-05
2	1	0	0	0	1	1350.98	0.549291	0.5496	0.031931	12	0.144171	11	0	19.6036	1.75493e-05
2	1	0	0	0	1	1353.58	0.562293	0.562578	0.034942	12	0.144257	11	0	22.204	1.96576e-05
2	1	0	0	0	1	1356.18	0.575295	0.57562	0.0385115	12	0.14435	11	0	24.8044	2.2168e-05
2	1	0	1	0	1	1358.78	0.588298	0.588634	0.0445694	12	0.144455	11	0	27.405	2.6235e-05
2	1	0	1	0	1	1361.38	0.6013	0.601616	0.0554372	12	0.144583	11	0	30.0054	3.3352e-05
2	1	0	0	0	1	1363.98	0.614303	0.614614	0.0746034	12	0.144751	11	0	32.606	4.58523e-05
2	1	0	0	0	1	1366.58	0.627305	0.627591	0.107753	12	0.144987	11	0	35.2064	6.76247e-05
2	1	0	0	0	1	1369.19	0.640307	0.640619	0.163551	12	0.145335	11	0	37.8068	0.000104774
2	1	0	1	0	1	1371.79	0.65331	0.653629	0.250263	12	0.145866	11	0	40.4074	0.000163579
2	1	0	1	0	1	1374.39	0.666312	0.666641	0.381364	12	0.146679	11	0	43.0078	0.000254233
2	1	0	1	0	1	1376.99	0.679314	0.679612	0.559733	12	0.147896	11	0	45.6082	0.000380401
2	1	0	0	0	1	1379.59	0.692317	0.692559	0.79601	12	0.149655	11	0	48.2088	0.000551284
2	1	0	0	0	1	1381.98	0.695667	0.695964	0.846891	12	0.151773	11	0	50.6056	0.000589405
2	1	0	0	0	1	1384.58	0.682665	0.682946	0.592509	12	0.153633	11	0	53.206	0.000404652
2	1	0	0	0	1	1387.18	0.669663	0.669956	0.388739	12	0.154894	11	0	55.8064	0.000260438
2	1	0	1	0	1	1389.79	0.65666	0.656939	0.240858	12	0.1557	11	0	58.407	0.000158229
2	1	0	1	0	1	1392.39	0.643658	0.643975	0.136791	12	0.156179	11	0	61.0074	8.80899e-05
2	1	0	1	0	1	1394.99	0.630656	0.630935	0.0692776	12	0.15644	11	0	63.6079	4.37096e-05
2	1	0	0	0	1	1397.59	0.617653	0.617986	0.0286814	12	0.156564	11	0	66.2084	1.77247e-05
2	1	0	0	0	1	1400.19	0.604651	0.604965	0.00463296	12	0.156603	11	0	68.8088	2.80278e-06
2	0	0	1	0	1	1402.79	0.591648	0.591965	-0.0105444	12	0.156591	11	0	2.0004	-6.24195e-06
2	0	0	1	0	1	1405.39	0.578646	0.578964	-0.02078	12	0.15655	11	0	4.6008	-1.20309e-05
2	0	0	1	0	1	1407.99	0.565644	0.565956	-0.0256214	12	0.156491	11	0	7.2012	-1.45006e-05
2	0	0	0	0	1	1410.59	0.552641	0.552997	-0.0280066	12	0.15642	11	0	9.8018	-1.54876e-05
2	0	0	0	0	1	1413.19	0.539639	0.539959	-0.031435	12	0.156341	11	0	12.4022	-1.69736e-05
2	0	0	0	0	1	1415.79	0.526637	0.526974	-0.0338467	12	0.156258	11	0	15.0026	-1.78363e-05
2	0	0	1	0	1	1418.39	0.513634	0.513928	-0.034793	12	0.15617	11	0	17.6032	-1.78811e-05
2	0	0	1	0	1	1420.99	0.500632	0.500961	-0.0347053	12	0.15608	11	0	20.2036	-1.7386e-05
2	0	0	0	0	1	1423.59	0.487629	0.48794	-0.0357292	12	0.155986	11	0	22.8042	-1.74337e-05
2	0	0	0	0	1	1426.19	0.474627	0.474931	-0.037522	12	0.155889	11	0	25.4046	-1.78204e-05
2	0	0	0	0	1	1428.79	0.461625	0.461937	-0.0394882	12	0.155789	11	0	28.005	-1.8241e-05
2	0	0	1	0	0	1431.27	0.450773	0.451094	0.0022162	13	0.155695	11	0	30.4802	9.99714e-07
2	1	0	1	0	0	1433.87	0.463775	0.464043	0.0282629	13	0.155762	11	0	2.5004	1.31152e-05
2	1	0	1	0	0	1436.47	0.476778	0.477122	0.0289861	13	0.155839	11	0	5.1009	1.38299e-05
2	1	0	0	0	0	1439.07	0.48978	0.490139	0.0295901	13	0.155918	11	0	7.7014	1.45033e-05
2	1	0	0	0	0	1441.67	0.502782	0.503093	0.0297989	13	0.155996	11	0	10.3018	1.49916e-05
2	1	0	1	0	0	1444.27	0.515785	0.5161	0.0305695	13	0.156075	11	0	12.9024	1.57769e-05
2	1	0	1	0	0	1446.87	0.528787	0.529118	0.0310825	13	0.156154	11	0	15.5028	1.64463e-05
2	1	0	1	0	0	1449.47	0.541789	0.542075	0.0316852	13	0.156233	11	0	18.1032	1.71757e-05
2	1	0	0	0	0	1452.07	0.554792	0.555119	0.0323981	13	0.156316	11	0	20.7038	1.79848e-05
2	1	0	0	0	0	1454.67	0.567794	0.568084	0.0346552	13	0.156404	11	0	23.3042	1.96871e-05
2	1	0	0	0	0	1457.27	0.580796	0.581142	0.038856	13	0.1565	11	0	25.9046	2.25808e-05
2	1	0	1	0	0	1459.87	0.593799	0.59408	0.0471057	13	0.156614	11	0	28.5052	2.79846e-05
2	1	0	1	0	0	1462.47	0.606801	0.607079	0.0608376	13	0.156755	11	0	31.1056	3.69332e-05
2	1	0	1	0	0	1465.07	0.619803	0.620124	0.0855708	13	0.156945	11	0	33.7061	5.30645e-05
2	1	0	0	0	0	1467.67	0.632806	0.633059	0.126877	13	0.15722	11	0	36.3066	8.03206e-05
2	1	0	0	0	0	1470.27	0.645808	0.646128	0.194687	13	0.157631	11	0	38.907	0.000125793
2	1	0	1	0	0	1472.88	0.658811	0.659126	0.298989	13	0.158263	11	0	41.5076	0.000197071
2	1	0	1	0	0	1475.48	0.671813	0.672108	0.450389	13	0.159226	11	0	44.108	0.00030271
2	1	0	1	0	0	1478.08	0.684815	0.685129	0.655213	13	0.160651	11	0	46.7084	0.000448905
2	1	0	0	0	0	1480.68	0.697818	0.698161	0.911344	13	0.162675	11	0	49.309	0.000636265
2	1	0	0	0	0	1483.07	0.690166	0.690413	0.730082	13	0.164718	11	0	51.7058	0.000504058
2	1	0	0	0	0	1485.67	0.677164	0.677454	0.498233	13	0.166297	11	0	54.3062	0.00033753
2	1	0	0	0	0	1488.27	0.664162	0.664481	0.31669	13	0.167344	11	0	56.9066	0.000210435
2	1	0	1	0	0	1490.87	0.651159	0.651401	0.187998	13	0.167991	11	0	59.5072	0.000122462
2	1	0	1	0	0	1493.48	0.638157	0.638473	0.10296	13	0.168363	11	0	62.1076	6.57369e-05
2	1	0	1	0	0	1496.08	0.625154	0.62548	0.04937	13	0.168555	11	0	64.7081	3.08799e-05
2	1	0	0	0	0	1498.68	0.612152	0.61246	0.0166321	13	0.168636	11	0	67.3086	1.01865e-05
2	1	0	0	0	0	1501.28	0.59915	0.599488	-0.00269537	13	0.168649	11	0	0.5	-1.61584e-06
2	0	0	1	0	0	1503.88	0.586147	0.58651	-0.014412	13	0.168623	11	0	3.1006	-8.45279e-06
2	0	0	1	0	0	1506.48	0.573145	0.573506	-0.0214858	13	0.168573	11	0	5.701	-1.23222e-05
2	0	0	1	0	0	1509.08	0.560143	0.560494	-0.0260342	13	0.168508	11	0	8.3014	-1.4592e-05
2	0	0	0	0	0	1511.68	0.54714	0.547494	-0.0295308	13	0.168434	11	0	10.902	-1.61679e-05
2	0	0	0	0	0	1514.28	0.534138	0.534423	-0.0319164	13	0.168353	11	0	13.5024	-1.70568e-05
2	0	0	1	0	0	1516.88	0.521135	0.521478	-0.0340567	13	0.168268	11	0	16.1029	-1.77598e-05
2	0	0	1	0	0	1519.48	0.508133	0.508489	-0.0354222	13	0.16818	11	0	18.7034	-1.80118e-05
2	0	0	1	0	0	1522.08	0.495131	0.495481	-0.0366454	13	0.168088	11	0	21.3038	-1.81571e-05
2	0	0	0	0	0	1524.68	0.482129	0.482475	-0.0377609	13	0.167993	11	0	23.9044	-1.82187e-05
2	0	0	0	0	0	1527.28	0.469126	0.46945	-0.0388198	13	0.167896	11	0	26.5048	-1.8224e-05
2	0	0	0	0	0	1529.88	0.456124	0.456449	-0.0396359	13	0.167795	11	0	29.1052	-1.80918e-05
2	1	0	1	0	1	1532.36	0.456274	0.456636	0.0263	14	0.167769	11	0	1.0002	1.20095e-05
2	1	0	1	0	1	1534.96	0.469276	0.469596	0.0287972	14	0.167843	11	0	3.6006	1.3523e-05
2	1	0	1	0	1	1537.56	0.482279	0.48261	0.0297929	14	0.167921	11	0	6.2011	1.43784e-05
2	1	0	0	0	1	1540.16	0.495281	0.495584	0.0305693	14	0.167999	11	0	8.8016	1.51496e-05
2	1	0	0	0	1	1542.76	0.508283	0.508622	0.0309569	14	0.168078	11	0	11.402	1.57454e-05
2	1	0	1	0	1	1545.36	0.521286	0.521582	0.0310028	14	0.168156	11	0	14.0026	1.61705e-05
2	1	0	1	0	1	1547.96	0.534288	0.534598	0.0308196	14	0.168236	11	0	16.603	1.64761e-05
2	1	0	1	0	1	1550.56	0.54729	0.547586	0.0312671	14	0.168316	11	0	19.2034	1.71214e-05
2	1	0	0	0	1	1553.16	0.560293	0.560615	0.0327142	14	0.168401	11	0	21.804	1.83401e-05
2	1	0	0	0	1	1555.76	0.573295	0.573616	0.0356229	14	0.168492	11	0	24.4044	2.04339e-05
2	1	0	0	0	1	1558.36	0.586298	0.586605	0.0414219	14	0.168594	11	0	27.0048	2.42983e-05
2	1	0	1	0	1	1560.96	0.5993	0.599609	0.0519143	14	0.168716	11	0	29.6054	3.11283e-05
2	1	0	1	0	1	1563.56	0.612302	0.612646	0.0703803	14	0.168874	11	0	32.2058	4.31182e-05
2	1	0	0	0	1	1566.16	0.625305	0.625612	0.100588	14	0.169094	11	0	34.8064	6.29288e-05
2	1	0	0	0	1	1568.76	0.638307	0.638631	0.151213	14	0.169416	11	0	37.4068	9.65693e-05
2	1	0	0	0	1	1571.36	0.651309	0.651582	0.2324	14	0.169906	11	0	40.0072	0.000151428
2	1	0	1	0	1	1573.96	0.664312	0.664641	0.355506	14	0.170658	11	0	42.6078	0.000236284
2	1	0	1	0	1	1576.57	0.677314	0.677611	0.527346	14	0.171792	11	0	45.2082	0.000357336
2	1	0	1	0	1	1579.17	0.690316	0.690625	0.753235	14	0.173447	11	0	47.8086	0.000520203
2	1	0	1	0	1	1581.56	0.697668	0.69794	0.88709	14	0.175516	11	0	50.2054	0.000619135
2	1	0	0	0	1	1584.16	0.684665	0.684951	0.622639	14	0.177461	11	0	52.806	0.000426477
2	1	0	0	0	1	1586.76	0.671663	0.671923	0.41117	14	0.178794	11	0	55.4064	0.000276275
2	1	0	0	0	1	1589.36	0.658661	0.65897	0.256937	14	0.179649	11	0	58.0068	0.000169313
2	1	0	1	0	1	1591.96	0.645658	0.645984	0.147905	14	0.180163	11	0	60.6074	9.5544e-05
2	1	0	1	0	1	1594.56	0.632656	0.632949	0.0774277	14	0.180446	11	0	63.2078	4.90077e-05
2	1	0	1	0	1	1597.17	0.619654	0.619938	0.0334249	14	0.180582	11	0	65.8083	2.07214e-05
2	1	0	0	0	1	1599.77	0.606651	0.606945	0.00683567	14	0.18063	11	0	68.4088	4.14888e-06
2	0	0	0	0	1	1602.37	0.593649	0.594004	-0.00947158	14	0.180624	11	0	1.6002	-5.62615e-06
2	0	0	1	0	1	1604.97	0.580646	0.580997	-0.019307	14	0.180586	11	0	4.2008	-1.12173e-05
2	0	0	1	0	1	1607.57	0.567644	0.567952	-0.0256019	14	0.180528	11	0	6.8012	-1.45407e-05
2	0	0	1	0	1	1610.17	0.554642	0.554953	-0.0290589	14	0.180459	11	0	9.4016	-1.61263e-05
2	0	0	0	0	1	1612.77	0.541639	0.541938	-0.0311398	14	0.180382	11	0	12.0022	-1.68758e-05
2	0	0	0	0	1	1615.37	0.528637	0.528971	-0.0325402	14	0.180299	11	0	14.6026	-1.72128e-05
2	0	0	0	0	1	1617.97	0.515635	0.515904	-0.032963	14	0.180213	11	0	17.203	-1.70057e-05
2	0	0	1	0	1	1620.57	0.502632	0.502978	-0.034115	14	0.180123	11	0	19.8036	-1.71591e-05
2	0	0	1	0	1	1623.17	0.48963	0.489895	-0.0357121	14	0.18003	11	0	22.404	-1.74952e-05
2	0	0	0	0	1	1625.77	0.476627	0.476927	-0.0370552	14	0.179935	11	0	25.0046	-1.76726e-05
2	0	0	0	0	1	1628.37	0.463625	0.463958	-0.0389197	14	0.179836	11	0	27.605	-1.80571e-05
2	0	0	0	0	1	1630.97	0.450623	0.450914	-0.0407899	14	0.179734	11	0	30.2054	-1.83927e-05
2	1	0	1	0	0	1633.45	0.461775	0.462042	0.0278444	15	0.179782	11	0	2.1004	1.28653e-05
2	1	0	1	0	0	1636.05	0.474777	0.475079	0.0288084	15	0.179859	11	0	4.7008	1.36863e-05
2	1	0	1	0	0	1638.65	0.48778	0.488099	0.0294274	15	0.179937	11	0	7.3013	1.43635e-05
2	1	0	0	0	0	1641.25	0.500782	0.501126	0.0306004	15	0.180015	11	0	9.9018	1.53347e-05
2	1	0	0	0	0	1643.85	0.513784	0.514013	0.0310378	15	0.180094	11	0	12.5022	1.59538e-05
2	1	0	1	0	0	1646.45	0.526787	0.527127	0.0296127	15	0.180172	11	0	15.1028	1.56097e-05
2	1	0	1	0	0	1649.05	0.539789	0.540102	0.0306841	15	0.180252	11	0	17.7032	1.65725e-05
2	1	0	1	0	0	1651.65	0.552791	0.553092	0.0329709	15	0.180334	11	0	20.3036	1.82359e-05
2	1	0	0	0	0	1654.25	0.565794	0.566118	0.0347158	15	0.18042	11	0	22.9042	1.96532e-05
2	1	0	0	0	0	1656.85	0.578796	0.57914	0.0378515	15	0.180515	11	0	25.5046	2.19213e-05
2	1	0	0	0	0	1659.45	0.591798	0.592111	0.0454927	15	0.180624	11	0	28.105	2.69367e-05
2	1	0	1	0	0	1662.05	0.604801	0.605088	0.0594508	15	0.180758	11	0	30.7056	3.5973e-05
2	1	0	1	0	0	1664.65	0.617803	0.618125	0.0816774	15	0.180936	11	0	33.306	5.04869e-05
2	1	0	1	0	0	1667.25	0.630805	0.63114	0.117461	15	0.181191	11	0	35.9065	7.41346e-05
2	1	0	0	0	0	1669.85	0.643808	0.644135	0.178418	15	0.181572	11	0	38.507	0.000114926
2	1	0	0	0	0	1672.45	0.65681	0.657144	0.275844	15	0.182156	11	0	41.1074	0.000181269
2	1	0	1	0	0	1675.05	0.669813	0.670111	0.418917	15	0.183049	11	0	43.708	0.000280721
2	1	0	1	0	0	1677.65	0.682815	0.683168	0.617037	15	0.184383	11	0	46.3084	0.00042154
2	1	0	1	0	0	1680.25	0.695817	0.696134	0.863572	15	0.186293	11	0	48.9088	0.000601162
2	1	0	1	0	0	1682.65	0.692167	0.69247	0.764394	15	0.188377	11	0	51.3056	0.00052932
2	1	0	0	0	0	1685.25	0.679164	0.679482	0.523364	15	0.190038	11	0	53.9062	0.000355616
2	1	0	0	0	0	1687.85	0.666162	0.666485	0.337875	15	0.191147	11	0	56.5066	0.000225189
2	1	0	0	0	0	1690.45	0.65316	0.653483	0.203538	15	0.19184	11	0	59.107	0.000133008
2	1	0	1	0	0	1693.05	0.640157	0.640482	0.111846	15	0.192239	11	0	61.7076	7.16351e-05
2	1	0	1	0	0	1695.65	0.627155	0.627463	0.0533474	15	0.192449	11	0	64.308	3.34735e-05
2	1	0	1	0	0	1698.25	0.614152	0.614439	0.0185428	15	0.19254	11	0	66.9085	1.13934e-05
2	1	0	0	0	0	1700.86	0.60115	0.601468	-0.00109092	15	0.19256	11	0	0.1	-6.56156e-07
2	0	0	0	0	0	1703.46	0.588148	0.588452	-0.0133246	15	0.192538	11	0	2.7004	-7.84092e-06
2	0	0	1	0	0	1706.06	0.575145	0.575457	-0.0207831	15	0.19249	11	0	5.301	-1.19598e-05
2	0	0	1	0	0	1708.66	0.562143	0.562459	-0.0256714	15	0.192427	11	0	7.9014	-1.44391e-05
2	0	0	1	0	0	1711.26	0.549141	0.549435	-0.0286878	15	0.192354	11	0	10.5018	-1.57621e-05
2	0	0	0	0	0	1713.86	0.536138	0.536418	-0.0312839	15	0.192275	11	0	13.1024	-1.67813e-05
2	0	0	0	0	0	1716.46	0.523136	0.523436	-0.0333549	15	0.19219	11	0	15.7028	-1.74592e-05
2	0	0	1	0	0	1719.06	0.510133	0.510423	-0.0350126	15	0.192103	11	0	18.3033	-1.78713e-05
2	0	0	1	0	0	1721.66	0.497131	0.497402	-0.0363186	15	0.192012	11	0	20.9038	-1.80649e-05
2	0	0	1	0	0	1724.26	0.484129	0.484432	-0.0375384	15	0.191918	11	0	23.5042	-1.81848e-05
2	0	0	0	0	0	1726.86	0.471127	0.471434	-0.0386394	15	0.191821	11	0	26.1048	-1.82159e-05
2	0	0	0	0	0	1729.46	0.458124	0.458436	-0.0395831	15	0.191721	11	0	28.7052	-1.81463e-05
2	0	0	0	0	0	1731.08	0.449998	0.450393	-0.0466628	15	0.191657	11	0	30.325	-2.10166e-05