File: ACS_Catal_2026/Figures_Na_K/main_figures/data/EC/20240401_2-128_CV_cycles_alpha_gamma/gamma/20240328_2-128_002_gamma_K-1_03_CVA_C02.mpt
EC-Lab ASCII FILE
Nb header lines : 66

Cyclic Voltammetry Advanced

Run on channel : 2 (SN 66414)
User :
CE vs. WE compliance from -10 V to 10 V
Electrode connection : standard
Potential control : Ewe
Ewe ctrl range : min = -1.00 V, max = 1.00 V
Safety Limits :
	Do not start on E overload
Acquisition started on : 04/01/2024 18:52:31.695
Loaded Setting File :  C:\Users\NakamuraT\Documents\EC-Lab\Data\Yatsuzuka\20240401_2-128_CV_cycles_alpha_gamma\20240328_2-128_001_alpha_K-1.mps
Saved on :
	File : 20240328_2-128_002_gamma_K-1_03_CVA_C02.mpr
	Directory : C:\Users\NakamuraT\Documents\EC-Lab\Data\Yatsuzuka\20240401_2-128_CV_cycles_alpha_gamma\
	Host : 192.109.209.100
Device : SP-150e (SN .003411)
Address : 192.109.209.236
EC-Lab for windows v11.50 (software)
Internet server v11.50 (firmware)
Command interpretor v11.50 (firmware)
Electrode material :
Initial state :
Electrolyte :
Comments :
Electrode surface area : 0.001 cm2
Characteristic mass : 0.001 g
Equivalent Weight : 0.000 g/eq.
Density : 0.000 g/cm3
Volume (V) : 0.001 cm3
Cycle Definition : Charge/Discharge alternance
Ei (V)              0.450
vs.                 Ref
ti (h:m:s)          0:00:10.0000
dti (s)             0.0000
dE/dt               5.000
dE/dt unit          mV/s
E1 (V)              0.700
vs.                 Ref
t1 (h:m:s)          0:00:0.0000
dt1 (s)             0.1000
Step percent        50
N                   10
E range min (V)     -1.000
E range max (V)     1.000
I Range             10 mA
I Range min         Unset
I Range max         Unset
I Range init        Unset
Bandwidth           5
E2 (V)              0.450
vs.                 Ref
t2 (h:m:s)          0:00:0.0000
dt2 (s)             0.1000
nc cycles           14
nr                  1
Reverse Scan        0
Ef (V)              0.000
vs.                 Eoc
tf (h:m:s)          0:00:0.0000
dtf (s)             0.1000

mode	ox/red	error	control changes	Ns changes	counter inc.	time/s	control/V	Ewe/V	<I>/mA	cycle number	(Q-Qo)/C	I Range	Ns	step time/s	P/W
2	0	0	0	0	0	230.912	0.449951	0.450333	-0.000795942	1	0.0000000E+000	11	0	0.000000000000000E+000	-3.58439e-07
2	1	0	0	0	0	233.464	0.462708	0.462986	0.00237025	1	5.19863e-06	11	0	2.4966	1.09739e-06
2	1	0	0	0	0	236.06	0.47569	0.476011	0.00305173	1	1.21494e-05	11	0	5.093	1.45266e-06
2	1	0	1	0	0	238.657	0.488673	0.488934	0.00432104	1	2.17364e-05	11	0	7.6895	2.1127e-06
2	1	0	1	0	0	241.253	0.501655	0.501883	0.00642408	1	3.54951e-05	11	0	10.2859	3.22414e-06
2	1	0	1	0	0	243.849	0.514636	0.514926	0.00972764	1	5.61809e-05	11	0	12.8823	5.00902e-06
2	1	0	1	0	0	246.446	0.527618	0.527895	0.0147947	1	8.76609e-05	11	0	15.4787	7.81004e-06
2	1	0	1	0	0	249.042	0.540601	0.540916	0.0227127	1	0.000135693	11	0	18.0752	1.22857e-05
2	1	0	1	0	0	251.639	0.553583	0.553845	0.0348008	1	0.000209346	11	0	20.6716	1.92742e-05
2	1	0	1	0	0	254.235	0.566566	0.566893	0.0526541	1	0.000321603	11	0	23.2681	2.98492e-05
2	1	0	1	0	0	256.832	0.579548	0.579847	0.0788936	1	0.000490577	11	0	25.8645	4.57462e-05
2	1	0	1	0	0	259.428	0.592529	0.592767	0.115674	1	0.000740722	11	0	28.4609	6.85677e-05
2	1	0	1	0	0	262.024	0.605511	0.605803	0.165911	1	0.00110352	11	0	31.0573	0.000100509
2	1	0	0	0	0	264.621	0.618494	0.61879	0.231701	1	0.00161654	11	0	33.6538	0.000143374
2	1	0	0	0	0	267.217	0.631476	0.631773	0.314611	1	0.00232212	11	0	36.2502	0.000198763
2	1	0	1	0	0	269.814	0.644459	0.644775	0.415055	1	0.00326612	11	0	38.8467	0.000267617
2	1	0	1	0	0	272.41	0.65744	0.657739	0.533165	1	0.00449389	11	0	41.4431	0.000350683
2	1	0	1	0	0	275.007	0.670423	0.670743	0.667188	1	0.00604948	11	0	44.0395	0.000447512
2	1	0	1	0	0	277.603	0.683404	0.683686	0.816031	1	0.00797267	11	0	46.6359	0.000557909
2	1	0	1	0	0	280.2	0.696387	0.696644	0.979146	1	0.0103017	11	0	49.2324	0.000682116
2	1	0	1	0	0	282.58	0.691693	0.691978	0.901889	1	0.0126228	11	0	51.6127	0.000624087
2	1	0	1	0	0	285.176	0.678712	0.678977	0.726964	1	0.0147341	11	0	54.2091	0.000493592
2	1	0	1	0	0	287.773	0.665729	0.666058	0.567533	1	0.016409	11	0	56.8056	0.00037801
2	1	0	1	0	0	290.369	0.652747	0.653079	0.431004	1	0.0176992	11	0	59.402	0.000281479
2	1	0	1	0	0	292.966	0.639764	0.64006	0.318583	1	0.0186669	11	0	61.9985	0.000203912
2	1	0	1	0	0	295.562	0.626782	0.627018	0.227773	1	0.0193711	11	0	64.5949	0.000142818
2	1	0	1	0	0	298.158	0.6138	0.614107	0.157277	1	0.0198662	11	0	67.1913	9.65848e-05
2	1	0	1	0	0	300.755	0.600819	0.601141	0.105444	1	0.0202033	11	0	69.7877	6.33865e-05
2	1	0	0	0	0	303.351	0.587836	0.58813	0.0689858	1	0.0204266	11	0	72.3842	4.05726e-05
2	1	0	0	0	0	305.948	0.574854	0.575141	0.0438961	1	0.0205708	11	0	74.9806	2.52464e-05
2	1	0	1	0	0	308.544	0.561871	0.562172	0.0271025	1	0.0206613	11	0	77.5771	1.52362e-05
2	1	0	1	0	0	311.141	0.548889	0.549235	0.0161631	1	0.0207164	11	0	80.1735	8.87732e-06
2	1	0	1	0	0	313.737	0.535907	0.536193	0.00916333	1	0.0207486	11	0	82.7699	4.91331e-06
2	1	0	1	0	0	316.333	0.522926	0.52322	0.00455198	1	0.0207659	11	0	85.3663	2.38169e-06
2	1	0	1	0	0	318.93	0.509943	0.510241	0.00179618	1	0.0207738	11	0	87.9628	9.16483e-07
2	1	0	1	0	0	321.526	0.496961	0.497228	-1.55579e-05	1	0.0207758	11	0	90.5592	-7.73584e-09
2	0	0	1	0	0	324.123	0.483979	0.484198	-0.00106169	1	0.0207742	11	0	2.3967	-5.14067e-07
2	0	0	1	0	0	326.719	0.470996	0.471303	-0.00182128	1	0.0207703	11	0	4.9932	-8.58373e-07
2	0	0	1	0	0	329.316	0.458015	0.458262	-0.00229473	1	0.0207648	11	0	7.5896	-1.05159e-06
2	1	0	1	0	1	331.678	0.453821	0.454069	0.0011878	2	0.0207617	11	0	0.6991	5.39342e-07
2	1	0	1	0	1	334.274	0.466803	0.467073	0.00164042	2	0.0207655	11	0	3.2955	7.66199e-07
2	1	0	1	0	1	336.87	0.479784	0.48005	0.00221474	2	0.0207706	11	0	5.8919	1.06319e-06
2	1	0	1	0	1	339.467	0.492766	0.493018	0.00310299	2	0.0207775	11	0	8.4883	1.52983e-06
2	1	0	1	0	1	342.063	0.505749	0.506041	0.00452682	2	0.0207873	11	0	11.0848	2.29076e-06
2	1	0	1	0	1	344.66	0.518731	0.518967	0.00687785	2	0.0208019	11	0	13.6812	3.56938e-06
2	1	0	1	0	1	347.256	0.531713	0.532002	0.0106544	2	0.0208244	11	0	16.2776	5.66813e-06
2	1	0	1	0	1	349.853	0.544695	0.545007	0.0164018	2	0.0208591	11	0	18.8741	8.93907e-06
2	1	0	1	0	1	352.449	0.557677	0.557942	0.0256885	2	0.0209131	11	0	21.4705	1.43327e-05
2	1	0	1	0	1	355.045	0.570659	0.570982	0.0399396	2	0.0209971	11	0	24.0669	2.28048e-05
2	1	0	1	0	1	357.642	0.583641	0.583965	0.0613728	2	0.0211269	11	0	26.6633	3.58396e-05
2	1	0	0	0	1	360.238	0.596624	0.596916	0.0930836	2	0.0213251	11	0	29.2598	5.55631e-05
2	1	0	0	0	1	362.835	0.609606	0.609922	0.138291	2	0.0216224	11	0	31.8562	8.43467e-05
2	1	0	1	0	1	365.431	0.622589	0.622911	0.200154	2	0.0220583	11	0	34.4527	0.000124678
2	1	0	1	0	1	368.028	0.63557	0.635877	0.281669	2	0.0226799	11	0	37.0491	0.000179107
2	1	0	1	0	1	370.624	0.648552	0.648862	0.383237	2	0.0235392	11	0	39.6455	0.000248668
2	1	0	1	0	1	373.22	0.661534	0.661855	0.50494	2	0.0246883	11	0	42.2419	0.000334197
2	1	0	1	0	1	375.817	0.674517	0.674815	0.645768	2	0.0261794	11	0	44.8384	0.000435774
2	1	0	1	0	1	378.413	0.687499	0.687708	0.803935	2	0.0280592	11	0	47.4348	0.000552872
2	1	0	0	0	1	380.909	0.700007	0.700444	0.969042	2	0.0302711	11	0	49.93	0.00067876
2	1	0	1	0	1	383.37	0.687699	0.688042	0.789268	2	0.0324292	11	0	52.3916	0.00054305
2	1	0	1	0	1	385.967	0.674716	0.675019	0.623432	2	0.0342577	11	0	54.9881	0.000420829
2	1	0	1	0	1	388.563	0.661734	0.662032	0.479034	2	0.0356829	11	0	57.5845	0.000317135
2	1	0	1	0	1	391.159	0.648753	0.649058	0.356476	2	0.0367628	11	0	60.1809	0.000231374
2	1	0	1	0	1	393.756	0.63577	0.636069	0.25621	2	0.0375529	11	0	62.7773	0.000162967
2	1	0	0	0	1	396.352	0.622788	0.623103	0.178514	2	0.0381121	11	0	65.3738	0.000111233
2	1	0	0	0	1	398.949	0.609806	0.610102	0.120634	2	0.038496	11	0	67.9702	7.35988e-05
2	1	0	1	0	1	401.545	0.596823	0.597091	0.0794463	2	0.0387523	11	0	70.5667	4.74367e-05
2	1	0	1	0	1	404.142	0.583841	0.584153	0.0508867	2	0.0389189	11	0	73.1631	2.97256e-05
2	1	0	1	0	1	406.738	0.570859	0.571163	0.0318326	2	0.0390245	11	0	75.7595	1.81816e-05
2	1	0	1	0	1	409.334	0.557878	0.558178	0.0192914	2	0.0390897	11	0	78.3559	1.0768e-05
2	1	0	1	0	1	411.931	0.544895	0.545177	0.0111235	2	0.0391282	11	0	80.9524	6.06428e-06
2	1	0	1	0	1	414.527	0.531913	0.532192	0.00590729	2	0.0391498	11	0	83.5488	3.14381e-06
2	1	0	1	0	1	417.124	0.518931	0.519228	0.00262173	2	0.0391604	11	0	86.1452	1.36127e-06
2	1	0	1	0	1	419.72	0.505948	0.506252	0.000568311	2	0.0391643	11	0	88.7417	2.87709e-07
2	0	0	1	0	1	422.317	0.492966	0.493242	-0.000706948	2	0.0391639	11	0	1.2982	-3.48696e-07
2	1	0	1	0	1	424.913	0.479985	0.480216	-0.00158027	2	0.0391607	11	0	3.8946	-7.58872e-07
2	0	0	0	0	1	427.51	0.467002	0.467276	-0.0020997	2	0.0391558	11	0	6.4911	-9.81141e-07
2	1	0	0	0	1	430.106	0.45402	0.454278	-0.00251771	2	0.0391497	11	0	9.0875	-1.14374e-06
2	1	0	1	0	0	432.468	0.457814	0.458108	0.0011528	3	0.0391491	11	0	1.4979	5.28105e-07
2	1	0	1	0	0	435.064	0.470797	0.471098	0.00161713	3	0.0391528	11	0	4.0944	7.61825e-07
2	1	0	1	0	0	437.661	0.483779	0.484025	0.00214308	3	0.0391577	11	0	6.6908	1.03731e-06
2	1	0	1	0	0	440.257	0.496762	0.497028	0.00306232	3	0.0391644	11	0	9.2873	1.52206e-06
2	1	0	1	0	0	442.854	0.509744	0.509981	0.00449171	3	0.0391741	11	0	11.8837	2.29069e-06
2	1	0	1	0	0	445.45	0.522725	0.523025	0.00684973	3	0.0391887	11	0	14.4801	3.58258e-06
2	1	0	1	0	0	448.046	0.535707	0.536009	0.0106052	3	0.0392111	11	0	17.0765	5.68451e-06
2	1	0	0	0	0	450.643	0.54869	0.548993	0.0163347	3	0.0392456	11	0	19.673	8.96765e-06
2	1	0	0	0	0	453.239	0.561672	0.561977	0.0257012	3	0.0392994	11	0	22.2694	1.44435e-05
2	1	0	0	0	0	455.836	0.574654	0.574915	0.0399714	3	0.0393834	11	0	24.8658	2.29802e-05
2	1	0	1	0	0	458.432	0.587637	0.587889	0.0616529	3	0.0395136	11	0	27.4623	3.62451e-05
2	1	0	1	0	0	461.029	0.600618	0.600925	0.0938742	3	0.0397132	11	0	30.0587	5.64113e-05
2	1	0	1	0	0	463.625	0.6136	0.613876	0.140122	3	0.0400138	11	0	32.6551	8.60179e-05
2	1	0	1	0	0	466.221	0.626582	0.62689	0.203541	3	0.0404563	11	0	35.2515	0.000127598
2	1	0	1	0	0	468.818	0.639565	0.639902	0.287233	3	0.0410893	11	0	37.848	0.000183801
2	1	0	1	0	0	471.414	0.652547	0.652844	0.391884	3	0.0419668	11	0	40.4444	0.00025584
2	1	0	1	0	0	474.011	0.665529	0.665824	0.517619	3	0.0431439	11	0	43.0409	0.000344643
2	1	0	1	0	0	476.607	0.678512	0.678837	0.663847	3	0.0446743	11	0	45.6373	0.000450644
2	1	0	1	0	0	479.204	0.691493	0.691758	0.826438	3	0.0466067	11	0	48.2337	0.000571695
2	1	0	1	0	0	481.564	0.696686	0.697012	0.891231	3	0.0487152	11	0	50.5941	0.000621199
2	1	0	1	0	0	484.16	0.683704	0.684012	0.708247	3	0.0507853	11	0	53.1905	0.00048445
2	1	0	0	0	0	486.757	0.670722	0.670995	0.550453	3	0.0524131	11	0	55.787	0.000369351
2	1	0	0	0	0	489.353	0.65774	0.658039	0.415137	3	0.0536607	11	0	58.3834	0.000273176
2	1	0	0	0	0	491.95	0.644758	0.645087	0.302192	3	0.0545863	11	0	60.9798	0.00019494
2	1	0	1	0	0	494.546	0.631775	0.632042	0.212786	3	0.0552494	11	0	63.5763	0.000134489
2	1	0	1	0	0	497.143	0.618793	0.619094	0.14623	3	0.0557107	11	0	66.1727	9.05301e-05
2	1	0	1	0	0	499.739	0.605811	0.606121	0.0976428	3	0.0560237	11	0	68.7691	5.91833e-05
2	1	0	1	0	0	502.335	0.59283	0.593114	0.0632412	3	0.0562297	11	0	71.3655	3.75092e-05
2	1	0	1	0	0	504.932	0.579847	0.580148	0.0399043	3	0.0563615	11	0	73.962	2.31504e-05
2	1	0	1	0	0	507.528	0.566865	0.567184	0.0245294	3	0.0564436	11	0	76.5584	1.39127e-05
2	1	0	1	0	0	510.125	0.553882	0.554162	0.0145508	3	0.0564932	11	0	79.1549	8.06352e-06
2	1	0	1	0	0	512.721	0.5409	0.541154	0.00810182	3	0.0565219	11	0	81.7513	4.38433e-06
2	1	0	1	0	0	515.318	0.527919	0.52813	0.00401357	3	0.0565372	11	0	84.3477	2.11968e-06
2	1	0	1	0	0	517.914	0.514937	0.515201	0.00145091	3	0.0565438	11	0	86.9441	7.47509e-07
2	1	0	0	0	0	520.511	0.501954	0.502223	-0.000153936	3	0.0565453	11	0	0.000000000000000E+000	-7.73102e-08
2	0	0	0	0	0	523.107	0.488972	0.489256	-0.00118035	3	0.0565434	11	0	2.5964	-5.77493e-07
2	0	0	0	0	0	525.703	0.47599	0.476237	-0.00182854	3	0.0565392	11	0	5.1928	-8.70819e-07
2	0	0	1	0	0	528.3	0.463007	0.463286	-0.00228297	3	0.0565338	11	0	7.7893	-1.05767e-06
2	0	0	1	0	0	530.871	0.45015	0.450441	-0.00321181	3	0.0565275	11	0	10.3608	-1.44673e-06
2	1	0	1	0	1	533.258	0.46181	0.46208	0.00127948	4	0.0565299	11	0	2.2969	5.9122e-07
2	1	0	1	0	1	535.855	0.474792	0.475046	0.00167554	4	0.0565337	11	0	4.8933	7.9596e-07
2	1	0	1	0	1	538.451	0.487773	0.488091	0.00220377	4	0.0565388	11	0	7.4897	1.07564e-06
2	1	0	1	0	1	541.047	0.500755	0.501031	0.00317695	4	0.0565458	11	0	10.0861	1.59175e-06
2	1	0	0	0	1	543.644	0.513738	0.514039	0.0047072	4	0.0565559	11	0	12.6826	2.41968e-06
2	1	0	0	0	1	546.24	0.52672	0.527021	0.00708468	4	0.056571	11	0	15.279	3.73377e-06
2	1	0	1	0	1	548.837	0.539703	0.539996	0.0110207	4	0.0565942	11	0	17.8755	5.95114e-06
2	1	0	1	0	1	551.433	0.552685	0.55299	0.0171157	4	0.0566301	11	0	20.4719	9.46482e-06
2	1	0	1	0	1	554.03	0.565666	0.565962	0.0267888	4	0.0566864	11	0	23.0683	1.51614e-05
2	1	0	1	0	1	556.626	0.578648	0.578946	0.0418344	4	0.0567743	11	0	25.6647	2.42199e-05
2	1	0	1	0	1	559.223	0.591631	0.591918	0.0645231	4	0.0569106	11	0	28.2612	3.81924e-05
2	1	0	1	0	1	561.819	0.604613	0.604919	0.0981947	4	0.0571195	11	0	30.8576	5.93998e-05
2	1	0	1	0	1	564.415	0.617595	0.617877	0.146173	4	0.0574334	11	0	33.454	9.03167e-05
2	1	0	1	0	1	567.012	0.630578	0.630882	0.212061	4	0.0578948	11	0	36.0505	0.000133786
2	1	0	1	0	1	569.608	0.64356	0.643881	0.298713	4	0.0585537	11	0	38.6469	0.000192336
2	1	0	1	0	1	572.205	0.656541	0.656842	0.406879	4	0.0594658	11	0	41.2433	0.000267255
2	1	0	1	0	1	574.801	0.669523	0.669813	0.536014	4	0.0606865	11	0	43.8397	0.000359029
2	1	0	0	0	1	577.398	0.682506	0.682805	0.68476	4	0.062268	11	0	46.4362	0.000467557
2	1	0	0	0	1	579.994	0.695488	0.695726	0.851801	4	0.0642607	11	0	49.0326	0.00059262
2	1	0	0	0	1	582.354	0.692692	0.692999	0.803582	4	0.066306	11	0	51.393	0.000556881
2	1	0	0	0	1	584.951	0.67971	0.680006	0.630902	4	0.0681622	11	0	53.9894	0.000429017
2	1	0	1	0	1	587.547	0.666727	0.667034	0.482151	4	0.0696015	11	0	56.5859	0.000321611
2	1	0	1	0	1	590.144	0.653745	0.65398	0.357687	4	0.0706852	11	0	59.1823	0.00023392
2	1	0	1	0	1	592.74	0.640764	0.641045	0.257452	4	0.0714787	11	0	61.7787	0.000165038
2	1	0	1	0	1	595.336	0.627782	0.628073	0.179424	4	0.0720406	11	0	64.3751	0.000112691
2	1	0	1	0	1	597.933	0.614799	0.615084	0.120969	4	0.0724261	11	0	66.9716	7.44059e-05
2	1	0	1	0	1	600.529	0.601817	0.602091	0.0797165	4	0.072683	11	0	69.568	4.79966e-05
2	1	0	1	0	1	603.126	0.588834	0.589116	0.0508817	4	0.07285	11	0	72.1645	2.99753e-05
2	1	0	1	0	1	605.722	0.575852	0.576133	0.031737	4	0.0729556	11	0	74.7609	1.82847e-05
2	1	0	1	0	1	608.319	0.56287	0.563204	0.0191592	4	0.0730204	11	0	77.3573	1.07905e-05
2	1	0	1	0	1	610.915	0.549889	0.55015	0.01107	4	0.0730588	11	0	79.9537	6.09016e-06
2	1	0	0	0	1	613.512	0.536906	0.537186	0.00580391	4	0.0730801	11	0	82.5502	3.11778e-06
2	1	0	0	0	1	616.108	0.523924	0.5242	0.00260471	4	0.0730905	11	0	85.1466	1.36539e-06
2	0	0	0	0	1	618.704	0.510942	0.511216	0.000558568	4	0.0730944	11	0	87.743	2.85549e-07
2	0	0	1	0	1	621.301	0.497959	0.498246	-0.000721098	4	0.073094	11	0	1.5978	-3.59284e-07
2	1	0	1	0	1	623.897	0.484977	0.485238	-0.0015835	4	0.0730908	11	0	4.1942	-7.68373e-07
2	0	0	1	0	1	626.494	0.471996	0.47223	-0.00203272	4	0.073086	11	0	6.7906	-9.5991e-07
2	0	0	1	0	1	629.09	0.459013	0.459278	-0.00241212	4	0.07308	11	0	9.3871	-1.10783e-06
2	1	0	1	0	0	631.452	0.452822	0.453123	0.000784776	5	0.0730758	11	0	0.5543	3.556e-07
2	0	0	1	0	0	634.048	0.465803	0.466088	0.0011977	5	0.0730785	11	0	3.1507	5.58233e-07
2	1	0	0	0	0	636.645	0.478786	0.479027	0.00158736	5	0.0730822	11	0	5.7472	7.60388e-07
2	1	0	0	0	0	639.241	0.491768	0.492059	0.00230128	5	0.0730873	11	0	8.3436	1.13236e-06
2	1	0	1	0	0	641.838	0.504751	0.505067	0.00324558	5	0.0730944	11	0	10.9401	1.63923e-06
2	1	0	1	0	0	644.434	0.517733	0.518019	0.00489845	5	0.0731049	11	0	13.5365	2.53749e-06
2	1	0	1	0	0	647.031	0.530715	0.531032	0.00750175	5	0.0731208	11	0	16.1329	3.98367e-06
2	1	0	1	0	0	649.627	0.543696	0.543956	0.011722	5	0.0731455	11	0	18.7293	6.37624e-06
2	1	0	1	0	0	652.224	0.556679	0.556982	0.0182226	5	0.0731837	11	0	21.3258	1.01497e-05
2	1	0	1	0	0	654.82	0.569661	0.569934	0.0286012	5	0.0732437	11	0	23.9222	1.63008e-05
2	1	0	1	0	0	657.416	0.582644	0.582959	0.0447066	5	0.0733376	11	0	26.5187	2.60621e-05
2	1	0	1	0	0	660.013	0.595626	0.595933	0.0689595	5	0.0734831	11	0	29.1151	4.10953e-05
2	1	0	1	0	0	662.609	0.608607	0.608926	0.104493	5	0.0737057	11	0	31.7115	6.36283e-05
2	1	0	1	0	0	665.206	0.621589	0.621851	0.15515	5	0.0740395	11	0	34.3079	9.64804e-05
2	1	0	0	0	0	667.802	0.634572	0.634883	0.224358	5	0.0745282	11	0	36.9044	0.000142441
2	1	0	0	0	0	670.399	0.647554	0.647848	0.314751	5	0.0752239	11	0	39.5008	0.000203911
2	1	0	0	0	0	672.995	0.660536	0.660846	0.426671	5	0.0761822	11	0	42.0972	0.000281964
2	1	0	1	0	0	675.591	0.673519	0.673848	0.559679	5	0.0774586	11	0	44.6937	0.000377138
2	1	0	1	0	0	678.188	0.6865	0.686787	0.711502	5	0.0791058	11	0	47.2901	0.00048865
2	1	0	1	0	0	680.784	0.699482	0.699764	0.880126	5	0.0811691	11	0	49.8865	0.00061588
2	1	0	1	0	0	683.145	0.688697	0.688962	0.726547	5	0.0830752	11	0	52.2469	0.000500564
2	1	0	1	0	0	685.741	0.675715	0.67605	0.567461	5	0.0847506	11	0	54.8433	0.000383632
2	1	0	1	0	0	688.338	0.662733	0.662966	0.427797	5	0.0860367	11	0	57.4398	0.000283615
2	1	0	1	0	0	690.934	0.649751	0.650035	0.31259	5	0.0869921	11	0	60.0362	0.000203194
2	1	0	1	0	0	693.53	0.636769	0.637064	0.221185	5	0.0876795	11	0	62.6326	0.000140909
2	1	0	1	0	0	696.127	0.623786	0.624062	0.151806	5	0.0881591	11	0	65.2291	9.4736e-05
2	1	0	1	0	0	698.723	0.610804	0.611105	0.101088	5	0.0884834	11	0	67.8255	6.17752e-05
2	1	0	1	0	0	701.32	0.597822	0.598132	0.0655823	5	0.0886969	11	0	70.4219	3.92269e-05
2	1	0	1	0	0	703.916	0.584841	0.58518	0.0414702	5	0.0888336	11	0	73.0183	2.42675e-05
2	1	0	0	0	0	706.513	0.571858	0.572137	0.0255638	5	0.0889191	11	0	75.6148	1.4626e-05
2	1	0	0	0	0	709.109	0.558876	0.559148	0.0151361	5	0.0889708	11	0	78.2112	8.46332e-06
2	1	0	1	0	0	711.705	0.545893	0.54619	0.00851593	5	0.0890008	11	0	80.8077	4.65131e-06
2	1	0	1	0	0	714.302	0.532911	0.533196	0.00425454	5	0.0890168	11	0	83.4041	2.2685e-06
2	1	0	1	0	0	716.898	0.51993	0.520194	0.00162805	5	0.0890241	11	0	86.0005	8.46905e-07
2	1	0	1	0	0	719.495	0.506948	0.507225	-2.17143e-05	5	0.089026	11	0	0.000000000000000E+000	-1.1014e-08
2	0	0	1	0	0	722.091	0.493965	0.494255	-0.00109112	5	0.0890244	11	0	2.197	-5.39291e-07
2	0	0	1	0	0	724.688	0.480983	0.481252	-0.00173873	5	0.0890206	11	0	4.7934	-8.36765e-07
2	0	0	1	0	0	727.284	0.468	0.468238	-0.00215592	5	0.0890154	11	0	7.3899	-1.00948e-06
2	0	0	1	0	0	729.88	0.455018	0.455305	-0.00251477	5	0.0890092	11	0	9.9863	-1.14499e-06
2	0	0	0	0	1	732.242	0.456816	0.457091	0.000954709	6	0.0890076	11	0	1.2982	4.36389e-07
2	1	0	1	0	1	734.839	0.469799	0.470075	0.00126257	6	0.0890105	11	0	3.8947	5.93503e-07
2	1	0	1	0	1	737.435	0.482781	0.483058	0.0017783	6	0.0890145	11	0	6.4911	8.59021e-07
2	1	0	1	0	1	740.032	0.495762	0.496024	0.00248673	6	0.0890201	11	0	9.0875	1.23348e-06
2	1	0	1	0	1	742.628	0.508744	0.509046	0.00354355	6	0.0890279	11	0	11.6839	1.80383e-06
2	1	0	1	0	1	745.225	0.521727	0.522028	0.00532879	6	0.0890393	11	0	14.2804	2.78178e-06
2	1	0	1	0	1	747.821	0.534709	0.534998	0.00815081	6	0.0890567	11	0	16.8768	4.36066e-06
2	1	0	1	0	1	750.417	0.547692	0.547973	0.0126858	6	0.0890835	11	0	19.4733	6.95149e-06
2	1	0	1	0	1	753.014	0.560673	0.560951	0.0197602	6	0.0891249	11	0	22.0697	1.10845e-05
2	1	0	1	0	1	755.61	0.573655	0.573959	0.0310342	6	0.08919	11	0	24.6661	1.78124e-05
2	1	0	1	0	1	758.207	0.586637	0.586893	0.0484392	6	0.0892918	11	0	27.2625	2.84286e-05
2	1	0	0	0	1	760.803	0.59962	0.599905	0.074504	6	0.0894493	11	0	29.859	4.46953e-05
2	1	0	0	0	1	763.4	0.612602	0.612929	0.112426	6	0.0896894	11	0	32.4554	6.89093e-05
2	1	0	0	0	1	765.996	0.625584	0.625912	0.166259	6	0.0900478	11	0	35.0518	0.000104064
2	1	0	1	0	1	768.592	0.638566	0.638892	0.238895	6	0.0905698	11	0	37.6483	0.000152628
2	1	0	1	0	1	771.189	0.651548	0.651847	0.332672	6	0.0913075	11	0	40.2447	0.000216851
2	1	0	1	0	1	773.785	0.66453	0.664868	0.447924	6	0.0923168	11	0	42.8411	0.00029781
2	1	0	1	0	1	776.382	0.677512	0.677801	0.58611	6	0.0936545	11	0	45.4375	0.000397266
2	1	0	1	0	1	778.978	0.690495	0.690776	0.741935	6	0.0953765	11	0	48.034	0.00051251
2	1	0	1	0	1	781.339	0.697685	0.697979	0.829533	6	0.0972914	11	0	50.3944	0.000578997
2	1	0	1	0	1	783.935	0.684703	0.685075	0.650708	6	0.0992065	11	0	52.9908	0.000445784
2	1	0	1	0	1	786.531	0.671721	0.672065	0.499016	6	0.100693	11	0	55.5872	0.000335371
2	1	0	1	0	1	789.128	0.658738	0.659018	0.371608	6	0.101818	11	0	58.1837	0.000244896
2	1	0	1	0	1	791.724	0.645756	0.646065	0.267829	6	0.102642	11	0	60.7801	0.000173035
2	1	0	1	0	1	794.321	0.632774	0.633042	0.187799	6	0.103228	11	0	63.3765	0.000118884
2	1	0	1	0	1	796.917	0.619793	0.620138	0.127487	6	0.103633	11	0	65.9729	7.90594e-05
2	1	0	0	0	1	799.514	0.60681	0.60704	0.0841533	6	0.103904	11	0	68.5694	5.10844e-05
2	1	0	0	0	1	802.11	0.593828	0.594121	0.054009	6	0.10408	11	0	71.1658	3.20879e-05
2	1	0	1	0	1	804.706	0.580845	0.581173	0.0338855	6	0.104193	11	0	73.7623	1.96933e-05
2	1	0	1	0	1	807.303	0.567863	0.568117	0.020671	6	0.104262	11	0	76.3587	1.17436e-05
2	1	0	1	0	1	809.899	0.554881	0.555214	0.0120122	6	0.104304	11	0	78.9551	6.66933e-06
2	1	0	1	0	1	812.496	0.541899	0.542215	0.00655872	6	0.104327	11	0	81.5515	3.55624e-06
2	1	0	1	0	1	815.092	0.528917	0.529222	0.00305447	6	0.104339	11	0	84.148	1.61649e-06
2	1	0	1	0	1	817.689	0.515935	0.516178	0.000891341	6	0.104344	11	0	86.7444	4.6009e-07
2	0	0	1	0	1	820.285	0.502952	0.503224	-0.000419014	6	0.104344	11	0	1.0986	-2.10858e-07
2	0	0	1	0	1	822.881	0.48997	0.490299	-0.00131508	6	0.104342	11	0	3.695	-6.4478e-07
2	0	0	1	0	1	825.478	0.476989	0.477285	-0.00193007	6	0.104338	11	0	6.2914	-9.21191e-07
2	1	0	1	0	1	828.074	0.464007	0.464253	-0.00230499	6	0.104332	11	0	8.8878	-1.0701e-06
2	0	0	0	0	1	830.671	0.451024	0.451319	-0.00258749	6	0.104325	11	0	11.4843	-1.16778e-06
2	1	0	1	0	0	833.033	0.46081	0.461137	0.00100788	7	0.104327	11	0	2.0971	4.64771e-07
2	1	0	1	0	0	835.629	0.473792	0.474044	0.00141803	7	0.10433	11	0	4.6935	6.7221e-07
2	1	0	1	0	0	838.226	0.486775	0.487032	0.00192063	7	0.104334	11	0	7.29	9.35408e-07
2	1	0	1	0	0	840.822	0.499757	0.500021	0.00262799	7	0.10434	11	0	9.8864	1.31405e-06
2	1	0	1	0	0	843.418	0.51274	0.513053	0.00379234	7	0.104348	11	0	12.4829	1.94567e-06
2	1	0	1	0	0	846.015	0.525722	0.526066	0.00572361	7	0.104361	11	0	15.0793	3.01099e-06
2	1	0	1	0	0	848.611	0.538703	0.539021	0.00888733	7	0.104379	11	0	17.6757	4.79046e-06
2	1	0	1	0	0	851.208	0.551685	0.551889	0.0137343	7	0.104408	11	0	20.2721	7.57981e-06
2	1	0	0	0	0	853.804	0.564668	0.564954	0.0217272	7	0.104454	11	0	22.8686	1.22749e-05
2	1	0	0	0	0	856.401	0.57765	0.577939	0.0339884	7	0.104525	11	0	25.465	1.96432e-05
2	1	0	1	0	0	858.997	0.590633	0.590925	0.0527279	7	0.104636	11	0	28.0615	3.11582e-05
2	1	0	1	0	0	861.593	0.603615	0.603942	0.0810547	7	0.104808	11	0	30.6579	4.89523e-05
2	1	0	1	0	0	864.19	0.616596	0.616879	0.121835	7	0.105068	11	0	33.2543	7.51575e-05
2	1	0	1	0	0	866.786	0.629578	0.629852	0.179035	7	0.105455	11	0	35.8507	0.000112766
2	1	0	1	0	0	869.383	0.642561	0.642857	0.255592	7	0.106015	11	0	38.4472	0.000164309
2	1	0	1	0	0	871.979	0.655543	0.655822	0.353552	7	0.106802	11	0	41.0436	0.000231867
2	1	0	1	0	0	874.576	0.668525	0.668845	0.473213	7	0.107871	11	0	43.64	0.000316506
2	1	0	1	0	0	877.172	0.681508	0.681813	0.613053	7	0.109278	11	0	46.2365	0.000417988
2	1	0	1	0	0	879.768	0.694489	0.69478	0.771294	7	0.111073	11	0	48.8329	0.000535879
2	1	0	1	0	0	882.129	0.69369	0.694007	0.751077	7	0.112963	11	0	51.1933	0.000521252
2	1	0	1	0	0	884.725	0.680708	0.680966	0.585665	7	0.114691	11	0	53.7897	0.000398818
2	1	0	1	0	0	887.322	0.667727	0.668007	0.442745	7	0.11602	11	0	56.3861	0.000295757
2	1	0	0	0	0	889.918	0.654744	0.65507	0.325644	7	0.117012	11	0	58.9826	0.00021332
2	1	0	0	0	0	892.515	0.641762	0.642076	0.231178	7	0.117729	11	0	61.579	0.000148434
2	1	0	0	0	0	895.111	0.62878	0.629091	0.159836	7	0.118232	11	0	64.1754	0.000100551
2	1	0	1	0	0	897.707	0.615797	0.616001	0.107414	7	0.118575	11	0	66.7719	6.61669e-05
2	1	0	1	0	0	900.304	0.602815	0.603051	0.0702626	7	0.118802	11	0	69.3683	4.23719e-05
2	1	0	1	0	0	902.9	0.589833	0.590078	0.0447935	7	0.118949	11	0	71.9647	2.64317e-05
2	1	0	1	0	0	905.497	0.576852	0.577078	0.0277523	7	0.119041	11	0	74.5611	1.60153e-05
2	1	0	1	0	0	908.093	0.563869	0.564132	0.0165747	7	0.119098	11	0	77.1576	9.35031e-06
2	1	0	1	0	0	910.69	0.550887	0.5511	0.00947328	7	0.119131	11	0	79.754	5.22073e-06
2	1	0	1	0	0	913.286	0.537904	0.53816	0.0048231	7	0.119149	11	0	82.3505	2.5956e-06
2	0	0	1	0	0	915.882	0.524922	0.525134	0.00193096	7	0.119157	11	0	84.9469	1.01401e-06
2	0	0	1	0	0	918.479	0.51194	0.512275	0.000254199	7	0.11916	11	0	87.5433	1.3022e-07
2	1	0	1	0	0	921.075	0.498959	0.499184	-0.00087708	7	0.119159	11	0	1.8974	-4.37825e-07
2	0	0	0	0	0	923.672	0.485976	0.486228	-0.00161774	7	0.119156	11	0	4.4939	-7.86588e-07
2	0	0	0	0	0	926.268	0.472994	0.473214	-0.00207141	7	0.119151	11	0	7.0903	-9.8022e-07
2	0	0	1	0	0	928.865	0.460011	0.460265	-0.00239424	7	0.119145	11	0	9.6868	-1.10199e-06
2	0	0	1	0	1	931.227	0.451823	0.452165	0.000606627	8	0.11914	11	0	0.2996	2.74295e-07
2	0	0	1	0	1	933.823	0.464805	0.465103	0.0010304	8	0.119143	11	0	2.896	4.7924e-07
2	1	0	1	0	1	936.419	0.477788	0.47804	0.00142169	8	0.119146	11	0	5.4925	6.79627e-07
2	1	0	1	0	1	939.016	0.49077	0.491115	0.00197351	8	0.11915	11	0	8.0889	9.69218e-07
2	1	0	1	0	1	941.612	0.503751	0.504053	0.00278831	8	0.119156	11	0	10.6853	1.40546e-06
2	1	0	1	0	1	944.209	0.516733	0.517019	0.00409793	8	0.119165	11	0	13.2817	2.11871e-06
2	1	0	0	0	1	946.805	0.529716	0.530048	0.00629582	8	0.119179	11	0	15.8782	3.33709e-06
2	1	0	0	0	1	949.402	0.542698	0.542984	0.00982313	8	0.119199	11	0	18.4746	5.33381e-06
2	1	0	1	0	1	951.998	0.555681	0.555942	0.0151729	8	0.119231	11	0	21.0711	8.43526e-06
2	1	0	1	0	1	954.594	0.568663	0.568931	0.0238803	8	0.119281	11	0	23.6675	1.35862e-05
2	1	0	1	0	1	957.191	0.581644	0.581907	0.0373692	8	0.11936	11	0	26.2639	2.17454e-05
2	1	0	1	0	1	959.787	0.594626	0.594882	0.05782	8	0.119481	11	0	28.8603	3.43961e-05
2	1	0	1	0	1	962.384	0.607609	0.607921	0.0882742	8	0.119669	11	0	31.4568	5.36638e-05
2	1	0	1	0	1	964.98	0.620591	0.6209	0.132153	8	0.119952	11	0	34.0532	8.20537e-05
2	1	0	1	0	1	967.577	0.633573	0.633874	0.193022	8	0.12037	11	0	36.6496	0.000122352
2	1	0	1	0	1	970.173	0.646556	0.64686	0.273478	8	0.120972	11	0	39.2461	0.000176902
2	1	0	1	0	1	972.769	0.659537	0.659773	0.375437	8	0.12181	11	0	41.8425	0.000247703
2	1	0	1	0	1	975.366	0.672519	0.672827	0.498697	8	0.122941	11	0	44.4389	0.000335536
2	1	0	1	0	1	977.962	0.685501	0.685776	0.642166	8	0.124419	11	0	47.0353	0.000440382
2	1	0	0	0	1	980.559	0.698484	0.69878	0.806617	8	0.126298	11	0	49.6318	0.000563648
2	1	0	0	0	1	982.919	0.689696	0.68997	0.682615	8	0.128093	11	0	51.9922	0.000470984
2	1	0	0	0	1	985.516	0.676714	0.676997	0.526599	8	0.129656	11	0	54.5886	0.000356506
2	1	0	1	0	1	988.112	0.663731	0.663983	0.392943	8	0.130845	11	0	57.1851	0.000260907
2	1	0	1	0	1	990.708	0.650749	0.650998	0.284272	8	0.131718	11	0	59.7815	0.00018506
2	1	0	1	0	1	993.305	0.637767	0.63811	0.199205	8	0.13234	11	0	62.3779	0.000127115
2	1	0	1	0	1	995.901	0.624786	0.625068	0.135799	8	0.13277	11	0	64.9743	8.48834e-05
2	1	0	1	0	1	998.498	0.611803	0.612145	0.0908032	8	0.133061	11	0	67.5708	5.55847e-05
2	1	0	1	0	1	1001.09	0.598821	0.599163	0.0589631	8	0.133253	11	0	70.1672	3.53285e-05
2	1	0	1	0	1	1003.69	0.585839	0.586148	0.0372939	8	0.133376	11	0	72.7636	2.18597e-05
2	1	0	1	0	1	1006.29	0.572856	0.573122	0.0229403	8	0.133452	11	0	75.3601	1.31476e-05
2	1	0	1	0	1	1008.88	0.559874	0.560107	0.0135499	8	0.133499	11	0	77.9565	7.58937e-06
2	1	0	1	0	1	1011.48	0.546893	0.547172	0.00747468	8	0.133525	11	0	80.5529	4.08993e-06
2	1	0	1	0	1	1014.08	0.533911	0.534275	0.00363483	8	0.133539	11	0	83.1493	1.942e-06
2	1	0	0	0	1	1016.67	0.520928	0.521249	0.00128769	8	0.133545	11	0	85.7458	6.71205e-07
2	1	0	0	0	1	1019.27	0.507946	0.50826	-0.000141336	8	0.133547	11	0	0.000000000000000E+000	-7.18354e-08
2	1	0	1	0	1	1021.87	0.494963	0.495208	-0.00103785	8	0.133545	11	0	2.8961	-5.13953e-07
2	0	0	1	0	1	1024.46	0.481981	0.482229	-0.00173216	8	0.133541	11	0	5.4925	-8.35296e-07
2	0	0	1	0	1	1027.06	0.468999	0.46927	-0.00217231	8	0.133536	11	0	8.0889	-1.0194e-06
2	0	0	1	0	1	1029.65	0.456018	0.456286	-0.00246459	8	0.13353	11	0	10.6853	-1.12456e-06
2	1	0	1	0	0	1032.02	0.455818	0.456164	0.000849833	9	0.133528	11	0	0.9986	3.87663e-07
2	0	0	1	0	0	1034.61	0.468799	0.469055	0.0011334	9	0.13353	11	0	3.595	5.31629e-07
2	1	0	1	0	0	1037.21	0.481781	0.482052	0.00153771	9	0.133534	11	0	6.1914	7.41257e-07
2	1	0	0	0	0	1039.81	0.494764	0.495007	0.0021629	9	0.133539	11	0	8.7879	1.07065e-06
2	1	0	0	0	0	1042.4	0.507746	0.508045	0.00304946	9	0.133546	11	0	11.3843	1.54926e-06
2	1	0	1	0	0	1045	0.520729	0.521087	0.00450818	9	0.133555	11	0	13.9808	2.34915e-06
2	1	0	1	0	0	1047.6	0.533711	0.534025	0.00695188	9	0.13357	11	0	16.5772	3.71248e-06
2	1	0	1	0	0	1050.19	0.546692	0.546967	0.010766	9	0.133593	11	0	19.1736	5.88866e-06
2	1	0	1	0	0	1052.79	0.559674	0.559955	0.0167338	9	0.133628	11	0	21.77	9.37014e-06
2	1	0	1	0	0	1055.38	0.572657	0.57298	0.0263644	9	0.133683	11	0	24.3665	1.51063e-05
2	1	0	1	0	0	1057.98	0.585639	0.585963	0.0411965	9	0.13377	11	0	26.9629	2.41396e-05
2	1	0	1	0	0	1060.58	0.598622	0.598906	0.063553	9	0.133904	11	0	29.5594	3.80622e-05
2	1	0	1	0	0	1063.17	0.611604	0.611818	0.0965431	9	0.13411	11	0	32.1558	5.90668e-05
2	1	0	1	0	0	1065.77	0.624586	0.624936	0.143944	9	0.134418	11	0	34.7522	8.99558e-05
2	1	0	1	0	0	1068.37	0.637567	0.637866	0.20853	9	0.134872	11	0	37.3486	0.000133014
2	1	0	0	0	0	1070.96	0.65055	0.650809	0.293366	9	0.13552	11	0	39.9451	0.000190926
2	1	0	0	0	0	1073.56	0.663532	0.66392	0.40055	9	0.136416	11	0	42.5415	0.000265933
2	1	0	0	0	0	1076.16	0.676514	0.676856	0.528373	9	0.137619	11	0	45.1379	0.000357632
2	1	0	1	0	0	1078.75	0.689497	0.689824	0.677212	9	0.139181	11	0	47.7344	0.000467158
2	1	0	1	0	0	1081.11	0.698683	0.698929	0.787862	9	0.140947	11	0	50.0948	0.00055066
2	1	0	1	0	0	1083.71	0.685701	0.686006	0.614054	9	0.142759	11	0	52.6912	0.000421245
2	1	0	1	0	0	1086.31	0.672719	0.672943	0.467501	9	0.144157	11	0	55.2876	0.000314602
2	1	0	1	0	0	1088.9	0.659737	0.659983	0.345355	9	0.145206	11	0	57.884	0.000227929
2	1	0	1	0	0	1091.5	0.646755	0.647046	0.248193	9	0.145972	11	0	60.4805	0.000160592
2	1	0	1	0	0	1094.1	0.633773	0.634039	0.172877	9	0.146513	11	0	63.0769	0.000109611
2	1	0	1	0	0	1096.69	0.62079	0.621064	0.116966	9	0.146886	11	0	65.6734	7.26435e-05
2	1	0	1	0	0	1099.29	0.607808	0.608082	0.0771055	9	0.147134	11	0	68.2698	4.68865e-05
2	1	0	1	0	0	1101.88	0.594826	0.595096	0.0495447	9	0.147296	11	0	70.8662	2.94838e-05
2	1	0	1	0	0	1104.48	0.581845	0.582128	0.0309814	9	0.147399	11	0	73.4626	1.80351e-05
2	1	0	0	0	0	1107.08	0.568862	0.569125	0.0187996	9	0.147463	11	0	76.0591	1.06993e-05
2	1	0	0	0	0	1109.67	0.55588	0.556106	0.010924	9	0.1475	11	0	78.6555	6.07492e-06
2	1	0	0	0	0	1112.27	0.542898	0.543133	0.00590892	9	0.147522	11	0	81.2519	3.20933e-06
2	1	0	1	0	0	1114.87	0.529915	0.530176	0.00269726	9	0.147532	11	0	83.8484	1.43002e-06
2	1	0	1	0	0	1117.46	0.516933	0.517201	0.000701063	9	0.147537	11	0	86.4448	3.62591e-07
2	1	0	1	0	0	1120.06	0.503951	0.504225	-0.000545006	9	0.147536	11	0	1.2982	-2.74806e-07
2	1	0	1	0	0	1122.66	0.49097	0.491243	-0.00136195	9	0.147534	11	0	3.8946	-6.69047e-07
2	0	0	1	0	0	1125.25	0.477987	0.478188	-0.00194231	9	0.147529	11	0	6.4911	-9.28791e-07
2	0	0	1	0	0	1127.85	0.465005	0.465188	-0.00229953	9	0.147524	11	0	9.0875	-1.06971e-06
2	0	0	1	0	0	1130.45	0.452022	0.452313	-0.00245178	9	0.147518	11	0	11.684	-1.10897e-06
2	1	0	0	0	1	1132.81	0.459812	0.460081	0.00102773	10	0.147518	11	0	1.8974	4.72839e-07
2	1	0	0	0	1	1135.4	0.472794	0.473099	0.00129395	10	0.147521	11	0	4.4938	6.12167e-07
2	1	0	1	0	1	1138	0.485777	0.486127	0.00185733	10	0.147525	11	0	7.0903	9.02898e-07
2	1	0	1	0	1	1140.6	0.498759	0.499042	0.00235963	10	0.147531	11	0	9.6867	1.17756e-06
2	1	0	1	0	1	1143.19	0.51174	0.51204	0.00337356	10	0.147538	11	0	12.2831	1.7274e-06
2	1	0	1	0	1	1145.79	0.524722	0.524944	0.00498275	10	0.147549	11	0	14.8795	2.61566e-06
2	1	0	1	0	1	1148.39	0.537705	0.538006	0.00763119	10	0.147565	11	0	17.476	4.10563e-06
2	1	0	1	0	1	1150.98	0.550687	0.550938	0.0118838	10	0.14759	11	0	20.0724	6.54726e-06
2	1	0	1	0	1	1153.58	0.56367	0.563948	0.0185932	10	0.147629	11	0	22.6689	1.04856e-05
2	1	0	1	0	1	1156.18	0.576652	0.576923	0.0291929	10	0.147691	11	0	25.2653	1.68421e-05
2	1	0	1	0	1	1158.77	0.589633	0.589948	0.045552	10	0.147786	11	0	27.8617	2.68733e-05
2	1	0	1	0	1	1161.37	0.602615	0.602935	0.0700965	10	0.147934	11	0	30.4581	4.22636e-05
2	1	0	0	0	1	1163.96	0.615598	0.615871	0.105841	10	0.14816	11	0	33.0546	6.51844e-05
2	1	0	0	0	1	1166.56	0.62858	0.628911	0.156382	10	0.148497	11	0	35.651	9.83505e-05
2	1	0	1	0	1	1169.16	0.641563	0.6418	0.225135	10	0.148989	11	0	38.2475	0.000144492
2	1	0	1	0	1	1171.75	0.654545	0.65487	0.314358	10	0.149685	11	0	40.8439	0.000205864
2	1	0	1	0	1	1174.35	0.667527	0.667845	0.424674	10	0.150641	11	0	43.4403	0.000283616
2	1	0	1	0	1	1176.95	0.680508	0.680782	0.556544	10	0.15191	11	0	46.0367	0.000378886
2	1	0	1	0	1	1179.54	0.693491	0.693772	0.706397	10	0.153547	11	0	48.6332	0.000490078
2	1	0	1	0	1	1181.9	0.69469	0.694955	0.713494	10	0.155313	11	0	50.9935	0.000495846
2	1	0	1	0	1	1184.5	0.681707	0.682021	0.553818	10	0.15695	11	0	53.59	0.000377715
2	1	0	1	0	1	1187.1	0.668725	0.669072	0.419009	10	0.158208	11	0	56.1864	0.000280347
2	1	0	1	0	1	1189.69	0.655742	0.656036	0.306284	10	0.159144	11	0	58.7829	0.000200933
2	1	0	1	0	1	1192.29	0.64276	0.643072	0.215951	10	0.159817	11	0	61.3793	0.000138872
2	1	0	1	0	1	1194.89	0.629778	0.629999	0.148659	10	0.160285	11	0	63.9757	9.36552e-05
2	1	0	1	0	1	1197.48	0.616796	0.617087	0.09965	10	0.160604	11	0	66.5721	6.14927e-05
2	1	0	0	0	1	1200.08	0.603814	0.60413	0.0652244	10	0.160815	11	0	69.1686	3.9404e-05
2	1	0	0	0	1	1202.67	0.590832	0.591152	0.0416509	10	0.160952	11	0	71.765	2.4622e-05
2	1	0	0	0	1	1205.27	0.57785	0.578138	0.0257698	10	0.161038	11	0	74.3614	1.48985e-05
2	1	0	1	0	1	1207.87	0.564867	0.565176	0.0153021	10	0.16109	11	0	76.9579	8.64839e-06
2	1	0	1	0	1	1210.46	0.551885	0.552203	0.00864034	10	0.16112	11	0	79.5543	4.77122e-06
2	1	0	1	0	1	1213.06	0.538903	0.539157	0.00438205	10	0.161137	11	0	82.1507	2.36261e-06
2	1	0	1	0	1	1215.66	0.525922	0.526212	0.00181537	10	0.161144	11	0	84.7471	9.55271e-07
2	1	0	1	0	1	1218.25	0.512939	0.513198	0.000161357	10	0.161147	11	0	87.3436	8.28078e-08
2	1	0	1	0	1	1220.85	0.499957	0.500181	-0.000856952	10	0.161146	11	0	2.197	-4.28631e-07
2	1	0	1	0	1	1223.45	0.486974	0.487273	-0.00157935	10	0.161142	11	0	4.7935	-7.69574e-07
2	1	0	1	0	1	1226.04	0.473992	0.474266	-0.00206077	10	0.161138	11	0	7.3899	-9.77352e-07
2	0	0	1	0	1	1228.64	0.46101	0.461277	-0.00233297	10	0.161132	11	0	9.9863	-1.07614e-06
2	1	0	1	0	0	1231	0.450825	0.451115	0.00045514	11	0.161126	11	0	0.0999	2.05321e-07
2	0	0	1	0	0	1233.6	0.463807	0.464086	0.00100144	11	0.161129	11	0	2.6963	4.64755e-07
2	1	0	1	0	0	1236.19	0.476788	0.477064	0.00130497	11	0.161132	11	0	5.2927	6.22553e-07
2	1	0	1	0	0	1238.79	0.48977	0.490035	0.00181325	11	0.161136	11	0	7.8891	8.88558e-07
2	1	0	1	0	0	1241.39	0.502753	0.502999	0.00254289	11	0.161141	11	0	10.4856	1.27907e-06
2	1	0	1	0	0	1243.98	0.515735	0.515996	0.0036222	11	0.161149	11	0	13.082	1.86904e-06
2	1	0	1	0	0	1246.58	0.528718	0.529021	0.00552684	11	0.161161	11	0	15.6785	2.92381e-06
2	1	0	1	0	0	1249.18	0.541699	0.541983	0.00854289	11	0.161179	11	0	18.2749	4.6301e-06
2	1	0	1	0	0	1251.77	0.554681	0.554953	0.0132287	11	0.161207	11	0	20.8713	7.34132e-06
2	1	0	1	0	0	1254.37	0.567663	0.567953	0.0206449	11	0.16125	11	0	23.4677	1.17253e-05
2	1	0	0	0	0	1256.97	0.580646	0.580987	0.0324029	11	0.161318	11	0	26.0642	1.88257e-05
2	1	0	0	0	0	1259.56	0.593628	0.593898	0.0503428	11	0.161424	11	0	28.6606	2.98985e-05
2	1	0	1	0	0	1262.16	0.606611	0.606923	0.0771931	11	0.161588	11	0	31.2571	4.68502e-05
2	1	0	1	0	0	1264.75	0.619593	0.619855	0.115853	11	0.161835	11	0	33.8535	7.18123e-05
2	1	0	1	0	0	1267.35	0.632574	0.632883	0.170358	11	0.162204	11	0	36.4499	0.000107816
2	1	0	1	0	0	1269.95	0.645556	0.645871	0.243643	11	0.162737	11	0	39.0463	0.000157362
2	1	0	1	0	0	1272.54	0.658539	0.658846	0.337624	11	0.163487	11	0	41.6428	0.000222442
2	1	0	1	0	0	1275.14	0.671521	0.671834	0.452533	11	0.164509	11	0	44.2392	0.000304027
2	1	0	1	0	0	1277.74	0.684504	0.684809	0.587888	11	0.165857	11	0	46.8357	0.000402592
2	1	0	1	0	0	1280.33	0.697486	0.697728	0.741712	11	0.16758	11	0	49.4321	0.000517513
2	1	0	1	0	0	1282.69	0.690694	0.690975	0.647323	11	0.169277	11	0	51.7925	0.000447284
2	1	0	1	0	0	1285.29	0.677712	0.678001	0.496249	11	0.170755	11	0	54.3889	0.000336457
2	1	0	1	0	0	1287.89	0.66473	0.664991	0.368667	11	0.171872	11	0	56.9853	0.00024516
2	1	0	1	0	0	1290.48	0.651749	0.651994	0.266778	11	0.172691	11	0	59.5817	0.000173938
2	1	0	0	0	0	1293.08	0.638766	0.639058	0.186964	11	0.173275	11	0	62.1782	0.000119481
2	1	0	0	0	0	1295.68	0.625784	0.626083	0.127478	11	0.173679	11	0	64.7746	7.98119e-05
2	1	0	0	0	0	1298.27	0.612802	0.613093	0.0846377	11	0.17395	11	0	67.371	5.18908e-05
2	1	0	1	0	0	1300.87	0.599819	0.600162	0.0546482	11	0.174129	11	0	69.9675	3.27978e-05
2	1	0	1	0	0	1303.47	0.586837	0.587121	0.0346275	11	0.174243	11	0	72.5639	2.03305e-05
2	1	0	1	0	0	1306.06	0.573855	0.574129	0.0211905	11	0.174314	11	0	75.1603	1.21661e-05
2	1	0	1	0	0	1308.66	0.560874	0.56121	0.0123921	11	0.174356	11	0	77.7567	6.95455e-06
2	1	0	1	0	0	1311.25	0.547891	0.548206	0.00677042	11	0.174381	11	0	80.3532	3.71158e-06
2	1	0	1	0	0	1313.85	0.534909	0.53523	0.0031606	11	0.174393	11	0	82.9496	1.69165e-06
2	1	0	1	0	0	1316.45	0.521926	0.522149	0.00105192	11	0.174399	11	0	85.5461	5.49258e-07
2	1	0	1	0	0	1319.04	0.508945	0.509202	-0.000266591	11	0.174399	11	0	0.699	-1.35749e-07
2	0	0	1	0	0	1321.64	0.495963	0.496225	-0.00122127	11	0.174397	11	0	3.2954	-6.06025e-07
2	0	0	1	0	0	1324.24	0.482981	0.483281	-0.0018248	11	0.174393	11	0	5.8918	-8.81889e-07
2	0	0	0	0	0	1326.83	0.469998	0.470248	-0.0022414	11	0.174388	11	0	8.4883	-1.05401e-06
2	0	0	0	0	0	1329.43	0.457016	0.457344	-0.00244778	11	0.174382	11	0	11.0847	-1.11948e-06
2	0	0	1	0	1	1331.79	0.454819	0.455148	0.000770279	12	0.174379	11	0	0.7989	3.50591e-07
2	1	0	1	0	1	1334.39	0.467801	0.468038	0.00110974	12	0.174381	11	0	3.3953	5.19401e-07
2	1	0	1	0	1	1336.98	0.480783	0.481083	0.00146583	12	0.174384	11	0	5.9917	7.05188e-07
2	1	0	1	0	1	1339.58	0.493766	0.49408	0.00195233	12	0.174389	11	0	8.5882	9.64606e-07
2	1	0	1	0	1	1342.18	0.506747	0.506996	0.00276587	12	0.174395	11	0	11.1846	1.40228e-06
2	1	0	1	0	1	1344.77	0.519729	0.519994	0.00399841	12	0.174404	11	0	13.781	2.07915e-06
2	1	0	0	0	1	1347.37	0.532712	0.533001	0.00606239	12	0.174417	11	0	16.3775	3.23126e-06
2	1	0	0	0	1	1349.97	0.545694	0.545986	0.00941293	12	0.174437	11	0	18.9739	5.13933e-06
2	1	0	0	0	1	1352.56	0.558676	0.558928	0.01464	12	0.174467	11	0	21.5703	8.1827e-06
2	1	0	1	0	1	1355.16	0.571658	0.571945	0.0231715	12	0.174516	11	0	24.1668	1.32528e-05
2	1	0	1	0	1	1357.76	0.584641	0.584902	0.036159	12	0.174591	11	0	26.7632	2.11495e-05
2	1	0	1	0	1	1360.35	0.597622	0.597908	0.0559265	12	0.174709	11	0	29.3596	3.34389e-05
2	1	0	1	0	1	1362.95	0.610604	0.610857	0.0852768	12	0.174891	11	0	31.956	5.20919e-05
2	1	0	1	0	1	1365.54	0.623587	0.623927	0.127168	12	0.175163	11	0	34.5525	7.93433e-05
2	1	0	1	0	1	1368.14	0.636569	0.636847	0.185595	12	0.175566	11	0	37.1489	0.000118196
2	1	0	1	0	1	1370.74	0.649552	0.649891	0.263235	12	0.176145	11	0	39.7454	0.000171074
2	1	0	1	0	1	1373.33	0.662533	0.662837	0.361583	12	0.176952	11	0	42.3418	0.000239671
2	1	0	1	0	1	1375.93	0.675515	0.675838	0.481079	12	0.178042	11	0	44.9382	0.000325131
2	1	0	1	0	1	1378.53	0.688497	0.68882	0.620097	12	0.179468	11	0	47.5346	0.000427135
2	1	0	1	0	1	1380.89	0.699683	0.7	0.75421	12	0.181098	11	0	49.895	0.000527947
2	1	0	1	0	1	1383.48	0.686701	0.686989	0.58721	12	0.182833	11	0	52.4914	0.000403407
2	1	0	0	0	1	1386.08	0.673718	0.67401	0.444185	12	0.184166	11	0	55.0879	0.000299385
2	1	0	0	0	1	1388.68	0.660736	0.661017	0.326342	12	0.18516	11	0	57.6843	0.000215717
2	1	0	1	0	1	1391.27	0.647753	0.648055	0.233222	12	0.185881	11	0	60.2808	0.000151141
2	1	0	1	0	1	1393.87	0.634771	0.635032	0.161726	12	0.186389	11	0	62.8772	0.000102701
2	1	0	1	0	1	1396.47	0.621789	0.62206	0.108877	12	0.186736	11	0	65.4736	6.77279e-05
2	1	0	1	0	1	1399.06	0.608807	0.609063	0.0719022	12	0.186967	11	0	68.07	4.3793e-05
2	1	0	1	0	1	1401.66	0.595825	0.596074	0.0464212	12	0.187119	11	0	70.6665	2.76704e-05
2	1	0	1	0	1	1404.26	0.582843	0.583119	0.0290737	12	0.187215	11	0	73.2629	1.69534e-05
2	1	0	1	0	1	1406.85	0.569861	0.570135	0.0175756	12	0.187274	11	0	75.8593	1.00205e-05
2	1	0	1	0	1	1409.45	0.556878	0.557184	0.0101932	12	0.18731	11	0	78.4558	5.67951e-06
2	1	0	1	0	1	1412.04	0.543897	0.544264	0.00531735	12	0.187329	11	0	81.0522	2.89404e-06
2	1	0	1	0	1	1414.64	0.530915	0.531219	0.00232686	12	0.187339	11	0	83.6486	1.23607e-06
2	1	0	1	0	1	1417.24	0.517933	0.518251	0.000490704	12	0.187342	11	0	86.245	2.54308e-07
2	0	0	0	0	1	1419.83	0.50495	0.505208	-0.000646217	12	0.187342	11	0	1.3981	-3.26474e-07
2	0	0	0	0	1	1422.43	0.491968	0.492272	-0.0013773	12	0.187339	11	0	3.9945	-6.78004e-07
2	0	0	1	0	1	1425.03	0.478985	0.479257	-0.00188491	12	0.187334	11	0	6.591	-9.03356e-07
2	0	0	1	0	1	1427.62	0.466003	0.466245	-0.00232889	12	0.187329	11	0	9.1874	-1.08583e-06
2	0	0	1	0	1	1430.22	0.453022	0.453291	-0.00249116	12	0.187323	11	0	11.7838	-1.12922e-06
2	1	0	1	0	0	1432.58	0.458814	0.459067	0.000831836	13	0.187322	11	0	1.6977	3.81869e-07
2	1	0	1	0	0	1435.18	0.471796	0.472059	0.00114018	13	0.187325	11	0	4.2941	5.3823e-07
2	1	0	1	0	0	1437.77	0.484777	0.485022	0.00153103	13	0.187329	11	0	6.8905	7.42584e-07
2	1	0	0	0	0	1440.37	0.49776	0.497982	0.00212053	13	0.187333	11	0	9.487	1.05599e-06
2	1	0	0	0	0	1442.97	0.510742	0.510963	0.00298388	13	0.18734	11	0	12.0834	1.52466e-06
2	1	0	1	0	0	1445.56	0.523725	0.524007	0.00454566	13	0.18735	11	0	14.6799	2.38196e-06
2	1	0	1	0	0	1448.16	0.536707	0.536967	0.00689873	13	0.187364	11	0	17.2763	3.70439e-06
2	1	0	1	0	0	1450.76	0.549689	0.549984	0.0106261	13	0.187387	11	0	19.8727	5.8442e-06
2	1	0	1	0	0	1453.35	0.56267	0.563002	0.0163919	13	0.187421	11	0	22.4691	9.22864e-06
2	1	0	1	0	0	1455.95	0.575653	0.575955	0.0258961	13	0.187476	11	0	25.0656	1.4915e-05
2	1	0	1	0	0	1458.55	0.588635	0.588931	0.040274	13	0.18756	11	0	27.662	2.37186e-05
2	1	0	1	0	0	1461.14	0.601617	0.601888	0.0621058	13	0.187692	11	0	30.2584	3.73807e-05
2	1	0	1	0	0	1463.74	0.6146	0.614906	0.0941114	13	0.187892	11	0	32.8549	5.78697e-05
2	1	0	1	0	0	1466.34	0.627581	0.627865	0.139548	13	0.188192	11	0	35.4513	8.76174e-05
2	1	0	1	0	0	1468.93	0.640563	0.64086	0.201944	13	0.188632	11	0	38.0477	0.000129418
2	1	0	1	0	0	1471.53	0.653545	0.653842	0.284099	13	0.189259	11	0	40.6441	0.000185756
2	1	0	0	0	0	1474.12	0.666528	0.666864	0.387508	13	0.190127	11	0	43.2406	0.000258415
2	1	0	0	0	0	1476.72	0.67951	0.679889	0.511202	13	0.19129	11	0	45.837	0.000347561
2	1	0	0	0	0	1479.32	0.692492	0.692799	0.654652	13	0.1928	11	0	48.4334	0.000453542
2	1	0	0	0	0	1481.68	0.695688	0.696004	0.68578	13	0.194464	11	0	50.7938	0.000477305
2	1	0	1	0	0	1484.27	0.682705	0.683015	0.526471	13	0.196031	11	0	53.3903	0.000359588
2	1	0	1	0	0	1486.87	0.669723	0.670089	0.395008	13	0.197222	11	0	55.9867	0.000264691
2	1	0	1	0	0	1489.47	0.656741	0.657029	0.287391	13	0.198102	11	0	58.5831	0.000188824
2	1	0	1	0	0	1492.06	0.64376	0.644057	0.204569	13	0.198734	11	0	61.1795	0.000131754
2	1	0	1	0	0	1494.66	0.630777	0.631139	0.140918	13	0.199179	11	0	63.776	8.89386e-05
2	1	0	1	0	0	1497.26	0.617795	0.618067	0.0943877	13	0.19948	11	0	66.3724	5.83379e-05
2	1	0	1	0	0	1499.85	0.604812	0.605093	0.0616696	13	0.19968	11	0	68.9689	3.73159e-05
2	1	0	1	0	0	1502.45	0.59183	0.592109	0.0394781	13	0.199809	11	0	71.5653	2.33754e-05
2	1	0	1	0	0	1505.05	0.578848	0.579139	0.0244861	13	0.199891	11	0	74.1617	1.41808e-05
2	1	0	1	0	0	1507.64	0.565867	0.566153	0.0144644	13	0.19994	11	0	76.7581	8.18907e-06
2	1	0	0	0	0	1510.24	0.552884	0.55323	0.00806489	13	0.199969	11	0	79.3546	4.46174e-06
2	1	0	0	0	0	1512.83	0.539902	0.540166	0.0040271	13	0.199984	11	0	81.951	2.1753e-06
2	1	0	0	0	0	1515.43	0.52692	0.527178	0.00161615	13	0.199991	11	0	84.5474	8.52e-07
2	1	0	1	0	0	1518.03	0.513937	0.514203	9.0573e-05	13	0.199993	11	0	87.1439	4.65729e-08
2	1	0	1	0	0	1520.62	0.500955	0.501216	-0.000880933	13	0.199992	11	0	2.3967	-4.41538e-07
2	1	0	1	0	0	1523.22	0.487974	0.488235	-0.00151639	13	0.199989	11	0	4.9931	-7.40355e-07
2	0	0	1	0	0	1525.82	0.474991	0.47524	-0.00197731	13	0.199984	11	0	7.5896	-9.39698e-07
2	0	0	1	0	0	1528.41	0.462009	0.462239	-0.00231574	13	0.199978	11	0	10.186	-1.07043e-06
2	1	0	1	0	1	1530.82	0.450051	0.450257	0.00024027	14	0.199972	11	0	0.000000000000000E+000	1.08183e-07
2	1	0	0	0	1	1533.37	0.462808	0.463091	0.000973351	14	0.199974	11	0	2.4966	4.5075e-07
2	0	0	0	0	1	1535.97	0.47579	0.476087	0.00118888	14	0.199977	11	0	5.093	5.66008e-07
2	0	0	0	0	1	1538.56	0.488772	0.489079	0.0016547	14	0.199981	11	0	7.6894	8.09279e-07
2	1	0	1	0	1	1541.16	0.501755	0.501997	0.00231353	14	0.199986	11	0	10.2859	1.16139e-06
2	1	0	1	0	1	1543.76	0.514737	0.515002	0.00332073	14	0.199993	11	0	12.8823	1.71018e-06
2	1	0	1	0	1	1546.35	0.527718	0.527981	0.00488027	14	0.200004	11	0	15.4787	2.57669e-06
2	1	0	1	0	1	1548.95	0.540701	0.54103	0.00754336	14	0.20002	11	0	18.0752	4.08118e-06
2	1	0	1	0	1	1551.55	0.553683	0.553973	0.0117319	14	0.200045	11	0	20.6716	6.49917e-06
2	1	0	1	0	1	1554.14	0.566665	0.566936	0.0184087	14	0.200083	11	0	23.268	1.04366e-05
2	1	0	1	0	1	1556.74	0.579648	0.579943	0.0288949	14	0.200144	11	0	25.8645	1.67574e-05
2	1	0	1	0	1	1559.34	0.59263	0.592953	0.0449843	14	0.200239	11	0	28.4609	2.66735e-05
2	1	0	1	0	1	1561.93	0.605611	0.605928	0.0690469	14	0.200385	11	0	31.0573	4.18374e-05
2	1	0	1	0	1	1564.53	0.618593	0.618864	0.103932	14	0.200607	11	0	33.6537	6.43197e-05
2	1	0	0	0	1	1567.13	0.631576	0.631878	0.153258	14	0.200938	11	0	36.2502	9.68407e-05
2	1	0	0	0	1	1569.72	0.644558	0.644863	0.220287	14	0.201419	11	0	38.8466	0.000142055
2	1	0	1	0	1	1572.32	0.65754	0.657808	0.307237	14	0.2021	11	0	41.4431	0.000202103
2	1	0	1	0	1	1574.91	0.670523	0.670834	0.415334	14	0.203034	11	0	44.0395	0.00027862
2	1	0	1	0	1	1577.51	0.683504	0.683802	0.54324	14	0.204275	11	0	46.6359	0.000371469
2	1	0	1	0	1	1580.11	0.696486	0.696718	0.690799	14	0.205873	11	0	49.2323	0.000481293
2	1	0	1	0	1	1582.47	0.691693	0.692059	0.624623	14	0.207497	11	0	51.5927	0.000432276
2	1	0	1	0	1	1585.06	0.678712	0.678971	0.475581	14	0.20892	11	0	54.1891	0.000322906
2	1	0	1	0	1	1587.66	0.665729	0.666085	0.351579	14	0.209987	11	0	56.7856	0.000234182
2	1	0	1	0	1	1590.26	0.652747	0.653036	0.253768	14	0.210768	11	0	59.382	0.00016572
2	1	0	1	0	1	1592.85	0.639764	0.64008	0.177212	14	0.211322	11	0	61.9785	0.00011343
2	1	0	1	0	1	1595.45	0.626782	0.627085	0.120376	14	0.211704	11	0	64.5749	7.54862e-05
2	1	0	1	0	1	1598.05	0.6138	0.614045	0.0802018	14	0.211961	11	0	67.1713	4.92475e-05
2	1	0	1	0	1	1600.64	0.600819	0.601081	0.0521017	14	0.212131	11	0	69.7677	3.13173e-05
2	1	0	0	0	1	1603.24	0.587836	0.588112	0.0329811	14	0.212239	11	0	72.3642	1.93966e-05
2	1	0	0	0	1	1605.84	0.574854	0.575141	0.0202454	14	0.212307	11	0	74.9606	1.1644e-05
2	1	0	1	0	1	1608.43	0.561871	0.562249	0.0118043	14	0.212348	11	0	77.5571	6.63693e-06
2	1	0	1	0	1	1611.03	0.548889	0.549115	0.00642404	14	0.212371	11	0	80.1535	3.52754e-06
2	1	0	1	0	1	1613.63	0.535907	0.536171	0.00307062	14	0.212383	11	0	82.7499	1.64638e-06
2	0	0	1	0	1	1616.22	0.522926	0.523158	0.00100539	14	0.212388	11	0	85.3463	5.25976e-07
2	0	0	1	0	1	1618.82	0.509943	0.510214	-0.000304693	14	0.212389	11	0	0.2996	-1.55459e-07
2	0	0	1	0	1	1621.41	0.496961	0.497188	-0.00121594	14	0.212386	11	0	2.896	-6.04551e-07
2	0	0	1	0	1	1624.01	0.483979	0.484195	-0.00177976	14	0.212382	11	0	5.4924	-8.6175e-07
2	0	0	1	0	1	1626.61	0.470996	0.471292	-0.00211575	14	0.212377	11	0	8.0889	-9.97135e-07
2	0	0	1	0	1	1629.2	0.458015	0.458304	-0.0023706	14	0.212371	11	0	10.6853	-1.08646e-06
2	0	0	1	0	0	1631.57	0.453821	0.454112	0.000664012	15	0.212368	11	0	0.6991	3.01536e-07
2	1	0	1	0	0	1634.16	0.466803	0.467092	0.00105016	15	0.21237	11	0	3.2955	4.90521e-07
2	1	0	1	0	0	1636.76	0.479784	0.480033	0.0014077	15	0.212373	11	0	5.8919	6.75742e-07
2	1	0	1	0	0	1639.36	0.492766	0.49303	0.00184761	15	0.212378	11	0	8.4883	9.10925e-07
2	1	0	1	0	0	1641.95	0.505749	0.505979	0.00252616	15	0.212383	11	0	11.0848	1.27819e-06
2	1	0	1	0	0	1644.55	0.518731	0.518981	0.00373796	15	0.212391	11	0	13.6812	1.93993e-06
2	1	0	1	0	0	1647.14	0.531713	0.532028	0.00548803	15	0.212403	11	0	16.2776	2.91979e-06
2	1	0	1	0	0	1649.74	0.544695	0.54499	0.00843881	15	0.212421	11	0	18.8741	4.59907e-06
2	1	0	1	0	0	1652.34	0.557677	0.55799	0.0131707	15	0.212449	11	0	21.4705	7.34911e-06
2	1	0	1	0	0	1654.93	0.570659	0.570951	0.0206719	15	0.212492	11	0	24.0669	1.18027e-05
2	1	0	1	0	0	1657.53	0.583641	0.583899	0.0323213	15	0.21256	11	0	26.6633	1.88723e-05
2	1	0	0	0	0	1660.13	0.596624	0.596984	0.0499774	15	0.212666	11	0	29.2598	2.98357e-05
2	1	0	0	0	0	1662.72	0.609606	0.609967	0.076164	15	0.212827	11	0	31.8562	4.64575e-05
2	1	0	1	0	0	1665.32	0.622589	0.622974	0.113825	15	0.213071	11	0	34.4527	7.09101e-05
2	1	0	1	0	0	1667.92	0.63557	0.635852	0.166339	15	0.213432	11	0	37.0491	0.000105767
2	1	0	1	0	0	1670.51	0.648552	0.64882	0.236257	15	0.213951	11	0	39.6455	0.000153288
2	1	0	1	0	0	1673.11	0.661534	0.661778	0.326746	15	0.214678	11	0	42.2419	0.000216233
2	1	0	1	0	0	1675.71	0.674517	0.674739	0.436184	15	0.215665	11	0	44.8384	0.00029431
2	1	0	1	0	0	1678.3	0.687499	0.68784	0.564339	15	0.21696	11	0	47.4348	0.000388175
2	1	0	0	0	0	1680.8	0.700007	0.700311	0.706624	15	0.21854	11	0	49.93	0.000494857
2	1	0	1	0	0	1683.26	0.687699	0.688059	0.554016	15	0.220082	11	0	52.3916	0.000381196
2	1	0	1	0	0	1685.85	0.674716	0.675013	0.418948	15	0.221339	11	0	54.9881	0.000282795
2	1	0	1	0	0	1688.45	0.661734	0.662018	0.307761	15	0.222277	11	0	57.5845	0.000203744
2	1	0	1	0	0	1691.05	0.648753	0.649043	0.220749	15	0.222958	11	0	60.1809	0.000143275
2	1	0	1	0	0	1693.64	0.63577	0.636108	0.153202	15	0.223439	11	0	62.7773	9.74532e-05
2	1	0	0	0	0	1696.24	0.622788	0.623015	0.103587	15	0.223769	11	0	65.3738	6.45364e-05
2	1	0	0	0	0	1698.84	0.609806	0.610122	0.0684502	15	0.223989	11	0	67.9702	4.17629e-05
2	1	0	1	0	0	1701.43	0.596823	0.597205	0.0442731	15	0.224133	11	0	70.5667	2.64401e-05
2	1	0	1	0	0	1704.03	0.583841	0.584153	0.0277644	15	0.224225	11	0	73.1631	1.62187e-05
2	1	0	1	0	0	1706.63	0.570859	0.5712	0.0167549	15	0.224282	11	0	75.7595	9.57039e-06
2	1	0	1	0	0	1709.22	0.557878	0.558186	0.00962857	15	0.224315	11	0	78.3559	5.37454e-06
2	1	0	1	0	0	1711.82	0.544895	0.545111	0.0050068	15	0.224334	11	0	80.9524	2.72926e-06
2	1	0	1	0	0	1714.42	0.531913	0.532149	0.00215708	15	0.224343	11	0	83.5488	1.14789e-06
2	1	0	1	0	0	1717.01	0.518931	0.51919	0.00040105	15	0.224346	11	0	86.1452	2.08221e-07
2	0	0	1	0	0	1719.61	0.505948	0.506224	-0.000626951	15	0.224345	11	0	1.7976	-3.17378e-07
2	0	0	1	0	0	1722.2	0.492966	0.493246	-0.00139093	15	0.224342	11	0	4.394	-6.86071e-07
2	1	0	1	0	0	1724.8	0.479985	0.480222	-0.00184701	15	0.224338	11	0	6.9904	-8.86973e-07
2	0	0	0	0	0	1727.4	0.467002	0.467287	-0.00211923	15	0.224333	11	0	9.5869	-9.90288e-07
2	0	0	0	0	0	1729.99	0.45402	0.454251	-0.00239377	15	0.224327	11	0	12.1833	-1.08737e-06
2	0	0	0	0	0	1730.79	0.450001	0.450238	-0.00138275	15	0.224325	11	0	12.9823	-6.22565e-07