File: ACS_Catal_2026/Figures_Na_K/main_figures/data/EC/20240401_2-128_CV_cycles_alpha_gamma/gamma/20240328_2-128_008_gamma_Na-2_03_CVA_C02.mpt
EC-Lab ASCII FILE
Nb header lines : 66

Cyclic Voltammetry Advanced

Run on channel : 2 (SN 66414)
User :
CE vs. WE compliance from -10 V to 10 V
Electrode connection : standard
Potential control : Ewe
Ewe ctrl range : min = -1.00 V, max = 1.00 V
Safety Limits :
	Do not start on E overload
Acquisition started on : 04/01/2024 20:34:39.484
Loaded Setting File :  C:\Users\NakamuraT\Documents\EC-Lab\Data\Yatsuzuka\20240401_2-128_CV_cycles_alpha_gamma\20240328_2-128_001_alpha_K-1.mps
Saved on :
	File : 20240328_2-128_008_gamma_Na-2_03_CVA_C02.mpr
	Directory : C:\Users\NakamuraT\Documents\EC-Lab\Data\Yatsuzuka\20240401_2-128_CV_cycles_alpha_gamma\
	Host : 192.109.209.100
Device : SP-150e (SN .003411)
Address : 192.109.209.236
EC-Lab for windows v11.50 (software)
Internet server v11.50 (firmware)
Command interpretor v11.50 (firmware)
Electrode material :
Initial state :
Electrolyte :
Comments :
Electrode surface area : 0.001 cm2
Characteristic mass : 0.001 g
Equivalent Weight : 0.000 g/eq.
Density : 0.000 g/cm3
Volume (V) : 0.001 cm3
Cycle Definition : Charge/Discharge alternance
Ei (V)              0.450
vs.                 Ref
ti (h:m:s)          0:00:10.0000
dti (s)             0.0000
dE/dt               5.000
dE/dt unit          mV/s
E1 (V)              0.700
vs.                 Ref
t1 (h:m:s)          0:00:0.0000
dt1 (s)             0.1000
Step percent        50
N                   10
E range min (V)     -1.000
E range max (V)     1.000
I Range             10 mA
I Range min         Unset
I Range max         Unset
I Range init        Unset
Bandwidth           5
E2 (V)              0.450
vs.                 Ref
t2 (h:m:s)          0:00:0.0000
dt2 (s)             0.1000
nc cycles           14
nr                  1
Reverse Scan        0
Ef (V)              0.000
vs.                 Eoc
tf (h:m:s)          0:00:0.0000
dtf (s)             0.1000

mode	ox/red	error	control changes	Ns changes	counter inc.	time/s	control/V	Ewe/V	<I>/mA	cycle number	(Q-Qo)/C	I Range	Ns	step time/s	P/W
2	0	0	0	0	0	231.742	0.449953	0.45016	-0.00226018	1	0.0000000E+000	11	0	0.000000000000000E+000	-1.01744e-06
2	1	0	0	0	0	234.294	0.46271	0.462973	0.000942772	1	2.18837e-06	11	0	2.4966	4.36478e-07
2	0	0	0	0	0	236.89	0.475693	0.476026	0.00108323	1	4.83442e-06	11	0	5.093	5.15644e-07
2	1	0	1	0	0	239.487	0.488675	0.489014	0.001206	1	7.90664e-06	11	0	7.6895	5.89751e-07
2	1	0	1	0	0	242.083	0.501657	0.502015	0.00155166	1	1.16988e-05	11	0	10.2859	7.78956e-07
2	1	0	1	0	0	244.679	0.514639	0.514995	0.00234225	1	1.68032e-05	11	0	12.8823	1.20625e-06
2	1	0	1	0	0	247.276	0.527621	0.527923	0.00335609	1	2.3973e-05	11	0	15.4787	1.77176e-06
2	1	0	1	0	0	249.872	0.540603	0.540938	0.00493591	1	3.44033e-05	11	0	18.0752	2.67002e-06
2	1	0	1	0	0	252.469	0.553585	0.553917	0.00743467	1	5.00965e-05	11	0	20.6716	4.1182e-06
2	1	0	1	0	0	255.065	0.566568	0.566909	0.0116666	1	7.45828e-05	11	0	23.2681	6.61389e-06
2	1	0	1	0	0	257.662	0.57955	0.579851	0.0188786	1	0.000113642	11	0	25.8645	1.09468e-05
2	1	0	1	0	0	260.258	0.592532	0.592893	0.031446	1	0.000177878	11	0	28.4609	1.86441e-05
2	1	0	1	0	0	262.854	0.605514	0.605804	0.051692	1	0.000283917	11	0	31.0573	3.13152e-05
2	1	0	1	0	0	265.451	0.618496	0.618908	0.0833325	1	0.000456389	11	0	33.6537	5.15752e-05
2	1	0	0	0	0	268.047	0.631478	0.631811	0.13015	1	0.00073005	11	0	36.2502	8.22303e-05
2	1	0	0	0	0	270.644	0.64446	0.644811	0.196086	1	0.00114968	11	0	38.8466	0.000126439
2	1	0	0	0	0	273.24	0.657443	0.657808	0.284701	1	0.00176913	11	0	41.443	0.000187279
2	1	0	1	0	0	275.837	0.670425	0.670776	0.39762	1	0.00265011	11	0	44.0395	0.000266714
2	1	0	1	0	0	278.433	0.683407	0.683727	0.537016	1	0.00385854	11	0	46.6359	0.000367172
2	1	0	1	0	0	281.029	0.696389	0.696772	0.704099	1	0.00546459	11	0	49.2323	0.000490596
2	1	0	1	0	0	283.41	0.691695	0.692034	0.625827	1	0.00713137	11	0	51.6124	0.000433093
2	1	0	1	0	0	286.006	0.678713	0.679043	0.461404	1	0.00853376	11	0	54.2088	0.000313313
2	1	0	1	0	0	288.602	0.665731	0.66609	0.331786	1	0.00955546	11	0	56.8052	0.000220999
2	1	0	1	0	0	291.199	0.652748	0.653085	0.231931	1	0.0102808	11	0	59.4017	0.00015147
2	1	0	1	0	0	293.795	0.639767	0.640042	0.157196	1	0.0107806	11	0	61.9981	0.000100612
2	1	0	1	0	0	296.392	0.626785	0.627142	0.103339	1	0.0111145	11	0	64.5945	6.48081e-05
2	1	0	1	0	0	298.988	0.613803	0.61414	0.0654616	1	0.0113304	11	0	67.1909	4.02026e-05
2	1	0	0	0	0	301.585	0.60082	0.601114	0.0396884	1	0.0114645	11	0	69.7874	2.38572e-05
2	1	0	0	0	0	304.181	0.587838	0.588157	0.0227666	1	0.0115438	11	0	72.3838	1.33904e-05
2	1	0	0	0	0	306.777	0.574856	0.575184	0.0122765	1	0.0115877	11	0	74.9802	7.06125e-06
2	1	0	1	0	0	309.374	0.561874	0.562201	0.00582336	1	0.0116101	11	0	77.5767	3.2739e-06
2	1	0	1	0	0	311.97	0.548892	0.549244	0.00218251	1	0.0116198	11	0	80.1731	1.19873e-06
2	1	0	1	0	0	314.567	0.53591	0.536239	0.000198847	1	0.0116226	11	0	82.7695	1.0663e-07
2	0	0	1	0	0	317.163	0.522928	0.523247	-0.000897335	1	0.0116215	11	0	2.0971	-4.69528e-07
2	0	0	1	0	0	319.76	0.509945	0.51028	-0.00158649	1	0.011618	11	0	4.6936	-8.09557e-07
2	0	0	1	0	0	322.356	0.496963	0.497293	-0.00206846	1	0.0116132	11	0	7.29	-1.02863e-06
2	0	0	1	0	0	324.952	0.483981	0.484315	-0.00237826	1	0.0116074	11	0	9.8864	-1.15183e-06
2	0	0	1	0	0	327.549	0.470999	0.471329	-0.00256097	1	0.0116011	11	0	12.4829	-1.20706e-06
2	0	0	1	0	0	330.145	0.458017	0.458311	-0.00255207	1	0.0115944	11	0	15.0793	-1.16964e-06
2	0	0	1	0	1	332.508	0.453823	0.454184	0.000421063	2	0.0115902	11	0	0.5992	1.9124e-07
2	1	0	1	0	1	335.104	0.466805	0.467054	0.000476254	2	0.0115914	11	0	3.1956	2.22436e-07
2	0	0	1	0	1	337.701	0.479787	0.480087	0.000815631	2	0.0115932	11	0	5.792	3.91574e-07
2	1	0	1	0	1	340.297	0.492769	0.493071	0.000845881	2	0.0115954	11	0	8.3884	4.17079e-07
2	1	0	0	0	1	342.894	0.505751	0.506122	0.00130088	2	0.0115983	11	0	10.9849	6.58402e-07
2	1	0	0	0	1	345.49	0.518733	0.51907	0.00198245	2	0.0116025	11	0	13.5813	1.02903e-06
2	1	0	0	0	1	348.086	0.531715	0.532007	0.0027506	2	0.0116084	11	0	16.1777	1.46334e-06
2	1	0	1	0	1	350.683	0.544698	0.545004	0.00423744	2	0.0116176	11	0	18.7742	2.30942e-06
2	1	0	1	0	1	353.279	0.55768	0.558025	0.00700707	2	0.0116321	11	0	21.3706	3.91012e-06
2	1	0	1	0	1	355.876	0.570662	0.570989	0.0117559	2	0.0116559	11	0	23.967	6.71252e-06
2	1	0	1	0	1	358.472	0.583644	0.583982	0.0199255	2	0.0116959	11	0	26.5634	1.16361e-05
2	1	0	1	0	1	361.069	0.596626	0.59696	0.0337823	2	0.011764	11	0	29.1599	2.01667e-05
2	1	0	1	0	1	363.665	0.609608	0.609959	0.0563002	2	0.0118789	11	0	31.7563	3.43408e-05
2	1	0	1	0	1	366.261	0.62259	0.62298	0.091398	2	0.012068	11	0	34.3527	5.69392e-05
2	1	0	1	0	1	368.858	0.635573	0.635903	0.142889	2	0.0123687	11	0	36.9492	9.08635e-05
2	1	0	1	0	1	371.454	0.648555	0.648831	0.214742	2	0.0128288	11	0	39.5456	0.000139331
2	1	0	1	0	1	374.051	0.661537	0.661827	0.310357	2	0.0135056	11	0	42.142	0.000205402
2	1	0	1	0	1	376.647	0.674519	0.674787	0.432158	2	0.0144643	11	0	44.7384	0.000291615
2	1	0	0	0	1	379.244	0.687501	0.687878	0.58113	2	0.0157737	11	0	47.3349	0.000399747
2	1	0	1	0	1	381.738	0.700009	0.700233	0.750679	2	0.0174297	11	0	49.8297	0.00052565
2	1	0	1	0	1	384.2	0.687701	0.688029	0.57069	2	0.0190439	11	0	52.2914	0.000392651
2	1	0	1	0	1	386.796	0.674719	0.675076	0.418562	2	0.0203203	11	0	54.8878	0.000282561
2	1	0	1	0	1	389.393	0.661737	0.66205	0.298897	2	0.0212441	11	0	57.4842	0.000197885
2	1	0	1	0	1	391.989	0.648755	0.649115	0.2072	2	0.0218954	11	0	60.0806	0.000134497
2	1	0	1	0	1	394.586	0.635772	0.636097	0.139259	2	0.0223405	11	0	62.6771	8.85825e-05
2	1	0	1	0	1	397.182	0.62279	0.623189	0.0904473	2	0.0226351	11	0	65.2735	5.63657e-05
2	1	0	1	0	1	399.779	0.609808	0.610122	0.0563587	2	0.022823	11	0	67.87	3.43857e-05
2	1	0	1	0	1	402.375	0.596826	0.597182	0.0333778	2	0.0229378	11	0	70.4664	1.99326e-05
2	1	0	1	0	1	404.971	0.583844	0.58419	0.0184725	2	0.0230037	11	0	73.0628	1.07915e-05
2	1	0	1	0	1	407.568	0.570862	0.571222	0.00935579	2	0.0230389	11	0	75.6592	5.34423e-06
2	1	0	1	0	1	410.164	0.55788	0.558199	0.00396203	2	0.0230557	11	0	78.2556	2.2116e-06
2	1	0	0	0	1	412.761	0.544897	0.545219	0.00124524	2	0.023062	11	0	80.8521	6.7893e-07
2	0	0	0	0	1	415.357	0.531915	0.532238	-0.00035045	2	0.0230627	11	0	0.699	-1.86523e-07
2	0	0	1	0	1	417.954	0.518933	0.519249	-0.00115937	2	0.0230603	11	0	3.2955	-6.02002e-07
2	0	0	1	0	1	420.55	0.505951	0.506263	-0.00169049	2	0.0230561	11	0	5.8919	-8.55833e-07
2	0	0	1	0	1	423.146	0.492969	0.4933	-0.00217664	2	0.0230507	11	0	8.4883	-1.07373e-06
2	0	0	1	0	1	425.743	0.479987	0.480292	-0.00236775	2	0.0230445	11	0	11.0847	-1.13721e-06
2	0	0	1	0	1	428.339	0.467004	0.46727	-0.00262271	2	0.0230379	11	0	13.6812	-1.22551e-06
2	0	0	1	0	1	430.936	0.454022	0.454365	-0.00279601	2	0.0230309	11	0	16.2776	-1.27041e-06
2	0	0	1	0	0	433.298	0.457817	0.458127	0.000412193	3	0.0230291	11	0	1.398	1.88837e-07
2	0	0	1	0	0	435.895	0.470799	0.471116	0.000603238	3	0.0230304	11	0	3.9945	2.84195e-07
2	1	0	1	0	0	438.491	0.483781	0.484122	0.000760626	3	0.0230322	11	0	6.5909	3.68236e-07
2	1	0	1	0	0	441.088	0.496764	0.497063	0.000916107	3	0.0230345	11	0	9.1873	4.55363e-07
2	1	0	1	0	0	443.684	0.509746	0.510079	0.00142516	3	0.0230377	11	0	11.7838	7.26942e-07
2	1	0	1	0	0	446.28	0.522728	0.523005	0.00187752	3	0.0230421	11	0	14.3802	9.81955e-07
2	1	0	1	0	0	448.877	0.53571	0.536033	0.00305392	3	0.0230485	11	0	16.9766	1.637e-06
2	1	0	1	0	0	451.473	0.548692	0.549005	0.0047452	3	0.0230584	11	0	19.573	2.60514e-06
2	1	0	0	0	0	454.07	0.561674	0.56201	0.00777384	3	0.0230745	11	0	22.1695	4.36898e-06
2	1	0	0	0	0	456.666	0.574656	0.575025	0.0133877	3	0.0231015	11	0	24.7659	7.69824e-06
2	1	0	1	0	0	459.263	0.587639	0.587964	0.0231912	3	0.0231477	11	0	27.3624	1.36356e-05
2	1	0	1	0	0	461.859	0.600621	0.60089	0.0396293	3	0.0232274	11	0	29.9588	2.38128e-05
2	1	0	1	0	0	464.455	0.613603	0.613948	0.0658767	3	0.0233618	11	0	32.5552	4.04448e-05
2	1	0	1	0	0	467.052	0.626585	0.626884	0.106082	3	0.0235819	11	0	35.1516	6.65014e-05
2	1	0	1	0	0	469.648	0.639567	0.639938	0.163823	3	0.0239284	11	0	37.748	0.000104837
2	1	0	1	0	0	472.245	0.652549	0.652872	0.243262	3	0.0244525	11	0	40.3445	0.000158819
2	1	0	1	0	0	474.841	0.665531	0.665842	0.347113	3	0.0252143	11	0	42.9409	0.000231122
2	1	0	1	0	0	477.438	0.678514	0.678819	0.478254	3	0.0262807	11	0	45.5374	0.000324648
2	1	0	1	0	0	480.034	0.691496	0.691762	0.635684	3	0.0277213	11	0	48.1338	0.000439742
2	1	0	1	0	0	482.394	0.696689	0.69704	0.700379	3	0.0293806	11	0	50.4938	0.000488192
2	1	0	0	0	0	484.991	0.683706	0.68397	0.525178	3	0.0309632	11	0	53.0903	0.000359206
2	1	0	0	0	0	487.587	0.670724	0.671087	0.382928	3	0.0321348	11	0	55.6867	0.000256978
2	1	0	0	0	0	490.183	0.657742	0.658001	0.271536	3	0.0329777	11	0	58.2831	0.000178671
2	1	0	1	0	0	492.78	0.64476	0.645137	0.187197	3	0.0335674	11	0	60.8796	0.000120768
2	1	0	1	0	0	495.376	0.631778	0.632138	0.124731	3	0.0339675	11	0	63.476	7.88469e-05
2	1	0	1	0	0	497.973	0.618796	0.619164	0.0802702	3	0.0342296	11	0	66.0724	4.97004e-05
2	1	0	1	0	0	500.569	0.605814	0.606128	0.0493716	3	0.0343946	11	0	68.6688	2.99255e-05
2	1	0	1	0	0	503.166	0.592831	0.593165	0.0287313	3	0.0344937	11	0	71.2653	1.70424e-05
2	1	0	1	0	0	505.762	0.579849	0.580204	0.0153776	3	0.0345494	11	0	73.8617	8.92216e-06
2	1	0	1	0	0	508.358	0.566867	0.567177	0.00737077	3	0.0345781	11	0	76.4581	4.18053e-06
2	1	0	1	0	0	510.955	0.553885	0.554215	0.00285923	3	0.0345908	11	0	79.0546	1.58463e-06
2	1	0	1	0	0	513.551	0.540903	0.541266	0.000433322	3	0.034595	11	0	81.651	2.34543e-07
2	1	0	1	0	0	516.148	0.527921	0.528261	-0.000772376	3	0.0345945	11	0	1.5978	-4.08016e-07
2	0	0	1	0	0	518.744	0.514939	0.515226	-0.0014448	3	0.0345915	11	0	4.1942	-7.44401e-07
2	0	0	0	0	0	521.341	0.501956	0.502246	-0.00185212	3	0.0345868	11	0	6.7907	-9.30222e-07
2	0	0	0	0	0	523.937	0.488974	0.489245	-0.00215364	3	0.0345812	11	0	9.3871	-1.05366e-06
2	0	0	0	0	0	526.533	0.475992	0.476277	-0.00235283	3	0.0345749	11	0	11.9835	-1.1206e-06
2	0	0	1	0	0	529.13	0.46301	0.463336	-0.00250702	3	0.0345682	11	0	14.58	-1.16159e-06
2	0	0	1	0	0	531.701	0.450153	0.450446	-0.00183179	3	0.0345614	11	0	17.1515	-8.25121e-07
2	0	0	1	0	1	534.089	0.461812	0.462089	0.000540906	4	0.0345621	11	0	2.197	2.49947e-07
2	0	0	1	0	1	536.685	0.474794	0.475087	0.000734598	4	0.0345637	11	0	4.7934	3.48998e-07
2	0	0	1	0	1	539.282	0.487776	0.488078	0.000925828	4	0.0345656	11	0	7.3898	4.51877e-07
2	0	0	1	0	1	541.878	0.500758	0.501065	0.00123565	4	0.0345682	11	0	9.9862	6.19143e-07
2	1	0	1	0	1	544.475	0.51374	0.514036	0.00155671	4	0.0345717	11	0	12.5827	8.00203e-07
2	1	0	1	0	1	547.071	0.526722	0.52705	0.00211921	4	0.0345767	11	0	15.1791	1.11693e-06
2	1	0	1	0	1	549.667	0.539704	0.54002	0.00328797	4	0.0345841	11	0	17.7755	1.77557e-06
2	1	0	1	0	1	552.264	0.552687	0.552964	0.0054044	4	0.0345954	11	0	20.372	2.98844e-06
2	1	0	1	0	1	554.86	0.565669	0.565987	0.00932523	4	0.0346141	11	0	22.9684	5.27795e-06
2	1	0	1	0	1	557.457	0.578651	0.578953	0.0157269	4	0.0346458	11	0	25.5648	9.10514e-06
2	1	0	1	0	1	560.053	0.591633	0.591979	0.0273809	4	0.0347007	11	0	28.1612	1.62089e-05
2	1	0	0	0	1	562.65	0.604615	0.604881	0.0468096	4	0.0347951	11	0	30.7577	2.83143e-05
2	1	0	0	0	1	565.246	0.617597	0.617981	0.0772548	4	0.0349535	11	0	33.3541	4.7742e-05
2	1	0	0	0	1	567.842	0.63058	0.630916	0.12295	4	0.0352103	11	0	35.9505	7.75714e-05
2	1	0	1	0	1	570.439	0.643562	0.643917	0.188024	4	0.03561	11	0	38.547	0.000121072
2	1	0	1	0	1	573.035	0.656544	0.656924	0.275598	4	0.036207	11	0	41.1434	0.000181047
2	1	0	1	0	1	575.632	0.669526	0.669927	0.388055	4	0.0370637	11	0	43.7398	0.000259968
2	1	0	1	0	1	578.228	0.682508	0.682812	0.528101	4	0.0382471	11	0	46.3362	0.000360594
2	1	0	1	0	1	580.825	0.69549	0.695843	0.696323	4	0.0398317	11	0	48.9327	0.000484531
2	1	0	1	0	1	583.185	0.692694	0.693028	0.649796	4	0.0415141	11	0	51.2928	0.000450327
2	1	0	1	0	1	585.781	0.679712	0.679985	0.48385	4	0.0429779	11	0	53.8892	0.00032901
2	1	0	1	0	1	588.377	0.66673	0.66706	0.35074	4	0.0440533	11	0	56.4856	0.000233964
2	1	0	1	0	1	590.974	0.653748	0.654104	0.247074	4	0.0448229	11	0	59.082	0.000161612
2	1	0	1	0	1	593.57	0.640766	0.64109	0.168842	4	0.0453574	11	0	61.6784	0.000108243
2	1	0	0	0	1	596.167	0.627783	0.628086	0.111543	4	0.0457168	11	0	64.2749	7.00585e-05
2	1	0	0	0	1	598.763	0.614801	0.615218	0.0708091	4	0.0459501	11	0	66.8713	4.3563e-05
2	1	0	1	0	1	601.36	0.601819	0.602175	0.0430113	4	0.0460951	11	0	69.4678	2.59004e-05
2	1	0	1	0	1	603.956	0.588837	0.589174	0.0244439	4	0.0461803	11	0	72.0642	1.44017e-05
2	1	0	1	0	1	606.552	0.575855	0.576189	0.0126272	4	0.0462269	11	0	74.6606	7.27563e-06
2	1	0	1	0	1	609.149	0.562873	0.563148	0.00596564	4	0.04625	11	0	77.257	3.35954e-06
2	1	0	1	0	1	611.745	0.54989	0.550161	0.00202143	4	0.0462596	11	0	79.8535	1.11211e-06
2	1	0	1	0	1	614.342	0.536908	0.537216	0.000238725	4	0.0462621	11	0	82.4499	1.28247e-07
2	1	0	1	0	1	616.938	0.523926	0.524246	-0.00100292	4	0.0462608	11	0	2.3967	-5.25777e-07
2	0	0	1	0	1	619.535	0.510944	0.511196	-0.00163518	4	0.0462573	11	0	4.9932	-8.35898e-07
2	0	0	1	0	1	622.131	0.497962	0.498271	-0.00207406	4	0.0462524	11	0	7.5896	-1.03344e-06
2	0	0	1	0	1	624.727	0.48498	0.485329	-0.00223738	4	0.0462467	11	0	10.186	-1.08587e-06
2	0	0	1	0	1	627.324	0.471998	0.472373	-0.00241041	4	0.0462404	11	0	12.7824	-1.13861e-06
2	0	0	0	0	1	629.92	0.459015	0.459316	-0.00271187	4	0.0462338	11	0	15.3789	-1.2456e-06
2	1	0	1	0	0	632.283	0.452824	0.453158	6.69122e-05	5	0.046229	11	0	0.3994	3.03218e-08
2	0	0	1	0	0	634.879	0.465806	0.466113	0.000385627	5	0.0462301	11	0	2.9958	1.79746e-07
2	0	0	0	0	0	637.476	0.478788	0.479138	0.000753553	5	0.0462317	11	0	5.5923	3.61056e-07
2	1	0	0	0	0	640.072	0.49177	0.492066	0.000905709	5	0.0462339	11	0	8.1887	4.45669e-07
2	1	0	0	0	0	642.669	0.504753	0.505019	0.0012431	5	0.0462368	11	0	10.7851	6.2779e-07
2	0	0	1	0	0	645.265	0.517735	0.51806	0.00170872	5	0.0462407	11	0	13.3816	8.85221e-07
2	1	0	1	0	0	647.861	0.530717	0.530998	0.0024976	5	0.0462461	11	0	15.978	1.32622e-06
2	1	0	1	0	0	650.458	0.543699	0.544025	0.003826	5	0.0462543	11	0	18.5744	2.08144e-06
2	1	0	1	0	0	653.054	0.556681	0.556956	0.00633181	5	0.0462671	11	0	21.1708	3.52654e-06
2	1	0	1	0	0	655.651	0.569663	0.569942	0.010699	5	0.0462889	11	0	23.7673	6.09781e-06
2	1	0	1	0	0	658.247	0.582645	0.582983	0.0187539	5	0.0463261	11	0	26.3637	1.09332e-05
2	1	0	1	0	0	660.844	0.595628	0.595964	0.0325748	5	0.0463912	11	0	28.9602	1.94134e-05
2	1	0	1	0	0	663.44	0.60861	0.608912	0.0552204	5	0.0465032	11	0	31.5566	3.36244e-05
2	1	0	1	0	0	666.036	0.621592	0.62188	0.0909686	5	0.0466902	11	0	34.153	5.65715e-05
2	1	0	1	0	0	668.633	0.634574	0.634822	0.143076	5	0.04699	11	0	36.7494	9.08279e-05
2	1	0	1	0	0	671.229	0.647556	0.647881	0.215383	5	0.0474511	11	0	39.3458	0.000139542
2	1	0	0	0	0	673.826	0.660538	0.660839	0.311685	5	0.0481307	11	0	41.9423	0.000205974
2	1	0	0	0	0	676.422	0.67352	0.673829	0.433519	5	0.0490929	11	0	44.5387	0.000292118
2	1	0	1	0	0	679.019	0.686503	0.686847	0.583281	5	0.0504083	11	0	47.1352	0.000400625
2	1	0	1	0	0	681.615	0.699485	0.699773	0.760169	5	0.0521468	11	0	49.7316	0.000531946
2	1	0	1	0	0	683.975	0.6887	0.68903	0.602211	5	0.0537627	11	0	52.0916	0.000414941
2	1	0	1	0	0	686.572	0.675717	0.676005	0.445832	5	0.0551147	11	0	54.6881	0.000301385
2	1	0	1	0	0	689.168	0.662735	0.663122	0.321266	5	0.0561035	11	0	57.2845	0.000213039
2	1	0	1	0	0	691.764	0.649753	0.650116	0.224751	5	0.0568063	11	0	59.8809	0.000146114
2	1	0	1	0	0	694.361	0.636771	0.637059	0.15196	5	0.0572904	11	0	62.4774	9.68075e-05
2	1	0	1	0	0	696.957	0.623789	0.624073	0.0994669	5	0.057613	11	0	65.0738	6.20746e-05
2	1	0	1	0	0	699.554	0.610807	0.611153	0.0625564	5	0.0578202	11	0	67.6702	3.82316e-05
2	1	0	1	0	0	702.15	0.597825	0.598118	0.0372331	5	0.0579471	11	0	70.2666	2.22697e-05
2	1	0	0	0	0	704.747	0.584842	0.585144	0.0205091	5	0.0580203	11	0	72.8631	1.20008e-05
2	1	0	0	0	0	707.343	0.57186	0.572207	0.0102606	5	0.0580591	11	0	75.4595	5.87119e-06
2	1	0	0	0	0	709.939	0.558878	0.559219	0.00437441	5	0.0580774	11	0	78.0559	2.44626e-06
2	1	0	1	0	0	712.536	0.545896	0.546207	0.00140243	5	0.0580842	11	0	80.6524	7.66019e-07
2	1	0	1	0	0	715.132	0.532914	0.533209	-0.000316495	5	0.0580852	11	0	0.5992	-1.68758e-07
2	0	0	1	0	0	717.729	0.519932	0.520224	-0.0013121	5	0.0580829	11	0	3.1956	-6.82584e-07
2	0	0	1	0	0	720.325	0.50695	0.507265	-0.00178422	5	0.0580789	11	0	5.792	-9.05074e-07
2	0	0	1	0	0	722.922	0.493967	0.494327	-0.0019922	5	0.0580737	11	0	8.3885	-9.84797e-07
2	0	0	1	0	0	725.518	0.480985	0.481319	-0.00236165	5	0.0580678	11	0	10.9849	-1.13671e-06
2	0	0	1	0	0	728.114	0.468003	0.468286	-0.00257354	5	0.0580614	11	0	13.5814	-1.20515e-06
2	0	0	1	0	0	730.711	0.455021	0.455331	-0.00246649	5	0.0580547	11	0	16.1778	-1.12307e-06
2	0	0	1	0	1	733.073	0.456818	0.457197	0.000395376	6	0.0580524	11	0	1.1983	1.80765e-07
2	1	0	1	0	1	735.67	0.469801	0.470089	0.000528722	6	0.0580537	11	0	3.7948	2.48546e-07
2	0	0	1	0	1	738.266	0.482783	0.483123	0.000804762	6	0.0580555	11	0	6.3912	3.88799e-07
2	1	0	1	0	1	740.863	0.495765	0.496065	0.000908037	6	0.0580578	11	0	8.9876	4.50445e-07
2	0	0	1	0	1	743.459	0.508747	0.508973	0.00137269	6	0.0580609	11	0	11.584	6.98664e-07
2	0	0	0	0	1	746.056	0.521729	0.522061	0.00185092	6	0.0580651	11	0	14.1805	9.66295e-07
2	1	0	0	0	1	748.652	0.534711	0.535014	0.00266992	6	0.0580711	11	0	16.7769	1.42844e-06
2	1	0	0	0	1	751.248	0.547693	0.548007	0.00436734	6	0.0580804	11	0	19.3733	2.39333e-06
2	1	0	1	0	1	753.845	0.560676	0.561023	0.00739129	6	0.0580954	11	0	21.9698	4.14668e-06
2	1	0	1	0	1	756.441	0.573658	0.574017	0.0127303	6	0.058121	11	0	24.5662	7.30739e-06
2	1	0	1	0	1	759.038	0.58664	0.587015	0.0225505	6	0.0581656	11	0	27.1626	1.32375e-05
2	1	0	1	0	1	761.634	0.599622	0.599859	0.0389263	6	0.0582438	11	0	29.759	2.33503e-05
2	1	0	1	0	1	764.231	0.612604	0.612965	0.0659534	6	0.0583775	11	0	32.3555	4.04271e-05
2	1	0	1	0	1	766.827	0.625586	0.625892	0.1067	6	0.0585985	11	0	34.9519	6.67826e-05
2	1	0	1	0	1	769.423	0.638569	0.638874	0.165498	6	0.0589481	11	0	37.5484	0.000105732
2	1	0	1	0	1	772.02	0.651551	0.65188	0.246149	6	0.0594782	11	0	40.1448	0.00016046
2	1	0	1	0	1	774.616	0.664533	0.664855	0.351213	6	0.0602487	11	0	42.7412	0.000233506
2	1	0	1	0	1	777.213	0.677515	0.677835	0.482573	6	0.0613257	11	0	45.3376	0.000327105
2	1	0	1	0	1	779.809	0.690497	0.690869	0.641236	6	0.0627787	11	0	47.934	0.00044301
2	1	0	0	0	1	782.169	0.697687	0.698063	0.737035	6	0.064469	11	0	50.2941	0.000514497
2	1	0	1	0	1	784.766	0.684705	0.684987	0.556828	6	0.0661397	11	0	52.8906	0.00038142
2	1	0	1	0	1	787.362	0.671723	0.672084	0.409553	6	0.0673869	11	0	55.487	0.000275254
2	1	0	1	0	1	789.958	0.658741	0.659062	0.292731	6	0.0682918	11	0	58.0834	0.000192928
2	1	0	1	0	1	792.555	0.645759	0.646088	0.203533	6	0.0689302	11	0	60.6798	0.0001315
2	1	0	1	0	1	795.151	0.632777	0.63309	0.136715	6	0.0693672	11	0	63.2762	8.65526e-05
2	1	0	1	0	1	797.748	0.619794	0.620169	0.0884513	6	0.0696557	11	0	65.8727	5.48547e-05
2	1	0	1	0	1	800.344	0.606812	0.607155	0.05456	6	0.0698386	11	0	68.4691	3.31264e-05
2	1	0	1	0	1	802.941	0.59383	0.594198	0.0317153	6	0.0699486	11	0	71.0656	1.88452e-05
2	1	0	1	0	1	805.537	0.580847	0.581121	0.0169281	6	0.0700102	11	0	73.662	9.83728e-06
2	1	0	1	0	1	808.133	0.567866	0.568237	0.00814199	6	0.0700419	11	0	76.2584	4.62658e-06
2	1	0	1	0	1	810.73	0.554884	0.555205	0.00316512	6	0.0700559	11	0	78.8548	1.75729e-06
2	1	0	1	0	1	813.326	0.541902	0.542245	0.000627375	6	0.0700605	11	0	81.4512	3.40191e-07
2	1	0	0	0	1	815.923	0.528919	0.529236	-0.000671711	6	0.0700602	11	0	1.3981	-3.55494e-07
2	0	0	0	0	1	818.519	0.515937	0.516328	-0.00136616	6	0.0700573	11	0	3.9945	-7.05385e-07
2	0	0	1	0	1	821.116	0.502955	0.503278	-0.0018264	6	0.0700528	11	0	6.591	-9.19184e-07
2	0	0	1	0	1	823.712	0.489973	0.49029	-0.00214938	6	0.0700474	11	0	9.1874	-1.05382e-06
2	0	0	1	0	1	826.308	0.476991	0.477307	-0.00234515	6	0.0700412	11	0	11.7838	-1.11936e-06
2	0	0	1	0	1	828.905	0.464009	0.464317	-0.00249055	6	0.0700347	11	0	14.3802	-1.15641e-06
2	0	0	1	0	1	831.501	0.451026	0.451321	-0.00263988	6	0.0700278	11	0	16.9767	-1.19143e-06
2	1	0	1	0	0	833.864	0.460813	0.461122	0.000455591	7	0.0700281	11	0	1.8974	2.10083e-07
2	0	0	1	0	0	836.46	0.473795	0.474155	0.00062514	7	0.0700297	11	0	4.4938	2.96413e-07
2	1	0	1	0	0	839.057	0.486777	0.487128	0.000790837	7	0.0700316	11	0	7.0903	3.85238e-07
2	1	0	1	0	0	841.653	0.499759	0.500093	0.00107879	7	0.0700343	11	0	9.6867	5.39497e-07
2	1	0	1	0	0	844.25	0.512742	0.512988	0.00143968	7	0.0700377	11	0	12.2832	7.38539e-07
2	1	0	1	0	0	846.846	0.525724	0.526074	0.00205415	7	0.0700424	11	0	14.8796	1.08063e-06
2	1	0	1	0	0	849.442	0.538706	0.538943	0.00306945	7	0.0700493	11	0	17.476	1.65426e-06
2	1	0	1	0	0	852.039	0.551688	0.551995	0.00503671	7	0.0700599	11	0	20.0724	2.78024e-06
2	1	0	1	0	0	854.635	0.56467	0.564976	0.00866629	7	0.0700776	11	0	22.6688	4.89624e-06
2	1	0	0	0	0	857.232	0.577652	0.578025	0.0151841	7	0.070108	11	0	25.2653	8.77676e-06
2	1	0	0	0	0	859.828	0.590634	0.590918	0.0268817	7	0.0701614	11	0	27.8617	1.58849e-05
2	1	0	1	0	0	862.425	0.603617	0.60394	0.0466284	7	0.0702548	11	0	30.4582	2.81608e-05
2	1	0	1	0	0	865.021	0.616599	0.616856	0.0779839	7	0.0704136	11	0	33.0546	4.81048e-05
2	1	0	1	0	0	867.617	0.629581	0.629951	0.124772	7	0.070673	11	0	35.651	7.86004e-05
2	1	0	1	0	0	870.214	0.642563	0.642889	0.190998	7	0.0710786	11	0	38.2474	0.00012279
2	1	0	1	0	0	872.81	0.655545	0.655845	0.279849	7	0.071685	11	0	40.8439	0.000183538
2	1	0	1	0	0	875.407	0.668527	0.668862	0.393772	7	0.0725547	11	0	43.4403	0.000263379
2	1	0	1	0	0	878.003	0.681509	0.681802	0.534088	7	0.0737553	11	0	46.0367	0.000364143
2	1	0	1	0	0	880.6	0.694492	0.694814	0.702489	7	0.0753548	11	0	48.6332	0.000488099
2	1	0	1	0	0	882.96	0.693693	0.69402	0.683457	7	0.0770913	11	0	50.9932	0.000474333
2	1	0	1	0	0	885.556	0.680711	0.681072	0.513169	7	0.0786356	11	0	53.5896	0.000349505
2	1	0	0	0	0	888.153	0.667728	0.668064	0.376365	7	0.0797831	11	0	56.1861	0.000251436
2	1	0	0	0	0	890.749	0.654746	0.655035	0.267456	7	0.0806124	11	0	58.7825	0.000175193
2	1	0	0	0	0	893.345	0.641764	0.642153	0.184387	7	0.0811929	11	0	61.3789	0.000118404
2	1	0	1	0	0	895.942	0.628781	0.629123	0.12269	7	0.0815866	11	0	63.9754	7.71874e-05
2	1	0	1	0	0	898.538	0.6158	0.616168	0.0785676	7	0.081844	11	0	66.5718	4.84108e-05
2	1	0	1	0	0	901.135	0.602818	0.603179	0.0478009	7	0.0820049	11	0	69.1682	2.88325e-05
2	1	0	1	0	0	903.731	0.589836	0.590239	0.02729	7	0.0821001	11	0	71.7646	1.61076e-05
2	1	0	1	0	0	906.328	0.576853	0.577198	0.0142016	7	0.0821521	11	0	74.3611	8.19712e-06
2	1	0	1	0	0	908.924	0.563871	0.564186	0.00649897	7	0.0821779	11	0	76.9575	3.66662e-06
2	1	0	1	0	0	911.52	0.550889	0.551192	0.00238528	7	0.0821885	11	0	79.5539	1.31475e-06
2	1	0	1	0	0	914.117	0.537907	0.538277	5.34493e-05	7	0.0821912	11	0	82.1504	2.87705e-08
2	0	0	1	0	0	916.713	0.524925	0.525189	-0.000901904	7	0.0821898	11	0	2.197	-4.7367e-07
2	0	0	1	0	0	919.31	0.511943	0.512168	-0.00159896	7	0.0821864	11	0	4.7934	-8.18937e-07
2	0	0	0	0	0	921.906	0.498961	0.499292	-0.00203449	7	0.0821816	11	0	7.3899	-1.01581e-06
2	0	0	0	0	0	924.503	0.485978	0.486236	-0.00223476	7	0.0821759	11	0	9.9863	-1.08662e-06
2	0	0	0	0	0	927.099	0.472996	0.473312	-0.00239517	7	0.0821698	11	0	12.5827	-1.13366e-06
2	0	0	1	0	0	929.695	0.460014	0.460353	-0.00256605	7	0.0821633	11	0	15.1792	-1.18129e-06
2	1	0	0	0	1	932.058	0.451825	0.452101	0.000267388	8	0.0821582	11	0	0.2996	1.20886e-07
2	1	0	0	0	1	934.654	0.464807	0.465186	0.000562257	8	0.0821595	11	0	2.896	2.61554e-07
2	0	0	1	0	1	937.251	0.47779	0.478072	0.000763366	8	0.0821613	11	0	5.4925	3.64944e-07
2	0	0	1	0	1	939.847	0.490772	0.491106	0.000802437	8	0.0821634	11	0	8.0889	3.94082e-07
2	0	0	1	0	1	942.444	0.503754	0.504046	0.00111462	8	0.0821661	11	0	10.6853	5.61821e-07
2	1	0	1	0	1	945.04	0.516736	0.517064	0.00173954	8	0.0821698	11	0	13.2817	8.9945e-07
2	1	0	1	0	1	947.637	0.529718	0.529983	0.00238734	8	0.0821752	11	0	15.8782	1.26525e-06
2	1	0	1	0	1	950.233	0.5427	0.54299	0.00358227	8	0.0821831	11	0	18.4746	1.94514e-06
2	1	0	1	0	1	952.829	0.555683	0.555963	0.00602028	8	0.0821956	11	0	21.071	3.34705e-06
2	1	0	1	0	1	955.426	0.568665	0.56898	0.0103862	8	0.0822166	11	0	23.6675	5.90952e-06
2	1	0	1	0	1	958.022	0.581647	0.581996	0.0183693	8	0.082253	11	0	26.2639	1.06908e-05
2	1	0	1	0	1	960.619	0.594629	0.594954	0.0325236	8	0.0823176	11	0	28.8603	1.935e-05
2	1	0	1	0	1	963.215	0.607611	0.607946	0.055852	8	0.0824299	11	0	31.4567	3.3955e-05
2	1	0	0	0	1	965.812	0.620593	0.620905	0.0921324	8	0.082619	11	0	34.0532	5.72055e-05
2	1	0	0	0	1	968.408	0.633575	0.633899	0.145542	8	0.0829236	11	0	36.6496	9.22587e-05
2	1	0	0	0	1	971.004	0.646557	0.646866	0.219418	8	0.0833927	11	0	39.246	0.000141934
2	1	0	1	0	1	973.601	0.65954	0.659887	0.317011	8	0.0840838	11	0	41.8425	0.000209192
2	1	0	1	0	1	976.197	0.672522	0.672839	0.439989	8	0.0850616	11	0	44.4389	0.000296042
2	1	0	1	0	1	978.794	0.685504	0.685857	0.589781	8	0.0863929	11	0	47.0353	0.000404506
2	1	0	1	0	1	981.39	0.698486	0.698856	0.76678	8	0.0881498	11	0	49.6317	0.000535869
2	1	0	1	0	1	983.75	0.689698	0.689967	0.635476	8	0.0898441	11	0	51.9918	0.000438458
2	1	0	1	0	1	986.347	0.676715	0.677017	0.474645	8	0.0912776	11	0	54.5883	0.000321343
2	1	0	1	0	1	988.943	0.663734	0.664031	0.34521	8	0.0923356	11	0	57.1847	0.00022923
2	1	0	1	0	1	991.539	0.650752	0.651049	0.2436	8	0.0930941	11	0	59.7811	0.000158595
2	1	0	1	0	1	994.136	0.63777	0.638107	0.166619	8	0.0936217	11	0	62.3775	0.000106321
2	1	0	0	0	1	996.732	0.624787	0.625123	0.109845	8	0.0939762	11	0	64.974	6.86666e-05
2	1	0	0	0	1	999.329	0.611805	0.612129	0.069435	8	0.0942054	11	0	67.5704	4.25032e-05
2	1	0	0	0	1	1001.93	0.598823	0.599138	0.0413555	8	0.0943464	11	0	70.1668	2.47776e-05
2	1	0	1	0	1	1004.52	0.585841	0.586157	0.0229236	8	0.0944279	11	0	72.7633	1.34369e-05
2	1	0	1	0	1	1007.12	0.572859	0.573176	0.0115649	8	0.0944711	11	0	75.3597	6.6287e-06
2	1	0	1	0	1	1009.71	0.559877	0.560136	0.00489072	8	0.0944916	11	0	77.9561	2.73947e-06
2	1	0	1	0	1	1012.31	0.546895	0.547189	0.00149984	8	0.0944993	11	0	80.5525	8.20697e-07
2	1	0	1	0	1	1014.91	0.533912	0.534218	-0.000193062	8	0.0945006	11	0	0.1997	-1.03137e-07
2	0	0	1	0	1	1017.5	0.52093	0.521242	-0.00118241	8	0.0944986	11	0	2.7961	-6.16323e-07
2	0	0	1	0	1	1020.1	0.507948	0.508251	-0.00180222	8	0.0944947	11	0	5.3925	-9.15979e-07
2	0	0	1	0	1	1022.7	0.494966	0.495259	-0.00212966	8	0.0944896	11	0	7.989	-1.05473e-06
2	0	0	1	0	1	1025.29	0.481984	0.48228	-0.00235011	8	0.0944838	11	0	10.5854	-1.13341e-06
2	0	0	1	0	1	1027.89	0.469002	0.469255	-0.00253773	8	0.0944775	11	0	13.1818	-1.19084e-06
2	0	0	1	0	1	1030.49	0.45602	0.45634	-0.00272538	8	0.0944708	11	0	15.7782	-1.2437e-06
2	0	0	1	0	0	1032.85	0.45582	0.456132	0.000483608	9	0.0944678	11	0	0.9986	2.20589e-07
2	1	0	1	0	0	1035.44	0.468802	0.469147	0.000633297	9	0.0944693	11	0	3.595	2.97109e-07
2	1	0	1	0	0	1038.04	0.481784	0.48205	0.000595928	9	0.0944712	11	0	6.1914	2.87267e-07
2	0	0	0	0	0	1040.64	0.494766	0.495084	0.000924278	9	0.0944734	11	0	8.7879	4.57595e-07
2	1	0	0	0	0	1043.23	0.507748	0.508119	0.00127958	9	0.0944763	11	0	11.3843	6.50179e-07
2	1	0	1	0	0	1045.83	0.520731	0.521009	0.00189029	9	0.0944804	11	0	13.9808	9.84856e-07
2	1	0	1	0	0	1048.43	0.533713	0.534015	0.00264086	9	0.0944863	11	0	16.5772	1.41026e-06
2	1	0	1	0	0	1051.02	0.546695	0.547008	0.00435523	9	0.0944952	11	0	19.1736	2.38235e-06
2	1	0	1	0	0	1053.62	0.559677	0.560035	0.00707384	9	0.0945098	11	0	21.77	3.9616e-06
2	1	0	1	0	0	1056.22	0.572659	0.57302	0.0123137	9	0.0945347	11	0	24.3664	7.05601e-06
2	1	0	1	0	0	1058.81	0.585641	0.585945	0.0221103	9	0.0945784	11	0	26.9629	1.29554e-05
2	1	0	1	0	0	1061.41	0.598623	0.598921	0.0390355	9	0.094656	11	0	29.5593	2.33792e-05
2	1	0	1	0	0	1064.01	0.611606	0.611899	0.066357	9	0.0947903	11	0	32.1558	4.06038e-05
2	1	0	1	0	0	1066.6	0.624588	0.624892	0.108203	9	0.0950139	11	0	34.7522	6.76154e-05
2	1	0	1	0	0	1069.2	0.63757	0.637873	0.168542	9	0.0953693	11	0	37.3486	0.000107509
2	1	0	1	0	0	1071.79	0.650552	0.650933	0.250353	9	0.0959085	11	0	39.945	0.000162963
2	1	0	0	0	0	1074.39	0.663534	0.663817	0.357044	9	0.0966922	11	0	42.5415	0.000237011
2	1	0	0	0	0	1076.99	0.676516	0.676871	0.489429	9	0.0977866	11	0	45.1379	0.00033128
2	1	0	0	0	0	1079.58	0.689498	0.689846	0.648143	9	0.0992579	11	0	47.7343	0.000447119
2	1	0	1	0	0	1081.94	0.698686	0.699052	0.773201	9	0.100976	11	0	50.0944	0.000540507
2	1	0	1	0	0	1084.54	0.685704	0.686033	0.589229	9	0.102735	11	0	52.6908	0.000404231
2	1	0	1	0	0	1087.14	0.672722	0.673127	0.438063	9	0.104061	11	0	55.2872	0.000294872
2	1	0	1	0	0	1089.73	0.659739	0.660044	0.31617	9	0.105033	11	0	57.8837	0.000208686
2	1	0	1	0	0	1092.33	0.646757	0.647098	0.221698	9	0.105726	11	0	60.4801	0.000143461
2	1	0	1	0	0	1094.93	0.633775	0.634134	0.149968	9	0.106203	11	0	63.0765	9.50995e-05
2	1	0	1	0	0	1097.52	0.620793	0.621148	0.0978936	9	0.106521	11	0	65.673	6.08064e-05
2	1	0	1	0	0	1100.12	0.607811	0.608115	0.0607584	9	0.106724	11	0	68.2694	3.69481e-05
2	1	0	1	0	0	1102.72	0.594829	0.59518	0.0355582	9	0.106847	11	0	70.8658	2.11635e-05
2	1	0	1	0	0	1105.31	0.581847	0.582164	0.0191381	9	0.106916	11	0	73.4622	1.11415e-05
2	1	0	0	0	0	1107.91	0.568864	0.569239	0.00936924	9	0.106952	11	0	76.0587	5.33334e-06
2	1	0	0	0	0	1110.5	0.555882	0.556156	0.00376567	9	0.106968	11	0	78.6551	2.0943e-06
2	1	0	1	0	0	1113.1	0.5429	0.543227	0.000979373	9	0.106973	11	0	81.2516	5.32022e-07
2	0	0	1	0	0	1115.7	0.529917	0.530204	-0.000436674	9	0.106974	11	0	0.9986	-2.31527e-07
2	1	0	1	0	0	1118.29	0.516936	0.517269	-0.00129129	9	0.106971	11	0	3.595	-6.67947e-07
2	0	0	1	0	0	1120.89	0.503954	0.5042	-0.00171048	9	0.106967	11	0	6.1914	-8.62424e-07
2	0	0	1	0	0	1123.49	0.490972	0.49128	-0.00197943	9	0.106962	11	0	8.7878	-9.72457e-07
2	0	0	1	0	0	1126.08	0.477989	0.478326	-0.00226092	9	0.106956	11	0	11.3843	-1.08146e-06
2	0	0	1	0	0	1128.68	0.465007	0.465352	-0.00253311	9	0.10695	11	0	13.9807	-1.17879e-06
2	0	0	1	0	0	1131.28	0.452025	0.45233	-0.00262348	9	0.106943	11	0	16.5772	-1.18668e-06
2	0	0	1	0	1	1133.64	0.459814	0.460115	0.00057428	10	0.106943	11	0	1.8974	2.64235e-07
2	1	0	1	0	1	1136.24	0.472796	0.47311	0.000645133	10	0.106945	11	0	4.4938	3.05218e-07
2	1	0	1	0	1	1138.83	0.485779	0.48607	0.000832448	10	0.106947	11	0	7.0903	4.04628e-07
2	1	0	1	0	1	1141.43	0.498761	0.499126	0.00113788	10	0.106949	11	0	9.6867	5.67944e-07
2	0	0	1	0	1	1144.02	0.511743	0.512022	0.00152982	10	0.106953	11	0	12.2831	7.83299e-07
2	1	0	1	0	1	1146.62	0.524725	0.525003	0.00203999	10	0.106957	11	0	14.8795	1.071e-06
2	1	0	0	0	1	1149.22	0.537707	0.538003	0.00305079	10	0.106964	11	0	17.476	1.64133e-06
2	1	0	0	0	1	1151.81	0.550689	0.550989	0.00492707	10	0.106974	11	0	20.0724	2.71476e-06
2	1	0	0	0	1	1154.41	0.563671	0.563997	0.00846692	10	0.106992	11	0	22.6688	4.77532e-06
2	1	0	1	0	1	1157.01	0.576654	0.576998	0.0149363	10	0.107021	11	0	25.2653	8.61821e-06
2	1	0	1	0	1	1159.6	0.589636	0.589926	0.0265863	10	0.107074	11	0	27.8617	1.5684e-05
2	1	0	1	0	1	1162.2	0.602618	0.602921	0.0470146	10	0.107168	11	0	30.4581	2.83461e-05
2	1	0	1	0	1	1164.8	0.6156	0.615875	0.0789859	10	0.107328	11	0	33.0545	4.86455e-05
2	1	0	1	0	1	1167.39	0.628582	0.62892	0.126984	10	0.107592	11	0	35.651	7.98628e-05
2	1	0	1	0	1	1169.99	0.641564	0.641856	0.194587	10	0.108005	11	0	38.2474	0.000124897
2	1	0	1	0	1	1172.59	0.654547	0.654889	0.284662	10	0.108623	11	0	40.8438	0.000186422
2	1	0	1	0	1	1175.18	0.667529	0.667839	0.399508	10	0.109506	11	0	43.4403	0.000266807
2	1	0	1	0	1	1177.78	0.680511	0.680848	0.541588	10	0.110722	11	0	46.0367	0.000368739
2	1	0	1	0	1	1180.37	0.693493	0.693848	0.70993	10	0.112343	11	0	48.6331	0.000492583
2	1	0	0	0	1	1182.73	0.694691	0.694964	0.720466	10	0.114132	11	0	50.9932	0.000500698
2	1	0	0	0	1	1185.33	0.681709	0.682044	0.545994	10	0.115768	11	0	53.5896	0.000372392
2	1	0	1	0	1	1187.93	0.668727	0.669048	0.402846	10	0.116992	11	0	56.1861	0.000269524
2	1	0	1	0	1	1190.52	0.655745	0.656044	0.288894	10	0.117884	11	0	58.7825	0.000189527
2	1	0	1	0	1	1193.12	0.642763	0.643084	0.200425	10	0.118513	11	0	61.3789	0.00012889
2	1	0	1	0	1	1195.72	0.629781	0.630112	0.134866	10	0.118944	11	0	63.9753	8.49809e-05
2	1	0	1	0	1	1198.31	0.616798	0.617125	0.0868917	10	0.119228	11	0	66.5718	5.3623e-05
2	1	0	1	0	1	1200.91	0.603816	0.604158	0.0530662	10	0.119406	11	0	69.1682	3.20604e-05
2	1	0	1	0	1	1203.51	0.590834	0.591166	0.0303304	10	0.119512	11	0	71.7646	1.79303e-05
2	1	0	1	0	1	1206.1	0.577851	0.578169	0.0158699	10	0.11957	11	0	74.3611	9.17546e-06
2	1	0	1	0	1	1208.7	0.56487	0.565169	0.00718185	10	0.119599	11	0	76.9575	4.05896e-06
2	1	0	1	0	1	1211.3	0.551888	0.552208	0.00266218	10	0.119611	11	0	79.5539	1.47008e-06
2	1	0	1	0	1	1213.89	0.538906	0.539176	0.000345217	10	0.119615	11	0	82.1503	1.86133e-07
2	1	0	0	0	1	1216.49	0.525923	0.526298	-0.000936236	10	0.119614	11	0	1.8974	-4.92739e-07
2	0	0	0	0	1	1219.08	0.512941	0.513267	-0.00159099	10	0.119611	11	0	4.4938	-8.16602e-07
2	0	0	0	0	1	1221.68	0.499959	0.500253	-0.00178338	10	0.119606	11	0	7.0902	-8.92141e-07
2	0	0	1	0	1	1224.28	0.486977	0.487307	-0.00208009	10	0.119601	11	0	9.6867	-1.01364e-06
2	1	0	1	0	1	1226.87	0.473995	0.474281	-0.00241831	10	0.119595	11	0	12.2831	-1.14696e-06
2	0	0	1	0	1	1229.47	0.461013	0.461347	-0.00263724	10	0.119589	11	0	14.8795	-1.21668e-06
2	1	0	1	0	0	1231.83	0.450827	0.451157	0.000148284	11	0.119583	11	0	0.0999	6.68995e-08
2	1	0	1	0	0	1234.43	0.463809	0.464115	0.000537819	11	0.119584	11	0	2.6963	2.4961e-07
2	0	0	1	0	0	1237.03	0.476791	0.477125	0.000836641	11	0.119586	11	0	5.2927	3.99182e-07
2	1	0	1	0	0	1239.62	0.489773	0.490073	0.000964555	11	0.119588	11	0	7.8891	4.72703e-07
2	0	0	1	0	0	1242.22	0.502755	0.503035	0.00132784	11	0.119591	11	0	10.4856	6.67952e-07
2	1	0	1	0	0	1244.82	0.515737	0.516056	0.00152421	11	0.119595	11	0	13.082	7.86578e-07
2	1	0	1	0	0	1247.41	0.52872	0.529054	0.00234187	11	0.1196	11	0	15.6785	1.23897e-06
2	1	0	1	0	0	1250.01	0.541702	0.54204	0.00365955	11	0.119608	11	0	18.2749	1.98362e-06
2	1	0	1	0	0	1252.6	0.554684	0.555024	0.00585882	11	0.11962	11	0	20.8713	3.25179e-06
2	1	0	1	0	0	1255.2	0.567666	0.568033	0.0100976	11	0.11964	11	0	23.4677	5.73578e-06
2	1	0	0	0	0	1257.8	0.580648	0.580939	0.0180459	11	0.119676	11	0	26.0642	1.04835e-05
2	1	0	0	0	0	1260.39	0.59363	0.59397	0.0324093	11	0.11974	11	0	28.6606	1.92502e-05
2	1	0	0	0	0	1262.99	0.606612	0.60699	0.056237	11	0.119853	11	0	31.257	3.41353e-05
2	1	0	1	0	0	1265.59	0.619595	0.619915	0.0934085	11	0.120044	11	0	33.8535	5.79053e-05
2	1	0	1	0	0	1268.18	0.632577	0.632909	0.147709	11	0.120353	11	0	36.4499	9.34861e-05
2	1	0	1	0	0	1270.78	0.645559	0.645887	0.222997	11	0.12083	11	0	39.0463	0.000144031
2	1	0	1	0	0	1273.38	0.658541	0.658927	0.322106	11	0.121533	11	0	41.6427	0.000212245
2	1	0	1	0	0	1275.97	0.671523	0.671847	0.44626	11	0.122525	11	0	44.2392	0.000299818
2	1	0	1	0	0	1278.57	0.684505	0.684831	0.596782	11	0.123875	11	0	46.8356	0.000408695
2	1	0	1	0	0	1281.17	0.697487	0.697795	0.772909	11	0.125649	11	0	49.432	0.000539332
2	1	0	1	0	0	1283.53	0.690697	0.691094	0.668831	11	0.127414	11	0	51.7921	0.000462225
2	1	0	1	0	0	1286.12	0.677715	0.678006	0.503699	11	0.128928	11	0	54.3885	0.000341511
2	1	0	1	0	0	1288.72	0.664733	0.665067	0.368625	11	0.130054	11	0	56.9849	0.00024516
2	1	0	0	0	0	1291.31	0.65175	0.652078	0.262727	11	0.130867	11	0	59.5814	0.000171318
2	1	0	0	0	0	1293.91	0.638768	0.639117	0.180847	11	0.131438	11	0	62.1778	0.000115582
2	1	0	0	0	0	1296.51	0.625786	0.626071	0.120156	11	0.131824	11	0	64.7742	7.52263e-05
2	1	0	1	0	0	1299.1	0.612804	0.613089	0.0765454	11	0.132076	11	0	67.3707	4.69292e-05
2	1	0	1	0	0	1301.7	0.599822	0.600128	0.0459279	11	0.132232	11	0	69.9671	2.75626e-05
2	1	0	1	0	0	1304.3	0.58684	0.587201	0.0256993	11	0.132323	11	0	72.5635	1.50907e-05
2	1	0	1	0	0	1306.89	0.573858	0.574194	0.0129098	11	0.132372	11	0	75.1599	7.41273e-06
2	1	0	1	0	0	1309.49	0.560875	0.56122	0.0057258	11	0.132395	11	0	77.7564	3.21344e-06
2	1	0	1	0	0	1312.09	0.547893	0.54815	0.00164793	11	0.132404	11	0	80.3528	9.0331e-07
2	1	0	1	0	0	1314.68	0.534911	0.535204	-5.76167e-05	11	0.132405	11	0	0.000000000000000E+000	-3.08367e-08
2	1	0	1	0	0	1317.28	0.521929	0.52223	-0.00120873	11	0.132404	11	0	2.6963	-6.31233e-07
2	0	0	1	0	0	1319.88	0.508947	0.509255	-0.00160381	11	0.1324	11	0	5.2927	-8.16751e-07
2	0	0	1	0	0	1322.47	0.495965	0.496304	-0.00195131	11	0.132395	11	0	7.8891	-9.68443e-07
2	0	0	0	0	0	1325.07	0.482982	0.483303	-0.00232451	11	0.132389	11	0	10.4856	-1.12344e-06
2	0	0	0	0	0	1327.66	0.47	0.470286	-0.00239937	11	0.132383	11	0	13.082	-1.12839e-06
2	0	0	0	0	0	1330.26	0.457018	0.4574	-0.00242693	11	0.132376	11	0	15.6784	-1.11008e-06
2	1	0	0	0	1	1332.62	0.454821	0.455125	0.000302019	12	0.132373	11	0	0.6991	1.37456e-07
2	1	0	0	0	1	1335.22	0.467803	0.468112	0.000597785	12	0.132374	11	0	3.2955	2.7983e-07
2	0	0	0	0	1	1337.82	0.480786	0.481139	0.000913277	12	0.132376	11	0	5.8919	4.39413e-07
2	0	0	1	0	1	1340.41	0.493768	0.494066	0.00110718	12	0.132379	11	0	8.4884	5.47021e-07
2	0	0	1	0	1	1343.01	0.50675	0.507132	0.00140633	12	0.132382	11	0	11.0848	7.13194e-07
2	1	0	1	0	1	1345.61	0.519732	0.520137	0.00186007	12	0.132386	11	0	13.6812	9.67489e-07
2	1	0	1	0	1	1348.2	0.532714	0.532993	0.00258864	12	0.132392	11	0	16.2776	1.37973e-06
2	1	0	1	0	1	1350.8	0.545696	0.54601	0.00419303	12	0.132401	11	0	18.8741	2.28944e-06
2	1	0	1	0	1	1353.39	0.558678	0.559046	0.00684697	12	0.132415	11	0	21.4705	3.82777e-06
2	1	0	1	0	1	1355.99	0.57166	0.571955	0.0122064	12	0.132439	11	0	24.0669	6.98152e-06
2	1	0	1	0	1	1358.59	0.584643	0.58493	0.0219576	12	0.132482	11	0	26.6634	1.28437e-05
2	1	0	1	0	1	1361.18	0.597625	0.597963	0.039095	12	0.13256	11	0	29.2598	2.33774e-05
2	1	0	1	0	1	1363.78	0.610607	0.610911	0.0668836	12	0.132694	11	0	31.8562	4.086e-05
2	1	0	1	0	1	1366.38	0.623589	0.623885	0.109662	12	0.13292	11	0	34.4526	6.84167e-05
2	1	0	0	0	1	1368.97	0.636571	0.636901	0.170761	12	0.133281	11	0	37.0491	0.000108758
2	1	0	0	0	1	1371.57	0.649553	0.649872	0.25404	12	0.133827	11	0	39.6455	0.000165094
2	1	0	1	0	1	1374.17	0.662536	0.662873	0.361297	12	0.134621	11	0	42.242	0.000239494
2	1	0	1	0	1	1376.76	0.675518	0.675795	0.493975	12	0.135727	11	0	44.8384	0.000333826
2	1	0	1	0	1	1379.36	0.6885	0.688794	0.652874	12	0.137211	11	0	47.4348	0.000449696
2	1	0	1	0	1	1381.72	0.699684	0.699998	0.809819	12	0.138946	11	0	49.7949	0.000566872
2	1	0	1	0	1	1384.32	0.686702	0.687046	0.620634	12	0.140793	11	0	52.3913	0.000426404
2	1	0	1	0	1	1386.91	0.67372	0.673998	0.464438	12	0.142194	11	0	54.9877	0.00031303
2	1	0	1	0	1	1389.51	0.660738	0.661058	0.33821	12	0.143229	11	0	57.5842	0.000223576
2	1	0	1	0	1	1392.11	0.647756	0.648043	0.239166	12	0.143973	11	0	60.1806	0.00015499
2	1	0	1	0	1	1394.7	0.634774	0.635076	0.163227	12	0.14449	11	0	62.777	0.000103661
2	1	0	1	0	1	1397.3	0.621792	0.622074	0.10701	12	0.144836	11	0	65.3734	6.65682e-05
2	1	0	0	0	1	1399.89	0.608809	0.609128	0.0669026	12	0.145059	11	0	67.9699	4.07522e-05
2	1	0	0	0	1	1402.49	0.595827	0.596126	0.0395639	12	0.145195	11	0	70.5663	2.35851e-05
2	1	0	0	0	1	1405.09	0.582845	0.58313	0.0214274	12	0.145272	11	0	73.1627	1.24949e-05
2	1	0	1	0	1	1407.68	0.569863	0.570176	0.010393	12	0.145312	11	0	75.7592	5.92583e-06
2	1	0	1	0	1	1410.28	0.556881	0.557194	0.00422094	12	0.14533	11	0	78.3556	2.35188e-06
2	1	0	1	0	1	1412.88	0.543899	0.544237	0.00105644	12	0.145336	11	0	80.952	5.74953e-07
2	0	0	1	0	1	1415.47	0.530917	0.531216	-0.000371378	12	0.145337	11	0	0.7988	-1.97282e-07
2	0	0	1	0	1	1418.07	0.517934	0.518199	-0.00120643	12	0.145334	11	0	3.3953	-6.25173e-07
2	0	0	1	0	1	1420.67	0.504952	0.505288	-0.00177063	12	0.14533	11	0	5.9917	-8.94679e-07
2	0	0	1	0	1	1423.26	0.49197	0.492266	-0.00213785	12	0.145325	11	0	8.5881	-1.05239e-06
2	0	0	1	0	1	1425.86	0.478988	0.479261	-0.0022557	12	0.145319	11	0	11.1846	-1.08107e-06
2	0	0	1	0	1	1428.46	0.466006	0.466298	-0.00236111	12	0.145312	11	0	13.781	-1.10098e-06
2	0	0	1	0	1	1431.05	0.453024	0.453288	-0.00246418	12	0.145306	11	0	16.3774	-1.11698e-06
2	0	0	1	0	0	1433.41	0.458816	0.459134	0.000595783	13	0.145305	11	0	1.5978	2.73545e-07
2	1	0	1	0	0	1436.01	0.471798	0.472142	0.000636455	13	0.145307	11	0	4.1942	3.00497e-07
2	0	0	1	0	0	1438.61	0.48478	0.485106	0.000854226	13	0.145309	11	0	6.7906	4.1439e-07
2	1	0	1	0	0	1441.2	0.497762	0.498026	0.00099627	13	0.145311	11	0	9.387	4.96169e-07
2	1	0	0	0	0	1443.8	0.510744	0.511037	0.00133963	13	0.145314	11	0	11.9835	6.84602e-07
2	1	0	0	0	0	1446.4	0.523726	0.524098	0.00181755	13	0.145319	11	0	14.5799	9.52571e-07
2	1	0	1	0	0	1448.99	0.536709	0.53696	0.00307209	13	0.145325	11	0	17.1764	1.64959e-06
2	1	0	1	0	0	1451.59	0.549691	0.550024	0.00473113	13	0.145335	11	0	19.7728	2.60223e-06
2	1	0	1	0	0	1454.19	0.562673	0.562973	0.00826576	13	0.145351	11	0	22.3692	4.6534e-06
2	1	0	1	0	0	1456.78	0.575655	0.57594	0.0146165	13	0.14538	11	0	24.9656	8.41825e-06
2	1	0	1	0	0	1459.38	0.588637	0.588978	0.0265759	13	0.145433	11	0	27.5621	1.56526e-05
2	1	0	1	0	0	1461.97	0.601619	0.601952	0.0471534	13	0.145526	11	0	30.1585	2.83841e-05
2	1	0	1	0	0	1464.57	0.614601	0.61488	0.0796605	13	0.145688	11	0	32.7549	4.89817e-05
2	1	0	1	0	0	1467.17	0.627584	0.62791	0.128234	13	0.145954	11	0	35.3514	8.05196e-05
2	1	0	1	0	0	1469.76	0.640566	0.640882	0.196908	13	0.146372	11	0	37.9478	0.000126195
2	1	0	1	0	0	1472.36	0.653548	0.653897	0.287817	13	0.146997	11	0	40.5442	0.000188203
2	1	0	1	0	0	1474.96	0.66653	0.666854	0.40415	13	0.147891	11	0	43.1406	0.000269509
2	1	0	0	0	0	1477.55	0.679512	0.679825	0.545669	13	0.149119	11	0	45.7371	0.000370959
2	1	0	0	0	0	1480.15	0.692494	0.692806	0.714362	13	0.15075	11	0	48.3335	0.000494915
2	1	0	1	0	0	1482.51	0.695689	0.696079	0.753377	13	0.152578	11	0	50.6936	0.00052441
2	1	0	1	0	0	1485.11	0.682708	0.683068	0.574974	13	0.154294	11	0	53.29	0.000392746
2	1	0	1	0	0	1487.7	0.669726	0.670057	0.426926	13	0.155586	11	0	55.8864	0.000286065
2	1	0	1	0	0	1490.3	0.656744	0.657107	0.309138	13	0.156535	11	0	58.4828	0.000203137
2	1	0	1	0	0	1492.9	0.643761	0.644118	0.216282	13	0.157212	11	0	61.0793	0.000139311
2	1	0	1	0	0	1495.49	0.630779	0.631116	0.146322	13	0.157678	11	0	63.6757	9.23459e-05
2	1	0	1	0	0	1498.09	0.617797	0.618125	0.0947001	13	0.157986	11	0	66.2722	5.85365e-05
2	1	0	1	0	0	1500.68	0.604815	0.605139	0.0584773	13	0.158182	11	0	68.8686	3.53869e-05
2	1	0	1	0	0	1503.28	0.591833	0.592149	0.0337218	13	0.158299	11	0	71.465	1.99683e-05
2	1	0	1	0	0	1505.88	0.578851	0.579189	0.0176518	13	0.158364	11	0	74.0614	1.02237e-05
2	1	0	1	0	0	1508.47	0.565869	0.566186	0.00819242	13	0.158396	11	0	76.6578	4.63843e-06
2	1	0	0	0	0	1511.07	0.552886	0.553214	0.002997	13	0.15841	11	0	79.2543	1.65798e-06
2	1	0	0	0	0	1513.67	0.539904	0.540245	0.000568164	13	0.158414	11	0	81.8507	3.06948e-07
2	0	0	1	0	0	1516.26	0.526922	0.52723	-0.000718106	13	0.158413	11	0	1.5978	-3.78607e-07
2	1	0	1	0	0	1518.86	0.51394	0.514269	-0.00158605	13	0.15841	11	0	4.1942	-8.15655e-07
2	0	0	1	0	0	1521.46	0.500958	0.501279	-0.00177817	13	0.158406	11	0	6.7906	-8.91359e-07
2	0	0	1	0	0	1524.05	0.487976	0.488297	-0.00212404	13	0.1584	11	0	9.387	-1.03716e-06
2	0	0	1	0	0	1526.65	0.474994	0.475306	-0.00213168	13	0.158394	11	0	11.9835	-1.0132e-06
2	0	0	1	0	0	1529.25	0.462011	0.462295	-0.00239112	13	0.158388	11	0	14.5799	-1.1054e-06
2	1	0	0	0	1	1531.65	0.450053	0.45016	0.000509821	14	0.158382	11	0	0.000000000000000E+000	2.29501e-07
2	0	0	1	0	1	1534.2	0.46281	0.463081	0.000583049	14	0.158383	11	0	2.5516	2.69999e-07
2	1	0	1	0	1	1536.8	0.475792	0.476098	0.000777058	14	0.158385	11	0	5.148	3.69956e-07
2	0	0	1	0	1	1539.4	0.488774	0.489079	0.000858013	14	0.158387	11	0	7.7444	4.19636e-07
2	1	0	1	0	1	1541.99	0.501757	0.502065	0.0012486	14	0.15839	11	0	10.3409	6.26878e-07
2	1	0	1	0	1	1544.59	0.514739	0.515037	0.00155947	14	0.158393	11	0	12.9373	8.03183e-07
2	1	0	1	0	1	1547.19	0.527721	0.528046	0.00215425	14	0.158398	11	0	15.5337	1.13755e-06
2	1	0	1	0	1	1549.78	0.540703	0.541001	0.00333981	14	0.158405	11	0	18.1301	1.80684e-06
2	1	0	0	0	1	1552.38	0.553685	0.554008	0.00544802	14	0.158417	11	0	20.7266	3.01825e-06
2	1	0	0	0	1	1554.98	0.566667	0.567014	0.00982424	14	0.158436	11	0	23.323	5.57048e-06
2	1	0	0	0	1	1557.57	0.57965	0.579962	0.01787	14	0.158471	11	0	25.9194	1.03639e-05
2	1	0	1	0	1	1560.17	0.592632	0.592957	0.0321295	14	0.158534	11	0	28.5159	1.90514e-05
2	1	0	1	0	1	1562.77	0.605614	0.605967	0.056229	14	0.158647	11	0	31.1123	3.40729e-05
2	1	0	1	0	1	1565.36	0.618596	0.618939	0.0941728	14	0.158839	11	0	33.7087	5.82872e-05
2	1	0	1	0	1	1567.96	0.631578	0.631938	0.149339	14	0.159151	11	0	36.3051	9.43733e-05
2	1	0	1	0	1	1570.55	0.64456	0.644896	0.22523	14	0.159633	11	0	38.9016	0.00014525
2	1	0	1	0	1	1573.15	0.657542	0.65787	0.325086	14	0.160343	11	0	41.498	0.000213865
2	1	0	1	0	1	1575.75	0.670525	0.670901	0.449944	14	0.161344	11	0	44.0945	0.000301868
2	1	0	1	0	1	1578.34	0.683507	0.683825	0.599296	14	0.162702	11	0	46.6909	0.000409814
2	1	0	1	0	1	1580.94	0.696489	0.696858	0.776168	14	0.164484	11	0	49.2873	0.000540879
2	1	0	0	0	1	1583.3	0.691695	0.692048	0.699933	14	0.16631	11	0	51.6474	0.000484387
2	1	0	0	0	1	1585.9	0.678713	0.679052	0.530913	14	0.1679	11	0	54.2438	0.000360518
2	1	0	0	0	1	1588.49	0.665731	0.666052	0.392619	14	0.169091	11	0	56.8402	0.000261504
2	1	0	1	0	1	1591.09	0.652748	0.653075	0.281373	14	0.16996	11	0	59.4367	0.000183758
2	1	0	1	0	1	1593.69	0.639767	0.640089	0.195235	14	0.170573	11	0	62.0331	0.000124968
2	1	0	1	0	1	1596.28	0.626785	0.627112	0.130676	14	0.170992	11	0	64.6295	8.19482e-05
2	1	0	1	0	1	1598.88	0.613803	0.614109	0.0835358	14	0.171266	11	0	67.2259	5.13001e-05
2	1	0	1	0	1	1601.48	0.60082	0.601162	0.0504612	14	0.171437	11	0	69.8224	3.03354e-05
2	1	0	1	0	1	1604.07	0.587838	0.588219	0.0284124	14	0.171537	11	0	72.4188	1.67127e-05
2	1	0	1	0	1	1606.67	0.574856	0.575252	0.0142534	14	0.171591	11	0	75.0152	8.19932e-06
2	1	0	1	0	1	1609.26	0.561874	0.562156	0.00636587	14	0.171616	11	0	77.6117	3.57861e-06
2	1	0	1	0	1	1611.86	0.548892	0.549211	0.00191362	14	0.171626	11	0	80.2081	1.05098e-06
2	1	0	1	0	1	1614.46	0.53591	0.536251	7.63645e-05	14	0.171629	11	0	0.000000000000000E+000	4.09505e-08
2	1	0	1	0	1	1617.05	0.522928	0.523257	-0.000919452	14	0.171627	11	0	2.5964	-4.81109e-07
2	0	0	0	0	1	1619.65	0.509945	0.510244	-0.00164809	14	0.171623	11	0	5.1929	-8.4093e-07
2	0	0	0	0	1	1622.25	0.496963	0.49723	-0.00206161	14	0.171618	11	0	7.7893	-1.02509e-06
2	0	0	0	0	1	1624.84	0.483981	0.484277	-0.00235378	14	0.171613	11	0	10.3857	-1.13988e-06
2	0	0	1	0	1	1627.44	0.470999	0.471277	-0.00226815	14	0.171606	11	0	12.9822	-1.06893e-06
2	0	0	1	0	1	1630.04	0.458017	0.458347	-0.00235497	14	0.1716	11	0	15.5786	-1.07939e-06
2	0	0	1	0	0	1632.4	0.453823	0.454131	0.000445891	15	0.171596	11	0	0.5992	2.02493e-07
2	0	0	1	0	0	1635	0.466805	0.467077	0.000609236	15	0.171598	11	0	3.1956	2.8456e-07
2	0	0	1	0	0	1637.59	0.479787	0.480085	0.000916116	15	0.1716	11	0	5.792	4.39814e-07
2	1	0	1	0	0	1640.19	0.492769	0.49307	0.00100746	15	0.171603	11	0	8.3884	4.96747e-07
2	0	0	1	0	0	1642.78	0.505751	0.506006	0.00131495	15	0.171606	11	0	10.9849	6.65372e-07
2	1	0	1	0	0	1645.38	0.518733	0.519091	0.00163739	15	0.17161	11	0	13.5813	8.49954e-07
2	1	0	1	0	0	1647.98	0.531715	0.532009	0.00259852	15	0.171615	11	0	16.1777	1.38244e-06
2	1	0	1	0	0	1650.57	0.544698	0.545009	0.00379103	15	0.171624	11	0	18.7742	2.06615e-06
2	1	0	1	0	0	1653.17	0.55768	0.55801	0.00675975	15	0.171637	11	0	21.3706	3.77201e-06
2	1	0	1	0	0	1655.77	0.570662	0.570992	0.0118826	15	0.171661	11	0	23.967	6.78489e-06
2	1	0	1	0	0	1658.36	0.583644	0.583987	0.0215232	15	0.171703	11	0	26.5634	1.25693e-05
2	1	0	0	0	0	1660.96	0.596626	0.596959	0.0388979	15	0.171779	11	0	29.1599	2.32205e-05
2	1	0	0	0	0	1663.56	0.609608	0.609983	0.0670922	15	0.171914	11	0	31.7563	4.09251e-05
2	1	0	0	0	0	1666.15	0.62259	0.622934	0.110295	15	0.172141	11	0	34.3527	6.87064e-05
2	1	0	1	0	0	1668.75	0.635573	0.635912	0.172308	15	0.172505	11	0	36.9492	0.000109573
2	1	0	1	0	0	1671.35	0.648555	0.648821	0.256137	15	0.173056	11	0	39.5456	0.000166187
2	1	0	1	0	0	1673.94	0.661537	0.661852	0.364015	15	0.173857	11	0	42.142	0.000240924
2	1	0	1	0	0	1676.54	0.674519	0.674918	0.498179	15	0.174971	11	0	44.7384	0.00033623
2	1	0	1	0	0	1679.13	0.687501	0.687851	0.657053	15	0.176466	11	0	47.3349	0.000451954
2	1	0	0	0	0	1681.63	0.700009	0.700481	0.836242	15	0.178321	11	0	49.8297	0.000585771
2	1	0	1	0	0	1684.09	0.687701	0.688024	0.65051	15	0.180138	11	0	52.2914	0.000447566
2	1	0	1	0	0	1686.69	0.674719	0.675056	0.490843	15	0.181613	11	0	54.8878	0.000331346
2	1	0	1	0	0	1689.28	0.661737	0.662027	0.36012	15	0.182711	11	0	57.4842	0.000238409
2	1	0	1	0	0	1691.88	0.648755	0.649135	0.256071	15	0.183505	11	0	60.0806	0.000166225
2	1	0	0	0	0	1694.48	0.635772	0.636068	0.176072	15	0.184061	11	0	62.6771	0.000111994
2	1	0	0	0	0	1697.07	0.62279	0.623129	0.116372	15	0.184436	11	0	65.2735	7.25148e-05
2	1	0	1	0	0	1699.67	0.609808	0.610111	0.0732591	15	0.184679	11	0	67.87	4.46961e-05
2	1	0	1	0	0	1702.27	0.596826	0.597154	0.0435057	15	0.184828	11	0	70.4664	2.59796e-05
2	1	0	1	0	0	1704.86	0.583844	0.58418	0.023755	15	0.184913	11	0	73.0628	1.38772e-05
2	1	0	1	0	0	1707.46	0.570862	0.571187	0.0116931	15	0.184957	11	0	75.6592	6.67894e-06
2	1	0	1	0	0	1710.06	0.55788	0.558194	0.00482215	15	0.184977	11	0	78.2556	2.69169e-06
2	1	0	1	0	0	1712.65	0.544897	0.545221	0.00136962	15	0.184984	11	0	80.8521	7.46746e-07
2	1	0	1	0	0	1715.25	0.531915	0.53224	-0.00043725	15	0.184985	11	0	0.699	-2.32722e-07
2	0	0	1	0	0	1717.84	0.518933	0.519224	-0.00122492	15	0.184983	11	0	3.2955	-6.36009e-07
2	0	0	1	0	0	1720.44	0.505951	0.506252	-0.00182391	15	0.184979	11	0	5.8919	-9.23361e-07
2	0	0	1	0	0	1723.04	0.492969	0.49331	-0.00207712	15	0.184974	11	0	8.4883	-1.02466e-06
2	0	0	1	0	0	1725.63	0.479987	0.480328	-0.00230907	15	0.184969	11	0	11.0847	-1.10911e-06
2	0	0	0	0	0	1728.23	0.467004	0.467323	-0.00246385	15	0.184963	11	0	13.6812	-1.15141e-06
2	0	0	0	0	0	1730.83	0.454022	0.454354	-0.00246466	15	0.184956	11	0	16.2776	-1.11983e-06
2	0	0	1	0	0	1731.63	0.450003	0.450217	-0.0026642	15	0.184954	11	0	17.0772	-1.19947e-06