File: ACS_Catal_2026/Figures_Na_K/main_figures/data/EC/20240401_2-128_CV_cycles_alpha_gamma/gamma/20240328_2-128_008_gamma_Na-2_02_PEIS_C02.mpt
EC-Lab ASCII FILE
Nb header lines : 63

Potentio Electrochemical Impedance Spectroscopy

Run on channel : 2 (SN 66414)
User :
CE vs. WE compliance from -10 V to 10 V
Electrode connection : standard
Potential control : Ewe
Ewe ctrl range : min = -1.00 V, max = 1.00 V
Safety Limits :
	Do not start on E overload
Acquisition started on : 04/01/2024 20:34:39.484
Loaded Setting File :  C:\Users\NakamuraT\Documents\EC-Lab\Data\Yatsuzuka\20240401_2-128_CV_cycles_alpha_gamma\20240328_2-128_001_alpha_K-1.mps
Saved on :
	File : 20240328_2-128_008_gamma_Na-2_02_PEIS_C02.mpr
	Directory : C:\Users\NakamuraT\Documents\EC-Lab\Data\Yatsuzuka\20240401_2-128_CV_cycles_alpha_gamma\
	Host : 192.109.209.100
Device : SP-150e (SN .003411)
Address : 192.109.209.236
EC-Lab for windows v11.50 (software)
Internet server v11.50 (firmware)
Command interpretor v11.50 (firmware)
Electrode material :
Initial state :
Electrolyte :
Comments :
Electrode surface area : 0.001 cm2
Characteristic mass : 0.001 g
Equivalent Weight : 0.000 g/eq.
Density : 0.000 g/cm3
Volume (V) : 0.001 cm3
Cycle Definition : Charge/Discharge alternance
Mode                Single sine
E (V)               0.4500
vs.                 Ref
tE (h:m:s)          0:00:0.0000
record              0
dI                  0.000
unit dI             mA
dt (s)              0.000
fi                  500.000
unit fi             kHz
ff                  1.000
unit ff             Hz
Nd                  6
Points              per decade
spacing             Logarithmic
Va (mV)             10.0
pw                  0.10
Na                  2
corr                0
E range min (V)     -1.000
E range max (V)     1.000
I Range             Auto
Bandwidth           5
nc cycles           0
goto Ns'            0
nr cycles           0
inc. cycle          0

freq/Hz	Re(Z)/Ohm	-Im(Z)/Ohm	|Z|/Ohm	Phase(Z)/deg	time/s	<Ewe>/V	<I>/mA	Cs/uF	Cp/uF	cycle number	I Range	|Ewe|/V	|I|/A	Ns	(Q-Qo)/mA.h	Re(Y)/Ohm-1	Im(Y)/Ohm-1	|Y|/Ohm-1	Phase(Y)/deg	Re(C)/nF	Im(C)/nF	|C|/nF	Phase(C)/deg	Re(M)	Im(M)	|M|	Phase(M)/deg	Re(Permittivity)	Im(Permittivity)	|Permittivity|	Phase(Permittivity)/deg	Re(Resistivity)/Ohm.cm	Im(Resistivity)/Ohm.cm	|Resistivity|/Ohm.cm	Phase(Resistivity)/deg	Re(Conductivity)/mS/cm	Im(Conductivity)/mS/cm	|Conductivity|/mS/cm	Phase(Conductivity)/deg	Tan(Delta)	Loss Angle(Delta)/deg	dq/mA.h
500019	45.7023	9.7948	46.7401	-12.0965	201.393	0.450481	-0.000847181	0.0324967	0.00142709	1	11	0.0106307	0.000227443	0	2.39179e-07	0.0209198	0.00448349	0.0213949	12.0965	1.42708	6.65875	6.80995	-77.9035	0.0000000E+000	0.0000000E+000	0.0000000E+000	77.9035	0.0000000E+000	0.0000000E+000	0.0000000E+000	-77.9035	0.0000000E+000	0.0000000E+000	0.0000000E+000	-12.0965	0.0000000E+000	0.0000000E+000	0.0000000E+000	12.0965	4.66598	77.9035	2.39179e-07
339899	35.1798	-0.469121	35.1829	0.763991	201.815	0.450361	-0.000767353	-0.998125	-0.000177456	1	11	0.0103983	0.000295551	0	4.95648e-07	0.0284203	-0.000378984	0.0284229	-0.763991	-0.177456	13.3076	13.3088	-90.764	0.0000000E+000	0.0000000E+000	0.0000000E+000	90.764	0.0000000E+000	0.0000000E+000	0.0000000E+000	-90.764	0.0000000E+000	0.0000000E+000	0.0000000E+000	0.763991	0.0000000E+000	0.0000000E+000	0.0000000E+000	-0.763991	74.9909	89.236	2.56468e-07
231063	29.2464	-0.848331	29.2587	1.66148	202.676	0.450315	-0.00393922	-0.811942	-0.00068257	1	10	0.00993373	0.000339514	0	-3.92155e-07	0.0341636	-0.000990961	0.0341779	-1.66148	-0.682569	23.5317	23.5416	-91.6615	0.0000000E+000	0.0000000E+000	0.0000000E+000	91.6615	0.0000000E+000	0.0000000E+000	0.0000000E+000	-91.6615	0.0000000E+000	0.0000000E+000	0.0000000E+000	1.66148	0.0000000E+000	0.0000000E+000	0.0000000E+000	-1.66148	34.4752	88.3385	-8.87803e-07
157076	26.9442	-0.442909	26.9479	0.941743	203.098	0.450318	-0.00420243	-2.28768	-0.000617983	1	10	0.0107749	0.00039984	0	-1.55016e-06	0.0371037	-0.00060991	0.0371087	-0.941743	-0.617982	37.5948	37.5999	-90.9417	0.0000000E+000	0.0000000E+000	0.0000000E+000	90.9417	0.0000000E+000	0.0000000E+000	0.0000000E+000	-90.9417	0.0000000E+000	0.0000000E+000	0.0000000E+000	0.941743	0.0000000E+000	0.0000000E+000	0.0000000E+000	-0.941743	60.8347	89.0583	-1.15801e-06
106786	26.2259	-0.144663	26.2263	0.316041	203.52	0.450315	-0.00422109	-10.3026	-0.000313463	1	10	0.0106861	0.000407457	0	-1.09962e-06	0.038129	-0.00021032	0.0381296	-0.316041	-0.313462	56.8278	56.8286	-90.316	0.0000000E+000	0.0000000E+000	0.0000000E+000	90.316	0.0000000E+000	0.0000000E+000	0.0000000E+000	-90.316	0.0000000E+000	0.0000000E+000	0.0000000E+000	0.316041	0.0000000E+000	0.0000000E+000	0.0000000E+000	-0.316041	181.29	89.684	4.50537e-07
72595	25.8931	-0.0409944	25.8931	0.0907117	203.942	0.450329	-0.00439283	-53.4796	-0.000134051	1	10	0.0105018	0.000405584	0	-1.11137e-06	0.0386203	-6.11444e-05	0.0386203	-0.0907117	-0.134054	84.6698	84.6699	-90.0907	0.0000000E+000	0.0000000E+000	0.0000000E+000	90.0907	0.0000000E+000	0.0000000E+000	0.0000000E+000	-90.0907	0.0000000E+000	0.0000000E+000	0.0000000E+000	0.0907117	0.0000000E+000	0.0000000E+000	0.0000000E+000	-0.0907117	631.624	89.9093	-1.17418e-08
49352.4	25.7725	0.00878935	25.7725	-0.0195399	204.364	0.450325	-0.0045459	366.907	4.26731e-05	1	10	0.0103715	0.000402425	0	-1.95291e-06	0.038801	1.32325e-05	0.038801	0.0195399	0.0426709	125.128	125.128	-89.9805	0.0000000E+000	0.0000000E+000	0.0000000E+000	89.9805	0.0000000E+000	0.0000000E+000	0.0000000E+000	-89.9805	0.0000000E+000	0.0000000E+000	0.0000000E+000	-0.0195399	0.0000000E+000	0.0000000E+000	0.0000000E+000	0.0195399	2932.25	89.9805	-8.41545e-07
33551.1	25.723	0.0373076	25.723	-0.0830995	204.787	0.450325	-0.00446563	127.15	0.000267466	1	10	0.0103419	0.000402048	0	-2.99927e-06	0.0388757	5.63838e-05	0.0388758	0.0830995	0.267465	184.413	184.413	-89.9169	0.0000000E+000	0.0000000E+000	0.0000000E+000	89.9169	0.0000000E+000	0.0000000E+000	0.0000000E+000	-89.9169	0.0000000E+000	0.0000000E+000	0.0000000E+000	-0.0830995	0.0000000E+000	0.0000000E+000	0.0000000E+000	0.0830995	689.484	89.9169	-1.04636e-06
22806.6	25.677	0.0571658	25.6771	-0.12756	205.209	0.450329	-0.00411656	122.074	0.00060507	1	10	0.0102338	0.000398558	0	-3.63369e-06	0.0389452	8.67053e-05	0.0389453	0.12756	0.605087	271.778	271.778	-89.8724	0.0000000E+000	0.0000000E+000	0.0000000E+000	89.8724	0.0000000E+000	0.0000000E+000	0.0000000E+000	-89.8724	0.0000000E+000	0.0000000E+000	0.0000000E+000	-0.12756	0.0000000E+000	0.0000000E+000	0.0000000E+000	0.12756	449.167	89.8724	-6.34423e-07
15504.4	25.655	0.0832934	25.6551	-0.18602	205.631	0.450333	-0.00402136	123.241	0.00129906	1	10	0.0101708	0.000396445	0	-4.00233e-06	0.0389784	0.00012655	0.0389786	0.18602	1.29906	400.119	400.121	-89.814	0.0000000E+000	0.0000000E+000	0.0000000E+000	89.814	0.0000000E+000	0.0000000E+000	0.0000000E+000	-89.814	0.0000000E+000	0.0000000E+000	0.0000000E+000	-0.18602	0.0000000E+000	0.0000000E+000	0.0000000E+000	0.18602	308.007	89.814	-3.68637e-07
10540.4	25.6383	0.151453	25.6387	-0.33846	205.918	0.450322	-0.0045403	99.6977	0.00347896	1	10	0.0107241	0.000418278	0	-4.159e-06	0.0390028	0.000230401	0.0390035	0.33846	3.47899	588.924	588.935	-89.6615	0.0000000E+000	0.0000000E+000	0.0000000E+000	89.6615	0.0000000E+000	0.0000000E+000	0.0000000E+000	-89.6615	0.0000000E+000	0.0000000E+000	0.0000000E+000	-0.33846	0.0000000E+000	0.0000000E+000	0.0000000E+000	0.33846	169.282	89.6615	-1.56675e-07
7163.78	25.6775	0.17302	25.6781	-0.386065	206.441	0.450311	-0.00603926	128.405	0.00582975	1	10	0.0100584	0.000391711	0	-4.73233e-06	0.0389428	0.000262405	0.0389437	0.386065	5.82971	865.178	865.197	-89.6139	0.0000000E+000	0.0000000E+000	0.0000000E+000	89.6139	0.0000000E+000	0.0000000E+000	0.0000000E+000	-89.6139	0.0000000E+000	0.0000000E+000	0.0000000E+000	-0.386065	0.0000000E+000	0.0000000E+000	0.0000000E+000	0.386065	148.407	89.6139	-5.7333e-07
4871.56	25.6726	0.19083	25.6733	-0.425884	206.909	0.450356	-0.00493417	171.201	0.00945877	1	10	0.0101825	0.00039662	0	-5.11664e-06	0.0389499	0.000289523	0.038951	0.425884	9.4587	1272.5	1272.54	-89.5741	0.0000000E+000	0.0000000E+000	0.0000000E+000	89.5741	0.0000000E+000	0.0000000E+000	0.0000000E+000	-89.5741	0.0000000E+000	0.0000000E+000	0.0000000E+000	-0.425884	0.0000000E+000	0.0000000E+000	0.0000000E+000	0.425884	134.531	89.5741	-3.84306e-07
3311.06	25.6715	0.30605	25.6733	-0.683034	207.374	0.450355	-0.00469337	157.058	0.0223193	1	10	0.0102464	0.000399108	0	-5.66539e-06	0.0389482	0.000464331	0.0389509	0.683034	22.3194	1872.15	1872.28	-89.317	0.0000000E+000	0.0000000E+000	0.0000000E+000	89.317	0.0000000E+000	0.0000000E+000	0.0000000E+000	-89.317	0.0000000E+000	0.0000000E+000	0.0000000E+000	-0.683034	0.0000000E+000	0.0000000E+000	0.0000000E+000	0.683034	83.8802	89.317	-5.48752e-07
2250.72	25.6776	0.455188	25.6817	-1.01558	207.839	0.450346	-0.00480164	155.349	0.0488026	1	10	0.0102676	0.000399803	0	-6.17532e-06	0.0389322	0.000690151	0.0389383	1.01558	48.8027	2753.01	2753.44	-88.9844	0.0000000E+000	0.0000000E+000	0.0000000E+000	88.9844	0.0000000E+000	0.0000000E+000	0.0000000E+000	-88.9844	0.0000000E+000	0.0000000E+000	0.0000000E+000	-1.01558	0.0000000E+000	0.0000000E+000	0.0000000E+000	1.01558	56.4111	88.9844	-5.09929e-07
1530.49	25.7478	0.595133	25.7546	-1.3241	208.304	0.450353	-0.00512084	174.733	0.0933024	1	10	0.0102922	0.000399624	0	-6.8996e-06	0.0388176	0.000897228	0.038828	1.3241	93.3023	4036.62	4037.7	-88.6759	0.0000000E+000	0.0000000E+000	0.0000000E+000	88.6759	0.0000000E+000	0.0000000E+000	0.0000000E+000	-88.6759	0.0000000E+000	0.0000000E+000	0.0000000E+000	-1.3241	0.0000000E+000	0.0000000E+000	0.0000000E+000	1.3241	43.2639	88.6759	-7.24283e-07
1040.33	25.7877	0.890011	25.8031	-1.97666	208.769	0.450351	-0.00538031	171.891	0.204503	1	10	0.0102951	0.000398987	0	-7.76718e-06	0.038732	0.00133676	0.0387551	1.97666	204.503	5925.41	5928.94	-88.0233	0.0000000E+000	0.0000000E+000	0.0000000E+000	88.0233	0.0000000E+000	0.0000000E+000	0.0000000E+000	-88.0233	0.0000000E+000	0.0000000E+000	0.0000000E+000	-1.97666	0.0000000E+000	0.0000000E+000	0.0000000E+000	1.97666	28.9746	88.0233	-8.67581e-07
707.036	25.8251	1.26166	25.8559	-2.79691	209.234	0.450352	-0.00516564	178.417	0.424817	1	10	0.0102949	0.000398163	0	-8.55041e-06	0.0386298	0.00188722	0.0386759	2.79691	424.817	8695.63	8706	-87.2031	0.0000000E+000	0.0000000E+000	0.0000000E+000	87.2031	0.0000000E+000	0.0000000E+000	0.0000000E+000	-87.2031	0.0000000E+000	0.0000000E+000	0.0000000E+000	-2.79691	0.0000000E+000	0.0000000E+000	0.0000000E+000	2.79691	20.4691	87.2031	-7.83227e-07
480.769	25.8542	1.7933	25.9163	-3.96779	209.699	0.450345	-0.00625953	184.6	0.883872	1	10	0.0102907	0.000397076	0	-9.30741e-06	0.0384932	0.00266997	0.0385857	3.96779	883.873	12742.9	12773.5	-86.0322	0.0000000E+000	0.0000000E+000	0.0000000E+000	86.0322	0.0000000E+000	0.0000000E+000	0.0000000E+000	-86.0322	0.0000000E+000	0.0000000E+000	0.0000000E+000	-3.96779	0.0000000E+000	0.0000000E+000	0.0000000E+000	3.96779	14.4171	86.0322	-7.57e-07
326.778	25.9629	2.57217	26.09	-5.65789	210.162	0.45034	-0.00600566	189.351	1.84043	1	10	0.0102959	0.00039463	0	-1.029e-05	0.0381422	0.00377879	0.0383289	5.65789	1840.44	18576.9	18667.8	-84.3421	0.0000000E+000	0.0000000E+000	0.0000000E+000	84.3421	0.0000000E+000	0.0000000E+000	0.0000000E+000	-84.3421	0.0000000E+000	0.0000000E+000	0.0000000E+000	-5.65789	0.0000000E+000	0.0000000E+000	0.0000000E+000	5.65789	10.0938	84.3421	-9.82589e-07
222.061	26.094	3.64647	26.3475	-7.95521	210.875	0.450328	-0.000893617	196.551	3.7648	1	11	0.0103127	0.000391412	0	-1.02419e-05	0.037589	0.00525283	0.0379542	7.95521	3764.8	26940.7	27202.5	-82.0448	0.0000000E+000	0.0000000E+000	0.0000000E+000	82.0448	0.0000000E+000	0.0000000E+000	0.0000000E+000	-82.0448	0.0000000E+000	0.0000000E+000	0.0000000E+000	-7.95521	0.0000000E+000	0.0000000E+000	0.0000000E+000	7.95521	7.15595	82.0448	4.81167e-08
151.015	26.2453	5.18496	26.7525	-11.1753	211.337	0.450332	-0.000892312	203.261	7.63512	1	11	0.0103098	0.000385377	0	-1.05193e-05	0.0366708	0.00724461	0.0373796	11.1753	7635.12	38647.5	39394.5	-78.8247	0.0000000E+000	0.0000000E+000	0.0000000E+000	78.8247	0.0000000E+000	0.0000000E+000	0.0000000E+000	-78.8247	0.0000000E+000	0.0000000E+000	0.0000000E+000	-11.1753	0.0000000E+000	0.0000000E+000	0.0000000E+000	11.1753	5.06181	78.8247	-2.77395e-07
102.667	26.4541	7.43892	27.4801	-15.7061	211.812	0.450334	-0.000876645	208.39	15.2708	1	11	0.0103149	0.000375358	0	-1.08294e-05	0.0350313	0.00985084	0.03639	15.7061	15270.8	54305.5	56411.7	-74.2939	0.0000000E+000	0.0000000E+000	0.0000000E+000	74.2939	0.0000000E+000	0.0000000E+000	0.0000000E+000	-74.2939	0.0000000E+000	0.0000000E+000	0.0000000E+000	-15.7061	0.0000000E+000	0.0000000E+000	0.0000000E+000	15.7061	3.55617	74.2939	-3.10112e-07
69.7545	26.7193	10.6775	28.7738	-21.7826	212.279	0.450326	-0.000834494	213.686	29.4255	1	11	0.0103079	0.000358237	0	-1.09576e-05	0.0322723	0.0128966	0.0347538	21.7826	29425.5	73634	79295.8	-68.2174	0.0000000E+000	0.0000000E+000	0.0000000E+000	68.2174	0.0000000E+000	0.0000000E+000	0.0000000E+000	-68.2174	0.0000000E+000	0.0000000E+000	0.0000000E+000	-21.7826	0.0000000E+000	0.0000000E+000	0.0000000E+000	21.7826	2.50239	68.2174	-1.28247e-07
47.4443	27.1022	15.3761	31.1602	-29.5678	212.723	0.450325	-0.00107901	218.168	53.123	1	11	0.0103093	0.000330848	0	-1.13016e-05	0.027913	0.015836	0.0320923	29.5678	53123	93635.8	107656	-60.4322	0.0000000E+000	0.0000000E+000	0.0000000E+000	60.4322	0.0000000E+000	0.0000000E+000	0.0000000E+000	-60.4322	0.0000000E+000	0.0000000E+000	0.0000000E+000	-29.5678	0.0000000E+000	0.0000000E+000	0.0000000E+000	29.5678	1.76262	60.4322	-3.43937e-07
32.2387	27.6205	22.1814	35.4246	-38.7672	213.16	0.450326	-0.00110028	222.564	87.2612	1	11	0.0103072	0.000290962	0	-1.14474e-05	0.02201	0.0176758	0.0282289	38.7672	87261.2	108658	139360	-51.2328	0.0000000E+000	0.0000000E+000	0.0000000E+000	51.2328	0.0000000E+000	0.0000000E+000	0.0000000E+000	-51.2328	0.0000000E+000	0.0000000E+000	0.0000000E+000	-38.7672	0.0000000E+000	0.0000000E+000	0.0000000E+000	38.7672	1.24521	51.2328	-1.45864e-07
21.9144	28.3681	32.0108	42.7719	-48.4525	213.591	0.450319	-0.00132502	226.878	127.077	1	11	0.0103101	0.000241049	0	-1.21899e-05	0.0155064	0.0174976	0.0233798	48.4525	127077	112616	169797	-41.5475	0.0000000E+000	0.0000000E+000	0.0000000E+000	41.5475	0.0000000E+000	0.0000000E+000	0.0000000E+000	-41.5475	0.0000000E+000	0.0000000E+000	0.0000000E+000	-48.4525	0.0000000E+000	0.0000000E+000	0.0000000E+000	48.4525	0.886203	41.5475	-7.42429e-07
14.9093	29.3721	46.1132	54.6731	-57.5047	214.059	0.450333	-0.000828344	231.492	164.68	1	11	0.0103011	0.000188413	0	-1.22532e-05	0.00982624	0.0154269	0.0182905	57.5047	164680	104894	195249	-32.4953	0.0000000E+000	0.0000000E+000	0.0000000E+000	32.4953	0.0000000E+000	0.0000000E+000	0.0000000E+000	-32.4953	0.0000000E+000	0.0000000E+000	0.0000000E+000	-57.5047	0.0000000E+000	0.0000000E+000	0.0000000E+000	57.5047	0.636956	32.4953	-6.33632e-08
10.1329	30.3992	67.1787	73.7366	-65.6527	214.519	0.450333	-0.000867327	233.805	194.066	1	11	0.0103014	0.000139706	0	-1.14377e-05	0.00559108	0.0123556	0.0135618	65.6527	194066	87817.4	213011	-24.3473	0.0000000E+000	0.0000000E+000	0.0000000E+000	24.3473	0.0000000E+000	0.0000000E+000	0.0000000E+000	-24.3473	0.0000000E+000	0.0000000E+000	0.0000000E+000	-65.6527	0.0000000E+000	0.0000000E+000	0.0000000E+000	65.6527	0.452512	24.3473	8.15524e-07
6.88933	32.7945	96.4482	101.871	-71.2209	215.072	0.450335	0.000112743	239.524	214.701	1	12	0.0103154	0.000101259	0	-1.14582e-05	0.00316008	0.00929376	0.00981632	71.2209	214701	73003.1	226773	-18.7791	0.0000000E+000	0.0000000E+000	0.0000000E+000	18.7791	0.0000000E+000	0.0000000E+000	0.0000000E+000	-18.7791	0.0000000E+000	0.0000000E+000	0.0000000E+000	-71.2209	0.0000000E+000	0.0000000E+000	0.0000000E+000	71.2209	0.340022	18.7791	-2.0464e-08
4.68375	36.0419	139.572	144.15	-75.5207	215.569	0.450348	6.98588e-05	243.46	228.24	1	12	0.010308	7.1509e-05	0	-1.24632e-05	0.00173451	0.00671686	0.0069372	75.5207	228240	58939	235728	-14.4793	0.0000000E+000	0.0000000E+000	0.0000000E+000	14.4793	0.0000000E+000	0.0000000E+000	0.0000000E+000	-14.4793	0.0000000E+000	0.0000000E+000	0.0000000E+000	-75.5207	0.0000000E+000	0.0000000E+000	0.0000000E+000	75.5207	0.258232	14.4793	-1.00504e-06
3.18099	40.4957	201.804	205.827	-78.6533	216.272	0.45034	-4.32832e-05	247.929	238.332	1	12	0.0103031	5.0057e-05	0	-1.24362e-05	0.000955879	0.00476348	0.00485844	78.6533	238332	47825.7	243083	-11.3467	0.0000000E+000	0.0000000E+000	0.0000000E+000	11.3467	0.0000000E+000	0.0000000E+000	0.0000000E+000	-11.3467	0.0000000E+000	0.0000000E+000	0.0000000E+000	-78.6533	0.0000000E+000	0.0000000E+000	0.0000000E+000	78.6533	0.200668	11.3467	2.70077e-08
2.16533	46.0159	290.861	294.479	-81.01	217.283	0.450348	0.000118505	252.703	246.533	1	12	0.0102991	3.49741e-05	0	-1.16442e-05	0.000530641	0.00335412	0.00339583	81.01	246533	39002.9	249599	-8.99002	0.0000000E+000	0.0000000E+000	0.0000000E+000	8.99002	0.0000000E+000	0.0000000E+000	0.0000000E+000	-8.99002	0.0000000E+000	0.0000000E+000	0.0000000E+000	-81.01	0.0000000E+000	0.0000000E+000	0.0000000E+000	81.01	0.158206	8.99002	7.91948e-07
1.46962	55.278	422.723	426.322	-82.5499	219.483	0.450351	0.000203597	256.188	251.881	1	13	0.0103049	2.41717e-05	0	-1.12884e-05	0.000304142	0.00232584	0.00234564	82.5499	251881	32937.6	254025	-7.4501	0.0000000E+000	0.0000000E+000	0.0000000E+000	7.4501	0.0000000E+000	0.0000000E+000	0.0000000E+000	-7.4501	0.0000000E+000	0.0000000E+000	0.0000000E+000	-82.5499	0.0000000E+000	0.0000000E+000	0.0000000E+000	82.5499	0.130767	7.4501	3.55865e-07
1.00006	67.5957	611.94	615.662	-83.6966	221.623	0.450349	0.000229271	260.066	256.931	1	13	0.0103015	1.67323e-05	0	-1.1667e-05	0.000178334	0.00161445	0.00162427	83.6966	256931	28380.9	258494	-6.30341	0.0000000E+000	0.0000000E+000	0.0000000E+000	6.30341	0.0000000E+000	0.0000000E+000	0.0000000E+000	-6.30341	0.0000000E+000	0.0000000E+000	0.0000000E+000	-83.6966	0.0000000E+000	0.0000000E+000	0.0000000E+000	83.6966	0.110461	6.30341	-3.78609e-07