File: ACS_Catal_2026/Figures_Na_K/main_figures/data/EC/20240401_2-128_CV_cycles_alpha_gamma/gamma/20240328_2-128_002_gamma_K-1_02_PEIS_C02.mpt
EC-Lab ASCII FILE
Nb header lines : 63

Potentio Electrochemical Impedance Spectroscopy

Run on channel : 2 (SN 66414)
User :
CE vs. WE compliance from -10 V to 10 V
Electrode connection : standard
Potential control : Ewe
Ewe ctrl range : min = -1.00 V, max = 1.00 V
Safety Limits :
	Do not start on E overload
Acquisition started on : 04/01/2024 18:52:31.695
Loaded Setting File :  C:\Users\NakamuraT\Documents\EC-Lab\Data\Yatsuzuka\20240401_2-128_CV_cycles_alpha_gamma\20240328_2-128_001_alpha_K-1.mps
Saved on :
	File : 20240328_2-128_002_gamma_K-1_02_PEIS_C02.mpr
	Directory : C:\Users\NakamuraT\Documents\EC-Lab\Data\Yatsuzuka\20240401_2-128_CV_cycles_alpha_gamma\
	Host : 192.109.209.100
Device : SP-150e (SN .003411)
Address : 192.109.209.236
EC-Lab for windows v11.50 (software)
Internet server v11.50 (firmware)
Command interpretor v11.50 (firmware)
Electrode material :
Initial state :
Electrolyte :
Comments :
Electrode surface area : 0.001 cm2
Characteristic mass : 0.001 g
Equivalent Weight : 0.000 g/eq.
Density : 0.000 g/cm3
Volume (V) : 0.001 cm3
Cycle Definition : Charge/Discharge alternance
Mode                Single sine
E (V)               0.4500
vs.                 Ref
tE (h:m:s)          0:00:0.0000
record              0
dI                  0.000
unit dI             mA
dt (s)              0.000
fi                  500.000
unit fi             kHz
ff                  1.000
unit ff             Hz
Nd                  6
Points              per decade
spacing             Logarithmic
Va (mV)             10.0
pw                  0.10
Na                  2
corr                0
E range min (V)     -1.000
E range max (V)     1.000
I Range             Auto
Bandwidth           5
nc cycles           0
goto Ns'            0
nr cycles           0
inc. cycle          0

freq/Hz	Re(Z)/Ohm	-Im(Z)/Ohm	|Z|/Ohm	Phase(Z)/deg	time/s	<Ewe>/V	<I>/mA	Cs/uF	Cp/uF	cycle number	I Range	|Ewe|/V	|I|/A	Ns	(Q-Qo)/mA.h	Re(Y)/Ohm-1	Im(Y)/Ohm-1	|Y|/Ohm-1	Phase(Y)/deg	Re(C)/nF	Im(C)/nF	|C|/nF	Phase(C)/deg	Re(M)	Im(M)	|M|	Phase(M)/deg	Re(Permittivity)	Im(Permittivity)	|Permittivity|	Phase(Permittivity)/deg	Re(Resistivity)/Ohm.cm	Im(Resistivity)/Ohm.cm	|Resistivity|/Ohm.cm	Phase(Resistivity)/deg	Re(Conductivity)/mS/cm	Im(Conductivity)/mS/cm	|Conductivity|/mS/cm	Phase(Conductivity)/deg	Tan(Delta)	Loss Angle(Delta)/deg	dq/mA.h
500019	64.0772	18.6424	66.734	-16.2216	201.051	0.450367	0.000518831	0.0170739	0.00133242	1	11	0.0107544	0.000161153	0	6.54193e-07	0.0143883	0.00418607	0.0149849	16.2216	1.33242	4.57977	4.76965	-73.7784	0.0000000E+000	0.0000000E+000	0.0000000E+000	73.7784	0.0000000E+000	0.0000000E+000	0.0000000E+000	-73.7784	0.0000000E+000	0.0000000E+000	0.0000000E+000	-16.2216	0.0000000E+000	0.0000000E+000	0.0000000E+000	16.2216	3.43718	73.7784	6.54193e-07
339899	54.7981	3.68076	54.9216	-3.84275	201.473	0.450299	0.000539162	0.127213	0.000571375	1	11	0.0108121	0.000196865	0	2.95196e-07	0.0181668	0.00122026	0.0182078	3.84275	0.571375	8.50647	8.52564	-86.1572	0.0000000E+000	0.0000000E+000	0.0000000E+000	86.1572	0.0000000E+000	0.0000000E+000	0.0000000E+000	-86.1572	0.0000000E+000	0.0000000E+000	0.0000000E+000	-3.84275	0.0000000E+000	0.0000000E+000	0.0000000E+000	3.84275	14.8877	86.1572	-3.58996e-07
231063	48.2145	0.504938	48.2171	-0.600022	201.895	0.450273	0.000520698	1.36412	0.000149598	1	11	0.0106614	0.000221112	0	3.7951e-07	0.0207384	0.000217188	0.0207395	0.600022	0.149598	14.2845	14.2853	-89.4	0.0000000E+000	0.0000000E+000	0.0000000E+000	89.4	0.0000000E+000	0.0000000E+000	0.0000000E+000	-89.4	0.0000000E+000	0.0000000E+000	0.0000000E+000	-0.600022	0.0000000E+000	0.0000000E+000	0.0000000E+000	0.600022	95.486	89.4	8.43135e-08
157076	45.3286	0.118144	45.3287	-0.149335	202.318	0.450277	-1.29126e-05	8.57626	5.82608e-05	1	11	0.0106618	0.000235211	0	2.41725e-07	0.022061	5.74997e-05	0.0220611	0.149335	0.0582618	22.353	22.3531	-89.8507	0.0000000E+000	0.0000000E+000	0.0000000E+000	89.8507	0.0000000E+000	0.0000000E+000	0.0000000E+000	-89.8507	0.0000000E+000	0.0000000E+000	0.0000000E+000	-0.149335	0.0000000E+000	0.0000000E+000	0.0000000E+000	0.149335	383.671	89.8507	-1.37785e-07
106786	44.1702	0.116905	44.1703	-0.151644	202.74	0.450284	0.000260887	12.7489	8.9305e-05	1	11	0.0105755	0.000239427	0	1.96688e-08	0.0226396	5.99199e-05	0.0226396	0.151644	0.0893038	33.7421	33.7423	-89.8484	0.0000000E+000	0.0000000E+000	0.0000000E+000	89.8484	0.0000000E+000	0.0000000E+000	0.0000000E+000	-89.8484	0.0000000E+000	0.0000000E+000	0.0000000E+000	-0.151644	0.0000000E+000	0.0000000E+000	0.0000000E+000	0.151644	377.83	89.8484	-2.22056e-07
72595	43.6514	0.100993	43.6516	-0.13256	203.162	0.450289	0.000296697	21.7082	0.000116199	1	11	0.0105365	0.000241376	0	-2.38186e-07	0.0229086	5.30017e-05	0.0229087	0.13256	0.1162	50.2241	50.2243	-89.8674	0.0000000E+000	0.0000000E+000	0.0000000E+000	89.8674	0.0000000E+000	0.0000000E+000	0.0000000E+000	-89.8674	0.0000000E+000	0.0000000E+000	0.0000000E+000	-0.13256	0.0000000E+000	0.0000000E+000	0.0000000E+000	0.13256	432.224	89.8674	-2.57855e-07
49352.4	43.3904	0.0677259	43.3905	-0.08943	203.584	0.450291	-0.000174246	47.6165	0.000116005	1	11	0.0104802	0.000241533	0	-2.55767e-07	0.0230465	3.59721e-05	0.0230465	0.08943	0.116008	74.322	74.3221	-89.9106	0.0000000E+000	0.0000000E+000	0.0000000E+000	89.9106	0.0000000E+000	0.0000000E+000	0.0000000E+000	-89.9106	0.0000000E+000	0.0000000E+000	0.0000000E+000	-0.08943	0.0000000E+000	0.0000000E+000	0.0000000E+000	0.08943	640.677	89.9106	-1.7581e-08
33551.1	43.2679	0.0770895	43.268	-0.102083	204.006	0.450285	0.000113169	61.5345	0.000195333	1	11	0.0104704	0.000241989	0	-3.94149e-07	0.0231117	4.11777e-05	0.0231118	0.102083	0.195331	109.634	109.634	-89.8979	0.0000000E+000	0.0000000E+000	0.0000000E+000	89.8979	0.0000000E+000	0.0000000E+000	0.0000000E+000	-89.8979	0.0000000E+000	0.0000000E+000	0.0000000E+000	-0.102083	0.0000000E+000	0.0000000E+000	0.0000000E+000	0.102083	561.269	89.8979	-1.38382e-07
22806.6	43.187	0.0981061	43.1871	-0.130156	204.428	0.45029	0.000109999	71.1319	0.000367069	1	11	0.0103745	0.000240222	0	-2.68697e-07	0.023155	5.26002e-05	0.023155	0.130156	0.367073	161.586	161.587	-89.8698	0.0000000E+000	0.0000000E+000	0.0000000E+000	89.8698	0.0000000E+000	0.0000000E+000	0.0000000E+000	-89.8698	0.0000000E+000	0.0000000E+000	0.0000000E+000	-0.130156	0.0000000E+000	0.0000000E+000	0.0000000E+000	0.130156	440.207	89.8698	1.25453e-07
15504.4	43.168	0.0553461	43.168	-0.0734595	204.851	0.45029	-0.00032159	185.472	0.00030488	1	11	0.0103061	0.000238745	0	1.71738e-07	0.0231653	2.97005e-05	0.0231653	0.0734595	0.304865	237.795	237.796	-89.9265	0.0000000E+000	0.0000000E+000	0.0000000E+000	89.9265	0.0000000E+000	0.0000000E+000	0.0000000E+000	-89.9265	0.0000000E+000	0.0000000E+000	0.0000000E+000	-0.0734595	0.0000000E+000	0.0000000E+000	0.0000000E+000	0.0734595	779.963	89.9265	4.40435e-07
10540.4	43.1307	0.11834	43.1309	-0.157205	205.273	0.450293	0.000109812	127.594	0.000960549	1	11	0.0101929	0.000236324	0	1.71491e-07	0.0231851	6.36144e-05	0.0231852	0.157205	0.960539	350.085	350.086	-89.8428	0.0000000E+000	0.0000000E+000	0.0000000E+000	89.8428	0.0000000E+000	0.0000000E+000	0.0000000E+000	-89.8428	0.0000000E+000	0.0000000E+000	0.0000000E+000	-0.157205	0.0000000E+000	0.0000000E+000	0.0000000E+000	0.157205	364.464	89.8428	-2.4677e-10
7163.78	43.1204	0.130784	43.1206	-0.173777	205.796	0.450278	-0.000497657	169.873	0.00156265	1	11	0.0100462	0.000232978	0	2.72614e-07	0.0231907	7.03372e-05	0.0231908	0.173777	1.56263	515.218	515.221	-89.8262	0.0000000E+000	0.0000000E+000	0.0000000E+000	89.8262	0.0000000E+000	0.0000000E+000	0.0000000E+000	-89.8262	0.0000000E+000	0.0000000E+000	0.0000000E+000	-0.173777	0.0000000E+000	0.0000000E+000	0.0000000E+000	0.173777	329.707	89.8262	1.01122e-07
4871.56	43.112	0.195017	43.1124	-0.259175	206.264	0.450298	0.000356008	167.525	0.00342782	1	11	0.0104839	0.000243176	0	3.13594e-07	0.0231949	0.000104922	0.0231952	0.259175	3.42787	757.784	757.791	-89.7408	0.0000000E+000	0.0000000E+000	0.0000000E+000	89.7408	0.0000000E+000	0.0000000E+000	0.0000000E+000	-89.7408	0.0000000E+000	0.0000000E+000	0.0000000E+000	-0.259175	0.0000000E+000	0.0000000E+000	0.0000000E+000	0.259175	221.068	89.7408	4.09802e-08
3311.06	43.1493	0.276889	43.1502	-0.367662	206.729	0.450299	0.000304157	173.599	0.00714815	1	11	0.0107124	0.000248258	0	5.54321e-07	0.0231744	0.00014871	0.0231749	0.367662	7.14812	1113.94	1113.96	-89.6323	0.0000000E+000	0.0000000E+000	0.0000000E+000	89.6323	0.0000000E+000	0.0000000E+000	0.0000000E+000	-89.6323	0.0000000E+000	0.0000000E+000	0.0000000E+000	-0.367662	0.0000000E+000	0.0000000E+000	0.0000000E+000	0.367662	155.836	89.6323	2.40727e-07
2250.72	43.1462	0.357366	43.1477	-0.474551	207.195	0.450298	0.000212207	197.873	0.0135736	1	11	0.0108163	0.000250681	0	5.18893e-07	0.0231754	0.000191954	0.0231762	0.474551	13.5736	1638.8	1638.86	-89.5255	0.0000000E+000	0.0000000E+000	0.0000000E+000	89.5255	0.0000000E+000	0.0000000E+000	0.0000000E+000	-89.5255	0.0000000E+000	0.0000000E+000	0.0000000E+000	-0.474551	0.0000000E+000	0.0000000E+000	0.0000000E+000	0.474551	120.734	89.5255	-3.54271e-08
1530.49	43.1813	0.512227	43.1844	-0.679624	207.661	0.450299	0.000130515	203.014	0.0285627	1	11	0.0108661	0.000251622	0	4.53818e-07	0.0231549	0.000274669	0.0231565	0.679624	28.5628	2407.87	2408.04	-89.3204	0.0000000E+000	0.0000000E+000	0.0000000E+000	89.3204	0.0000000E+000	0.0000000E+000	0.0000000E+000	-89.3204	0.0000000E+000	0.0000000E+000	0.0000000E+000	-0.679624	0.0000000E+000	0.0000000E+000	0.0000000E+000	0.679624	84.3011	89.3204	-6.50749e-08
1040.33	43.2347	0.701389	43.2404	-0.929418	208.126	0.450293	5.23667e-05	218.117	0.0573889	1	11	0.0108957	0.000251979	0	4.32336e-07	0.0231235	0.000375128	0.0231265	0.929418	57.389	3537.54	3538	-89.0706	0.0000000E+000	0.0000000E+000	0.0000000E+000	89.0706	0.0000000E+000	0.0000000E+000	0.0000000E+000	-89.0706	0.0000000E+000	0.0000000E+000	0.0000000E+000	-0.929418	0.0000000E+000	0.0000000E+000	0.0000000E+000	0.929418	61.6415	89.0706	-2.14821e-08
707.036	43.2609	0.969711	43.2718	-1.28409	208.591	0.450294	-6.32708e-05	232.133	0.116576	1	11	0.0109032	0.000251971	0	3.75435e-07	0.0231039	0.000517884	0.0231097	1.28409	116.577	5200.73	5202.04	-88.7159	0.0000000E+000	0.0000000E+000	0.0000000E+000	88.7159	0.0000000E+000	0.0000000E+000	0.0000000E+000	-88.7159	0.0000000E+000	0.0000000E+000	0.0000000E+000	-1.28409	0.0000000E+000	0.0000000E+000	0.0000000E+000	1.28409	44.6122	88.7159	-5.69009e-08
480.769	43.31	1.41302	43.333	-1.86866	209.056	0.450299	-5.39453e-05	234.28	0.249112	1	11	0.0109078	0.000251719	0	3.78073e-07	0.0230648	0.000752509	0.0230771	1.86866	249.112	7635.43	7639.5	-88.1313	0.0000000E+000	0.0000000E+000	0.0000000E+000	88.1313	0.0000000E+000	0.0000000E+000	0.0000000E+000	-88.1313	0.0000000E+000	0.0000000E+000	0.0000000E+000	-1.86866	0.0000000E+000	0.0000000E+000	0.0000000E+000	1.86866	30.6506	88.1313	2.63726e-09
326.778	43.3775	1.99497	43.4234	-2.63323	209.519	0.450295	9.28214e-06	244.136	0.515296	1	11	0.0109092	0.000251229	0	2.59184e-07	0.0230048	0.00105801	0.0230291	2.63323	515.296	11204.3	11216.2	-87.3668	0.0000000E+000	0.0000000E+000	0.0000000E+000	87.3668	0.0000000E+000	0.0000000E+000	0.0000000E+000	-87.3668	0.0000000E+000	0.0000000E+000	0.0000000E+000	-2.63323	0.0000000E+000	0.0000000E+000	0.0000000E+000	2.63323	21.7434	87.3668	-1.18889e-07
222.061	43.4783	2.81154	43.5692	-3.6999	209.98	0.450296	9.09744e-05	254.92	1.06153	1	11	0.0109126	0.000250465	0	4.98641e-07	0.0229042	0.00148111	0.022952	3.6999	1061.54	16415.8	16450.1	-86.3001	0.0000000E+000	0.0000000E+000	0.0000000E+000	86.3001	0.0000000E+000	0.0000000E+000	0.0000000E+000	-86.3001	0.0000000E+000	0.0000000E+000	0.0000000E+000	-3.6999	0.0000000E+000	0.0000000E+000	0.0000000E+000	3.6999	15.4642	86.3001	2.39457e-07
151.015	43.602	4.04348	43.7891	-5.29823	210.442	0.450301	0.000191877	260.643	2.22241	1	11	0.0109167	0.000249302	0	3.94169e-07	0.0227392	0.00210874	0.0228368	5.29823	2222.41	23964.9	24067.7	-84.7018	0.0000000E+000	0.0000000E+000	0.0000000E+000	84.7018	0.0000000E+000	0.0000000E+000	0.0000000E+000	-84.7018	0.0000000E+000	0.0000000E+000	0.0000000E+000	-5.29823	0.0000000E+000	0.0000000E+000	0.0000000E+000	5.29823	10.7833	84.7018	-1.04472e-07
102.667	43.7518	5.77913	44.1318	-7.52458	210.917	0.450308	0.000235521	268.241	4.59987	1	11	0.0109178	0.000247391	0	2.78466e-07	0.0224642	0.00296728	0.0226594	7.52458	4599.87	34824.1	35126.6	-82.4754	0.0000000E+000	0.0000000E+000	0.0000000E+000	82.4754	0.0000000E+000	0.0000000E+000	0.0000000E+000	-82.4754	0.0000000E+000	0.0000000E+000	0.0000000E+000	-7.52458	0.0000000E+000	0.0000000E+000	0.0000000E+000	7.52458	7.57066	82.4754	-1.15704e-07
69.7545	43.9352	8.34285	44.7203	-10.7519	211.384	0.450306	9.3399e-05	273.485	9.51818	1	11	0.0109175	0.000244128	0	2.82824e-07	0.0219687	0.00417163	0.0223612	10.7519	9518.18	50124.7	51020.4	-79.2481	0.0000000E+000	0.0000000E+000	0.0000000E+000	79.2481	0.0000000E+000	0.0000000E+000	0.0000000E+000	-79.2481	0.0000000E+000	0.0000000E+000	0.0000000E+000	-10.7519	0.0000000E+000	0.0000000E+000	0.0000000E+000	10.7519	5.26621	79.2481	4.35829e-09
47.4443	44.194	12.0527	45.8081	-15.2549	211.828	0.450289	-5.37587e-05	278.324	19.268	1	11	0.0109175	0.000238332	0	1.22081e-07	0.021061	0.00574382	0.0218302	15.2549	19268	70650.5	73230.8	-74.7451	0.0000000E+000	0.0000000E+000	0.0000000E+000	74.7451	0.0000000E+000	0.0000000E+000	0.0000000E+000	-74.7451	0.0000000E+000	0.0000000E+000	0.0000000E+000	-15.2549	0.0000000E+000	0.0000000E+000	0.0000000E+000	15.2549	3.66673	74.7451	-1.60743e-07
32.2387	44.5691	17.3999	47.8452	-21.3258	212.264	0.450283	-0.000164734	283.724	37.5244	1	11	0.0109183	0.0002282	0	6.18289e-08	0.0194696	0.007601	0.0209007	21.3258	37524.4	96117	103182	-68.6742	0.0000000E+000	0.0000000E+000	0.0000000E+000	68.6742	0.0000000E+000	0.0000000E+000	0.0000000E+000	-68.6742	0.0000000E+000	0.0000000E+000	0.0000000E+000	-21.3258	0.0000000E+000	0.0000000E+000	0.0000000E+000	21.3258	2.56145	68.6742	-6.02521e-08
21.9144	45.0821	25.1412	51.6186	-29.1474	212.695	0.450285	-0.000301447	288.871	68.5273	1	11	0.010908	0.000211319	0	-3.99258e-07	0.0169197	0.0094357	0.0193729	29.1474	68527.3	122880	140697	-60.8526	0.0000000E+000	0.0000000E+000	0.0000000E+000	60.8526	0.0000000E+000	0.0000000E+000	0.0000000E+000	-60.8526	0.0000000E+000	0.0000000E+000	0.0000000E+000	-29.1474	0.0000000E+000	0.0000000E+000	0.0000000E+000	29.1474	1.79316	60.8526	-4.61087e-07
14.9093	45.8729	36.2904	58.492	-38.3478	213.164	0.450299	0.0001238	294.15	113.23	1	11	0.0109142	0.000186593	0	-3.34775e-07	0.013408	0.0106071	0.0170963	38.3478	113230	143128	182501	-51.6522	0.0000000E+000	0.0000000E+000	0.0000000E+000	51.6522	0.0000000E+000	0.0000000E+000	0.0000000E+000	-51.6522	0.0000000E+000	0.0000000E+000	0.0000000E+000	-38.3478	0.0000000E+000	0.0000000E+000	0.0000000E+000	38.3478	1.26405	51.6522	6.44828e-08
10.1329	47.6986	52.6055	71.0105	-47.8006	213.624	0.450288	0.000116337	298.575	163.859	1	11	0.0109105	0.000153646	0	7.07525e-07	0.00945934	0.0104324	0.0140824	47.8006	163859	148575	221188	-42.1994	0.0000000E+000	0.0000000E+000	0.0000000E+000	42.1994	0.0000000E+000	0.0000000E+000	0.0000000E+000	-42.1994	0.0000000E+000	0.0000000E+000	0.0000000E+000	-47.8006	0.0000000E+000	0.0000000E+000	0.0000000E+000	47.8006	0.906724	42.1994	1.0423e-06
6.88933	48.636	75.681	89.9615	-57.2734	213.977	0.450269	-0.000952004	305.25	216.031	1	11	0.0109104	0.000121279	0	-2.25427e-07	0.00600958	0.00935133	0.0111159	57.2734	216031	138831	256795	-32.7266	0.0000000E+000	0.0000000E+000	0.0000000E+000	32.7266	0.0000000E+000	0.0000000E+000	0.0000000E+000	-32.7266	0.0000000E+000	0.0000000E+000	0.0000000E+000	-57.2734	0.0000000E+000	0.0000000E+000	0.0000000E+000	57.2734	0.642644	32.7266	-9.32952e-07
4.68375	51.2165	109.977	121.318	-65.0285	214.74	0.450306	0.000856093	308.975	253.908	1	12	0.0109148	8.9968e-05	0	2.96646e-07	0.00347983	0.00747223	0.00824279	65.0285	253908	118245	280092	-24.9715	0.0000000E+000	0.0000000E+000	0.0000000E+000	24.9715	0.0000000E+000	0.0000000E+000	0.0000000E+000	-24.9715	0.0000000E+000	0.0000000E+000	0.0000000E+000	-65.0285	0.0000000E+000	0.0000000E+000	0.0000000E+000	65.0285	0.465701	24.9715	5.22073e-07
3.18099	54.8288	159.04	168.226	-70.9784	215.442	0.450302	0.000760793	314.595	281.177	1	12	0.0109124	6.48677e-05	0	-4.51086e-07	0.00193742	0.00561981	0.00594439	70.9784	281177	96935.4	297417	-19.0216	0.0000000E+000	0.0000000E+000	0.0000000E+000	19.0216	0.0000000E+000	0.0000000E+000	0.0000000E+000	-19.0216	0.0000000E+000	0.0000000E+000	0.0000000E+000	-70.9784	0.0000000E+000	0.0000000E+000	0.0000000E+000	70.9784	0.344749	19.0216	-7.47732e-07
2.16533	59.8875	230.226	237.888	-75.4191	216.453	0.450311	0.000778919	319.258	299.025	1	12	0.0109132	4.58753e-05	0	3.44429e-07	0.00105826	0.00406828	0.00420366	75.4191	299025	77783.8	308976	-14.5809	0.0000000E+000	0.0000000E+000	0.0000000E+000	14.5809	0.0000000E+000	0.0000000E+000	0.0000000E+000	-14.5809	0.0000000E+000	0.0000000E+000	0.0000000E+000	-75.4191	0.0000000E+000	0.0000000E+000	0.0000000E+000	75.4191	0.260125	14.5809	7.95515e-07
1.46962	67.9645	333.956	340.801	-78.4966	218.653	0.450309	0.000915247	324.285	311.387	1	13	0.0109221	3.20484e-05	0	1.73803e-06	0.000585167	0.00287532	0.00293426	78.4966	311388	63371.6	317771	-11.5034	0.0000000E+000	0.0000000E+000	0.0000000E+000	11.5034	0.0000000E+000	0.0000000E+000	0.0000000E+000	-11.5034	0.0000000E+000	0.0000000E+000	0.0000000E+000	-78.4966	0.0000000E+000	0.0000000E+000	0.0000000E+000	78.4966	0.203514	11.5034	1.3936e-06
1.00006	80.8024	483.497	490.203	-80.5124	220.793	0.450311	0.000854227	329.153	320.21	1	13	0.0109156	2.22676e-05	0	2.13376e-06	0.000336258	0.00201207	0.00203997	80.5124	320210	53513.7	324651	-9.48763	0.0000000E+000	0.0000000E+000	0.0000000E+000	9.48763	0.0000000E+000	0.0000000E+000	0.0000000E+000	-9.48763	0.0000000E+000	0.0000000E+000	0.0000000E+000	-80.5124	0.0000000E+000	0.0000000E+000	0.0000000E+000	80.5124	0.167121	9.48763	3.95729e-07