File: ACS_Catal_2026/Figures_Na_K/main_figures/data/EC/20240401_2-128_CV_cycles_alpha_gamma/gamma/20240328_2-128_006_gamma_K-2_03_CVA_C02.mpt
EC-Lab ASCII FILE
Nb header lines : 66

Cyclic Voltammetry Advanced

Run on channel : 2 (SN 66414)
User :
CE vs. WE compliance from -10 V to 10 V
Electrode connection : standard
Potential control : Ewe
Ewe ctrl range : min = -1.00 V, max = 1.00 V
Safety Limits :
	Do not start on E overload
Acquisition started on : 04/01/2024 19:59:40.490
Loaded Setting File :  C:\Users\NakamuraT\Documents\EC-Lab\Data\Yatsuzuka\20240401_2-128_CV_cycles_alpha_gamma\20240328_2-128_001_alpha_K-1.mps
Saved on :
	File : 20240328_2-128_006_gamma_K-2_03_CVA_C02.mpr
	Directory : C:\Users\NakamuraT\Documents\EC-Lab\Data\Yatsuzuka\20240401_2-128_CV_cycles_alpha_gamma\
	Host : 192.109.209.100
Device : SP-150e (SN .003411)
Address : 192.109.209.236
EC-Lab for windows v11.50 (software)
Internet server v11.50 (firmware)
Command interpretor v11.50 (firmware)
Electrode material :
Initial state :
Electrolyte :
Comments :
Electrode surface area : 0.001 cm2
Characteristic mass : 0.001 g
Equivalent Weight : 0.000 g/eq.
Density : 0.000 g/cm3
Volume (V) : 0.001 cm3
Cycle Definition : Charge/Discharge alternance
Ei (V)              0.450
vs.                 Ref
ti (h:m:s)          0:00:10.0000
dti (s)             0.0000
dE/dt               5.000
dE/dt unit          mV/s
E1 (V)              0.700
vs.                 Ref
t1 (h:m:s)          0:00:0.0000
dt1 (s)             0.1000
Step percent        50
N                   10
E range min (V)     -1.000
E range max (V)     1.000
I Range             10 mA
I Range min         Unset
I Range max         Unset
I Range init        Unset
Bandwidth           5
E2 (V)              0.450
vs.                 Ref
t2 (h:m:s)          0:00:0.0000
dt2 (s)             0.1000
nc cycles           14
nr                  1
Reverse Scan        0
Ef (V)              0.000
vs.                 Eoc
tf (h:m:s)          0:00:0.0000
dtf (s)             0.1000

mode	ox/red	error	control changes	Ns changes	counter inc.	time/s	control/V	Ewe/V	<I>/mA	cycle number	(Q-Qo)/C	I Range	Ns	step time/s	P/W
2	0	0	0	0	0	231.794	0.449953	0.450351	-0.0020692	1	0.0000000E+000	11	0	0.000000000000000E+000	-9.31864e-07
2	0	0	0	0	0	234.346	0.46271	0.463019	0.000994572	1	2.34095e-06	11	0	2.4966	4.60506e-07
2	0	0	0	0	0	236.942	0.475693	0.476004	0.000940557	1	5.28182e-06	11	0	5.093	4.47709e-07
2	1	0	1	0	0	239.539	0.488675	0.488949	0.00142143	1	8.85181e-06	11	0	7.6895	6.95009e-07
2	1	0	1	0	0	242.135	0.501657	0.501991	0.00220672	1	1.33954e-05	11	0	10.2859	1.10776e-06
2	1	0	1	0	0	244.731	0.514639	0.514939	0.00284198	1	1.94227e-05	11	0	12.8823	1.46345e-06
2	1	0	1	0	0	247.328	0.527621	0.527909	0.00381418	1	2.80878e-05	11	0	15.4787	2.01354e-06
2	1	0	1	0	0	249.924	0.540603	0.540942	0.00582469	1	4.10176e-05	11	0	18.0752	3.15082e-06
2	1	0	1	0	0	252.521	0.553585	0.553926	0.00963015	1	6.10187e-05	11	0	20.6716	5.33439e-06
2	1	0	1	0	0	255.117	0.566568	0.566923	0.0152353	1	9.24349e-05	11	0	23.2681	8.63725e-06
2	1	0	1	0	0	257.714	0.57955	0.579904	0.0243573	1	0.000142944	11	0	25.8645	1.41249e-05
2	1	0	1	0	0	260.31	0.592532	0.592846	0.0395381	1	0.000224827	11	0	28.4609	2.344e-05
2	1	0	1	0	0	262.906	0.605514	0.605831	0.0635442	1	0.000356564	11	0	31.0573	3.8497e-05
2	1	0	1	0	0	265.503	0.618496	0.618839	0.0995393	1	0.000565286	11	0	33.6537	6.15988e-05
2	1	0	0	0	0	268.099	0.631478	0.631795	0.151915	1	0.00088825	11	0	36.2502	9.5979e-05
2	1	0	0	0	0	270.696	0.64446	0.64481	0.226064	1	0.00137478	11	0	38.8466	0.000145768
2	1	0	0	0	0	273.292	0.657443	0.657795	0.32615	1	0.00208601	11	0	41.443	0.00021454
2	1	0	1	0	0	275.889	0.670425	0.670718	0.45538	1	0.00309404	11	0	44.0395	0.000305432
2	1	0	1	0	0	278.485	0.683407	0.683738	0.616534	1	0.00447976	11	0	46.6359	0.000421548
2	1	0	1	0	0	281.081	0.696389	0.696711	0.809686	1	0.00632648	11	0	49.2323	0.000564117
2	1	0	1	0	0	283.462	0.691695	0.69207	0.721482	1	0.00824699	11	0	51.6124	0.000499316
2	1	0	1	0	0	286.058	0.678713	0.679078	0.530907	1	0.00986204	11	0	54.2088	0.000360527
2	1	0	1	0	0	288.654	0.665731	0.666098	0.379004	1	0.0110333	11	0	56.8052	0.000252454
2	1	0	1	0	0	291.251	0.652748	0.653088	0.263782	1	0.0118596	11	0	59.4017	0.000172273
2	1	0	1	0	0	293.847	0.639767	0.640138	0.178998	1	0.0124278	11	0	61.9981	0.000114583
2	1	0	1	0	0	296.444	0.626785	0.627125	0.118509	1	0.012809	11	0	64.5945	7.43201e-05
2	1	0	1	0	0	299.04	0.613803	0.614145	0.0763114	1	0.0130585	11	0	67.1909	4.68663e-05
2	1	0	0	0	0	301.637	0.60082	0.601161	0.0481076	1	0.0132174	11	0	69.7874	2.89204e-05
2	1	0	0	0	0	304.233	0.587838	0.588145	0.0289911	1	0.0133156	11	0	72.3838	1.70509e-05
2	1	0	0	0	0	306.829	0.574856	0.575142	0.0169044	1	0.0133741	11	0	74.9802	9.72241e-06
2	1	0	1	0	0	309.426	0.561874	0.562156	0.00900448	1	0.0134068	11	0	77.5767	5.06192e-06
2	1	0	1	0	0	312.022	0.548892	0.549219	0.00441796	1	0.0134237	11	0	80.1731	2.42643e-06
2	1	0	1	0	0	314.619	0.53591	0.536197	0.0015119	1	0.0134308	11	0	82.7695	8.10676e-07
2	1	0	1	0	0	317.215	0.522928	0.523268	-2.94534e-05	1	0.0134325	11	0	0.0998	-1.5412e-08
2	0	0	1	0	0	319.812	0.509945	0.510264	-0.0011021	1	0.0134307	11	0	2.197	-5.62361e-07
2	1	0	1	0	0	322.408	0.496963	0.497281	-0.00165045	1	0.0134271	11	0	4.7934	-8.20738e-07
2	0	0	1	0	0	325.004	0.483981	0.484286	-0.00206613	1	0.0134221	11	0	7.3898	-1.0006e-06
2	0	0	1	0	0	327.601	0.470999	0.471274	-0.00238961	1	0.0134162	11	0	9.9863	-1.12616e-06
2	0	0	1	0	0	330.197	0.458017	0.458315	-0.00233999	1	0.0134098	11	0	12.5827	-1.07245e-06
2	0	0	1	0	1	332.56	0.453823	0.454094	0.000288473	2	0.0134059	11	0	0.4994	1.30994e-07
2	1	0	1	0	1	335.156	0.466805	0.467074	0.0008697	2	0.0134076	11	0	3.0958	4.06215e-07
2	0	0	1	0	1	337.753	0.479787	0.480093	0.000738462	2	0.0134099	11	0	5.6922	3.5453e-07
2	1	0	1	0	1	340.349	0.492769	0.49311	0.00153011	2	0.0134129	11	0	8.2886	7.54513e-07
2	0	0	0	0	1	342.946	0.505751	0.506104	0.00159627	2	0.013417	11	0	10.8851	8.07881e-07
2	1	0	0	0	1	345.542	0.518733	0.519028	0.00273741	2	0.0134228	11	0	13.4815	1.42079e-06
2	1	0	0	0	1	348.138	0.531715	0.532027	0.00392785	2	0.0134313	11	0	16.0779	2.08972e-06
2	1	0	1	0	1	350.735	0.544698	0.545021	0.00592522	2	0.0134443	11	0	18.6744	3.22937e-06
2	1	0	1	0	1	353.331	0.55768	0.558012	0.0101428	2	0.0134652	11	0	21.2708	5.65979e-06
2	1	0	1	0	1	355.928	0.570662	0.570986	0.0167387	2	0.013499	11	0	23.8672	9.55755e-06
2	1	0	1	0	1	358.524	0.583644	0.583991	0.0269778	2	0.0135547	11	0	26.4636	1.57548e-05
2	1	0	1	0	1	361.121	0.596626	0.596989	0.0440379	2	0.013646	11	0	29.0601	2.62902e-05
2	1	0	1	0	1	363.717	0.609608	0.609951	0.0708214	2	0.0137929	11	0	31.6565	4.31976e-05
2	1	0	1	0	1	366.313	0.62259	0.622913	0.110315	2	0.0140247	11	0	34.2529	6.87165e-05
2	1	0	1	0	1	368.91	0.635573	0.635879	0.167577	2	0.0143814	11	0	36.8494	0.000106559
2	1	0	1	0	1	371.506	0.648555	0.648902	0.246886	2	0.0149149	11	0	39.4458	0.000160205
2	1	0	1	0	1	374.103	0.661537	0.661821	0.353563	2	0.0156894	11	0	42.0422	0.000233995
2	1	0	1	0	1	376.699	0.674519	0.674865	0.491145	2	0.0167803	11	0	44.6386	0.000331456
2	1	0	0	0	1	379.296	0.687501	0.687787	0.661279	2	0.01827	11	0	47.2351	0.000454819
2	1	0	1	0	1	381.79	0.700009	0.7005	0.856168	2	0.0201569	11	0	49.7299	0.000599746
2	1	0	1	0	1	384.252	0.687701	0.688052	0.648212	2	0.0219963	11	0	52.1916	0.000446004
2	1	0	1	0	1	386.848	0.674719	0.674989	0.473521	2	0.023443	11	0	54.788	0.000319621
2	1	0	1	0	1	389.445	0.661737	0.662054	0.336024	2	0.024485	11	0	57.3844	0.000222466
2	1	0	1	0	1	392.041	0.648755	0.649006	0.232428	2	0.0252153	11	0	59.9808	0.000150847
2	1	0	1	0	1	394.638	0.635772	0.636043	0.156803	2	0.0257148	11	0	62.5773	9.97332e-05
2	1	0	1	0	1	397.234	0.62279	0.623141	0.103214	2	0.0260483	11	0	65.1737	6.43169e-05
2	1	0	1	0	1	399.831	0.609808	0.610062	0.0661505	2	0.0262654	11	0	67.7702	4.03559e-05
2	1	0	1	0	1	402.427	0.596826	0.597146	0.0412759	2	0.0264029	11	0	70.3666	2.46477e-05
2	1	0	1	0	1	405.023	0.583844	0.584195	0.0248048	2	0.0264872	11	0	72.963	1.44909e-05
2	1	0	1	0	1	407.62	0.570862	0.571187	0.0141422	2	0.0265366	11	0	75.5594	8.07783e-06
2	1	0	1	0	1	410.216	0.55788	0.558167	0.00755228	2	0.0265637	11	0	78.1558	4.21544e-06
2	1	0	0	0	1	412.813	0.544897	0.54522	0.00354093	2	0.0265769	11	0	80.7523	1.93059e-06
2	1	0	0	0	1	415.409	0.531915	0.53222	0.00113848	2	0.0265821	11	0	83.3487	6.0592e-07
2	1	0	1	0	1	418.006	0.518933	0.519311	-0.000483336	2	0.0265825	11	0	0.2996	-2.51002e-07
2	0	0	1	0	1	420.602	0.505951	0.506274	-0.00141953	2	0.0265802	11	0	2.896	-7.18671e-07
2	0	0	1	0	1	423.198	0.492969	0.493264	-0.00192616	2	0.0265762	11	0	5.4924	-9.50104e-07
2	0	0	1	0	1	425.795	0.479987	0.48031	-0.0021622	2	0.0265713	11	0	8.0888	-1.03853e-06
2	0	0	1	0	1	428.391	0.467004	0.467272	-0.00223668	2	0.0265655	11	0	10.6853	-1.04514e-06
2	0	0	1	0	1	430.988	0.454022	0.454335	-0.00242273	2	0.0265594	11	0	13.2817	-1.10073e-06
2	0	0	1	0	0	433.35	0.457817	0.458176	0.000549639	3	0.0265584	11	0	1.5529	2.51831e-07
2	0	0	1	0	0	435.947	0.470799	0.471074	0.000914699	3	0.0265606	11	0	4.1494	4.30891e-07
2	1	0	1	0	0	438.543	0.483781	0.484072	0.00124628	3	0.0265634	11	0	6.7458	6.03287e-07
2	1	0	1	0	0	441.14	0.496764	0.497103	0.00171286	3	0.0265669	11	0	9.3422	8.51466e-07
2	1	0	1	0	0	443.736	0.509746	0.510005	0.0023178	3	0.0265717	11	0	11.9387	1.18209e-06
2	1	0	1	0	0	446.332	0.522728	0.523019	0.00313576	3	0.0265784	11	0	14.5351	1.64006e-06
2	1	0	1	0	0	448.929	0.53571	0.536064	0.00444727	3	0.0265882	11	0	17.1315	2.38402e-06
2	1	0	1	0	0	451.525	0.548692	0.549024	0.00697846	3	0.0266034	11	0	19.7279	3.83134e-06
2	1	0	0	0	0	454.122	0.561674	0.561998	0.0115396	3	0.0266275	11	0	22.3244	6.48523e-06
2	1	0	0	0	0	456.718	0.574656	0.574957	0.0192232	3	0.0266669	11	0	24.9208	1.10525e-05
2	1	0	1	0	0	459.315	0.587639	0.587979	0.0316901	3	0.0267317	11	0	27.5173	1.86331e-05
2	1	0	1	0	0	461.911	0.600621	0.600936	0.0512151	3	0.0268374	11	0	30.1137	3.0777e-05
2	1	0	1	0	0	464.507	0.613603	0.61395	0.0809747	3	0.0270064	11	0	32.7101	4.97144e-05
2	1	0	1	0	0	467.104	0.626585	0.626881	0.124833	3	0.0272706	11	0	35.3065	7.82552e-05
2	1	0	1	0	0	469.7	0.639567	0.639895	0.187858	3	0.027673	11	0	37.9029	0.000120209
2	1	0	1	0	0	472.297	0.652549	0.65283	0.274502	3	0.0282684	11	0	40.4994	0.000179203
2	1	0	1	0	0	474.893	0.665531	0.665878	0.389116	3	0.029124	11	0	43.0958	0.000259104
2	1	0	1	0	0	477.49	0.678514	0.678843	0.535376	3	0.0303168	11	0	45.6923	0.000363436
2	1	0	1	0	0	480.086	0.691496	0.691811	0.715033	3	0.0319327	11	0	48.2887	0.000494668
2	1	0	1	0	0	482.446	0.696689	0.697001	0.78851	3	0.0338002	11	0	50.6487	0.000549593
2	1	0	0	0	0	485.043	0.683706	0.683993	0.585595	3	0.0355743	11	0	53.2452	0.000400543
2	1	0	0	0	0	487.639	0.670724	0.671023	0.42452	3	0.0368768	11	0	55.8416	0.000284863
2	1	0	0	0	0	490.235	0.657742	0.658044	0.299671	3	0.0378088	11	0	58.438	0.000197197
2	1	0	1	0	0	492.832	0.64476	0.645061	0.206185	3	0.0384584	11	0	61.0345	0.000133002
2	1	0	1	0	0	495.428	0.631778	0.632157	0.138359	3	0.0389	11	0	63.6309	8.74649e-05
2	1	0	1	0	0	498.025	0.618796	0.619099	0.090427	3	0.0391932	11	0	66.2273	5.59833e-05
2	1	0	1	0	0	500.621	0.605814	0.606107	0.0579288	3	0.0393831	11	0	68.8237	3.5111e-05
2	1	0	1	0	0	503.218	0.592831	0.593154	0.0360693	3	0.0395026	11	0	71.4202	2.13946e-05
2	1	0	1	0	0	505.814	0.579849	0.580226	0.0210687	3	0.0395752	11	0	74.0166	1.22246e-05
2	1	0	1	0	0	508.41	0.566867	0.567148	0.0117749	3	0.039617	11	0	76.613	6.67808e-06
2	1	0	1	0	0	511.007	0.553885	0.554209	0.00623939	3	0.0396394	11	0	79.2095	3.45792e-06
2	1	0	1	0	0	513.603	0.540903	0.541249	0.00272341	3	0.0396498	11	0	81.8059	1.47404e-06
2	1	0	1	0	0	516.2	0.527921	0.528223	0.000453655	3	0.0396534	11	0	84.4023	2.39631e-07
2	0	0	1	0	0	518.796	0.514939	0.515239	-0.000801062	3	0.039653	11	0	1.2982	-4.12738e-07
2	1	0	0	0	0	521.393	0.501956	0.502246	-0.00112361	3	0.0396503	11	0	3.8947	-5.6433e-07
2	1	0	0	0	0	523.989	0.488974	0.4893	-0.00175339	3	0.0396462	11	0	6.4911	-8.57933e-07
2	0	0	0	0	0	526.585	0.475992	0.476305	-0.00223326	3	0.0396411	11	0	9.0875	-1.06371e-06
2	1	0	1	0	0	529.182	0.46301	0.463281	-0.00201206	3	0.0396354	11	0	11.684	-9.32149e-07
2	1	0	1	0	0	531.753	0.450153	0.450508	-0.00297175	3	0.0396294	11	0	14.2555	-1.3388e-06
2	0	0	1	0	1	534.141	0.461812	0.462114	0.000607133	4	0.039631	11	0	2.2969	2.80565e-07
2	0	0	1	0	1	536.737	0.474794	0.475091	0.00088935	4	0.0396335	11	0	4.8933	4.22522e-07
2	1	0	1	0	1	539.334	0.487776	0.488098	0.00157965	4	0.0396367	11	0	7.4897	7.71027e-07
2	1	0	1	0	1	541.93	0.500758	0.501051	0.00172045	4	0.0396408	11	0	10.0861	8.62031e-07
2	0	0	1	0	1	544.527	0.51374	0.514085	0.00228205	4	0.0396462	11	0	12.6826	1.17317e-06
2	1	0	1	0	1	547.123	0.526722	0.527046	0.00369287	4	0.0396539	11	0	15.279	1.94631e-06
2	1	0	1	0	1	549.719	0.539704	0.539961	0.00509837	4	0.0396652	11	0	17.8754	2.75292e-06
2	1	0	1	0	1	552.316	0.552687	0.553032	0.00824426	4	0.0396826	11	0	20.4719	4.55934e-06
2	1	0	1	0	1	554.912	0.565669	0.565965	0.0138808	4	0.0397107	11	0	23.0683	7.85606e-06
2	1	0	1	0	1	557.509	0.578651	0.57896	0.0226812	4	0.0397568	11	0	25.6647	1.31315e-05
2	1	0	1	0	1	560.105	0.591633	0.591978	0.0366116	4	0.0398327	11	0	28.2611	2.16733e-05
2	1	0	0	0	1	562.702	0.604615	0.604988	0.0593234	4	0.0399556	11	0	30.8576	3.589e-05
2	1	0	0	0	1	565.298	0.617597	0.617946	0.0930707	4	0.0401506	11	0	33.454	5.75127e-05
2	1	0	0	0	1	567.894	0.63058	0.630867	0.142037	4	0.0404525	11	0	36.0504	8.96068e-05
2	1	0	1	0	1	570.491	0.643562	0.643843	0.211823	4	0.0409077	11	0	38.6469	0.000136381
2	1	0	1	0	1	573.087	0.656544	0.656884	0.305803	4	0.0415743	11	0	41.2433	0.000200877
2	1	0	1	0	1	575.684	0.669526	0.669887	0.428907	4	0.0425217	11	0	43.8397	0.000287319
2	1	0	1	0	1	578.28	0.682508	0.682863	0.584048	4	0.0438299	11	0	46.4361	0.000398824
2	1	0	1	0	1	580.877	0.69549	0.695831	0.770826	4	0.0455839	11	0	49.0326	0.000536365
2	1	0	1	0	1	583.237	0.692694	0.693068	0.718402	4	0.0474475	11	0	51.3927	0.000497901
2	1	0	1	0	1	585.833	0.679712	0.680017	0.53008	4	0.0490576	11	0	53.9891	0.000360463
2	1	0	1	0	1	588.429	0.66673	0.667045	0.381284	4	0.0502314	11	0	56.5855	0.000254333
2	1	0	1	0	1	591.026	0.653748	0.654053	0.267564	4	0.0510659	11	0	59.1819	0.000175001
2	1	0	1	0	1	593.622	0.640766	0.641133	0.183238	4	0.0516445	11	0	61.7783	0.00011748
2	1	0	0	0	1	596.219	0.627783	0.628086	0.122168	4	0.0520362	11	0	64.3748	7.67318e-05
2	1	0	0	0	1	598.815	0.614801	0.615078	0.07976	4	0.0522948	11	0	66.9712	4.90587e-05
2	1	0	1	0	1	601.412	0.601819	0.602158	0.050566	4	0.0524611	11	0	69.5677	3.04487e-05
2	1	0	1	0	1	604.008	0.588837	0.589132	0.0307196	4	0.0525649	11	0	72.1641	1.80979e-05
2	1	0	1	0	1	606.604	0.575855	0.576132	0.0176733	4	0.0526271	11	0	74.7605	1.01821e-05
2	1	0	1	0	1	609.201	0.562873	0.563171	0.00948935	4	0.0526622	11	0	77.3569	5.34412e-06
2	1	0	1	0	1	611.797	0.54989	0.550222	0.00453942	4	0.0526803	11	0	79.9534	2.49769e-06
2	1	0	1	0	1	614.394	0.536908	0.537237	0.00165677	4	0.0526884	11	0	82.5498	8.90077e-07
2	0	0	1	0	1	616.99	0.523926	0.524268	7.83151e-05	4	0.0526907	11	0	0.000000000000000E+000	4.10582e-08
2	0	0	1	0	1	619.587	0.510944	0.511246	-0.000806245	4	0.0526897	11	0	1.6977	-4.12189e-07
2	0	0	1	0	1	622.183	0.497962	0.498251	-0.00123673	4	0.0526868	11	0	4.2941	-6.16205e-07
2	0	0	1	0	1	624.779	0.48498	0.485264	-0.00164255	4	0.0526825	11	0	6.8905	-7.97071e-07
2	0	0	1	0	1	627.376	0.471998	0.472332	-0.00214603	4	0.0526776	11	0	9.4869	-1.01364e-06
2	0	0	0	0	1	629.972	0.459015	0.459269	-0.00234205	4	0.0526721	11	0	12.0834	-1.07563e-06
2	1	0	1	0	0	632.335	0.452824	0.453146	0.000538464	5	0.0526682	11	0	0.5543	2.44003e-07
2	1	0	1	0	0	634.931	0.465806	0.46612	0.0010909	5	0.0526705	11	0	3.1507	5.08489e-07
2	1	0	0	0	0	637.528	0.478788	0.47908	0.00101336	5	0.0526734	11	0	5.7472	4.85481e-07
2	1	0	0	0	0	640.124	0.49177	0.492071	0.00149054	5	0.052677	11	0	8.3436	7.33449e-07
2	1	0	0	0	0	642.721	0.504753	0.505048	0.00216596	5	0.0526816	11	0	10.94	1.09391e-06
2	1	0	1	0	0	645.317	0.517735	0.518059	0.00292639	5	0.0526878	11	0	13.5365	1.51604e-06
2	1	0	1	0	0	647.913	0.530717	0.531024	0.00376606	5	0.0526965	11	0	16.1329	1.99987e-06
2	1	0	1	0	0	650.51	0.543699	0.544021	0.00593497	5	0.0527094	11	0	18.7293	3.22874e-06
2	1	0	1	0	0	653.106	0.556681	0.55704	0.00993999	5	0.0527296	11	0	21.3257	5.53697e-06
2	1	0	1	0	0	655.703	0.569663	0.569973	0.0156774	5	0.0527624	11	0	23.9222	8.93569e-06
2	1	0	1	0	0	658.299	0.582645	0.582971	0.0264408	5	0.0528165	11	0	26.5186	1.54142e-05
2	1	0	1	0	0	660.896	0.595628	0.595955	0.0432416	5	0.0529052	11	0	29.1151	2.577e-05
2	1	0	1	0	0	663.492	0.60861	0.608915	0.0684852	5	0.053048	11	0	31.7115	4.17017e-05
2	1	0	1	0	0	666.088	0.621592	0.621945	0.106809	5	0.0532731	11	0	34.3079	6.64291e-05
2	1	0	1	0	0	668.685	0.634574	0.634904	0.162179	5	0.0536185	11	0	36.9043	0.000102968
2	1	0	1	0	0	671.281	0.647556	0.647879	0.238228	5	0.0541337	11	0	39.5007	0.000154343
2	1	0	0	0	0	673.878	0.660538	0.660893	0.340654	5	0.0548799	11	0	42.0972	0.000225136
2	1	0	0	0	0	676.474	0.67352	0.673841	0.472568	5	0.0559295	11	0	44.6936	0.000318436
2	1	0	1	0	0	679.071	0.686503	0.686819	0.635932	5	0.0573624	11	0	47.2901	0.00043677
2	1	0	1	0	0	681.667	0.699485	0.69979	0.834165	5	0.0592651	11	0	49.8865	0.00058374
2	1	0	1	0	0	684.027	0.6887	0.689006	0.654046	5	0.0610309	11	0	52.2465	0.000450642
2	1	0	1	0	0	686.624	0.675717	0.676032	0.480026	5	0.0624939	11	0	54.843	0.000324513
2	1	0	1	0	0	689.22	0.662735	0.663072	0.343258	5	0.063554	11	0	57.4394	0.000227605
2	1	0	1	0	0	691.816	0.649753	0.650102	0.239289	5	0.0643032	11	0	60.0358	0.000155562
2	1	0	1	0	0	694.413	0.636771	0.637105	0.163024	5	0.0648199	11	0	62.6323	0.000103863
2	1	0	1	0	0	697.009	0.623789	0.624121	0.108381	5	0.0651676	11	0	65.2287	6.7643e-05
2	1	0	1	0	0	699.606	0.610807	0.611115	0.0704408	5	0.0653959	11	0	67.8251	4.30474e-05
2	1	0	1	0	0	702.202	0.597825	0.598164	0.0442177	5	0.0655418	11	0	70.4215	2.64494e-05
2	1	0	0	0	0	704.799	0.584842	0.585167	0.0265475	5	0.065632	11	0	73.018	1.55347e-05
2	1	0	0	0	0	707.395	0.57186	0.572241	0.0154627	5	0.0656854	11	0	75.6144	8.84838e-06
2	1	0	0	0	0	709.991	0.558878	0.559247	0.00836084	5	0.0657152	11	0	78.2108	4.67578e-06
2	1	0	1	0	0	712.588	0.545896	0.546198	0.00360521	5	0.0657302	11	0	80.8073	1.96916e-06
2	1	0	1	0	0	715.184	0.532914	0.533159	0.00132424	5	0.0657364	11	0	83.4037	7.06029e-07
2	1	0	1	0	0	717.781	0.519932	0.520229	0.000218907	5	0.0657378	11	0	0.000000000000000E+000	1.13882e-07
2	0	0	1	0	0	720.377	0.50695	0.507268	-0.00114085	5	0.0657362	11	0	2.1969	-5.78719e-07
2	0	0	1	0	0	722.974	0.493967	0.494245	-0.00138998	5	0.065733	11	0	4.7934	-6.86991e-07
2	0	0	1	0	0	725.57	0.480985	0.481245	-0.00162429	5	0.0657287	11	0	7.3898	-7.81683e-07
2	0	0	1	0	0	728.166	0.468003	0.4683	-0.00218724	5	0.0657238	11	0	9.9863	-1.02428e-06
2	0	0	1	0	0	730.763	0.455021	0.455335	-0.00224193	5	0.0657185	11	0	12.5827	-1.02083e-06
2	0	0	1	0	1	733.125	0.456818	0.457136	0.000706027	6	0.0657175	11	0	1.1983	3.2275e-07
2	0	0	1	0	1	735.722	0.469801	0.470115	0.000849291	6	0.0657203	11	0	3.7948	3.99265e-07
2	0	0	1	0	1	738.318	0.482783	0.483061	0.0013023	6	0.0657238	11	0	6.3912	6.29093e-07
2	1	0	1	0	1	740.915	0.495765	0.49609	0.00185956	6	0.0657281	11	0	8.9876	9.22512e-07
2	1	0	1	0	1	743.511	0.508747	0.509039	0.00239277	6	0.0657334	11	0	11.584	1.21801e-06
2	1	0	0	0	1	746.108	0.521729	0.522023	0.00297062	6	0.0657404	11	0	14.1805	1.55073e-06
2	1	0	0	0	1	748.704	0.534711	0.535068	0.00469821	6	0.0657503	11	0	16.7769	2.51386e-06
2	1	0	0	0	1	751.3	0.547693	0.547993	0.0071004	6	0.0657651	11	0	19.3733	3.89097e-06
2	1	0	1	0	1	753.897	0.560676	0.560966	0.0112506	6	0.0657888	11	0	21.9698	6.31122e-06
2	1	0	1	0	1	756.493	0.573658	0.573927	0.0189499	6	0.0658274	11	0	24.5662	1.08759e-05
2	1	0	1	0	1	759.09	0.58664	0.586981	0.0306892	6	0.0658911	11	0	27.1626	1.8014e-05
2	1	0	1	0	1	761.686	0.599622	0.599888	0.0504619	6	0.065995	11	0	29.759	3.02715e-05
2	1	0	1	0	1	764.283	0.612604	0.612888	0.0797763	6	0.0661612	11	0	32.3555	4.88939e-05
2	1	0	1	0	1	766.879	0.625586	0.625877	0.12309	6	0.0664207	11	0	34.9519	7.70394e-05
2	1	0	1	0	1	769.475	0.638569	0.638945	0.183846	6	0.066815	11	0	37.5484	0.000117467
2	1	0	1	0	1	772.072	0.651551	0.65193	0.267672	6	0.0673966	11	0	40.1448	0.000174503
2	1	0	1	0	1	774.668	0.664533	0.664844	0.378924	6	0.0682302	11	0	42.7412	0.000251925
2	1	0	1	0	1	777.265	0.677515	0.677881	0.519881	6	0.0693908	11	0	45.3376	0.000352417
2	1	0	1	0	1	779.861	0.690497	0.690872	0.693466	6	0.0709603	11	0	47.934	0.000479096
2	1	0	0	0	1	782.221	0.697687	0.697972	0.799014	6	0.0727938	11	0	50.2941	0.000557689
2	1	0	1	0	1	784.818	0.684705	0.685039	0.596896	6	0.0745953	11	0	52.8906	0.000408897
2	1	0	1	0	1	787.414	0.671723	0.672052	0.434427	6	0.0759251	11	0	55.487	0.000291957
2	1	0	1	0	1	790.01	0.658741	0.659116	0.308932	6	0.0768828	11	0	58.0834	0.000203622
2	1	0	1	0	1	792.607	0.645759	0.64605	0.214476	6	0.0775553	11	0	60.6798	0.000138562
2	1	0	1	0	1	795.203	0.632777	0.633066	0.145244	6	0.0780169	11	0	63.2762	9.19488e-05
2	1	0	1	0	1	797.8	0.619794	0.620136	0.0961754	6	0.0783261	11	0	65.8727	5.96418e-05
2	1	0	1	0	1	800.396	0.606812	0.60715	0.0616559	6	0.0785281	11	0	68.4691	3.74344e-05
2	1	0	1	0	1	802.993	0.59383	0.594142	0.0383545	6	0.0786563	11	0	71.0656	2.2788e-05
2	1	0	1	0	1	805.589	0.580847	0.581201	0.0233289	6	0.0787346	11	0	73.662	1.35588e-05
2	1	0	1	0	1	808.185	0.567866	0.568187	0.0130209	6	0.0787802	11	0	76.2584	7.39832e-06
2	1	0	1	0	1	810.782	0.554884	0.555205	0.00651063	6	0.0788049	11	0	78.8548	3.61474e-06
2	1	0	1	0	1	813.378	0.541902	0.542216	0.00304994	6	0.0788169	11	0	81.4512	1.65373e-06
2	1	0	0	0	1	815.975	0.528919	0.529246	0.000662627	6	0.0788214	11	0	84.0477	3.50693e-07
2	1	0	0	0	1	818.571	0.515937	0.516224	-4.74724e-05	6	0.0788219	11	0	0.1997	-2.45064e-08
2	0	0	1	0	1	821.168	0.502955	0.5033	-0.00122398	6	0.0788201	11	0	2.7962	-6.16028e-07
2	1	0	1	0	1	823.764	0.489973	0.490246	-0.00123326	6	0.0788168	11	0	5.3926	-6.04602e-07
2	0	0	1	0	1	826.36	0.476991	0.477272	-0.00164878	6	0.0788125	11	0	7.989	-7.86916e-07
2	0	0	1	0	1	828.957	0.464009	0.464362	-0.00184393	6	0.0788076	11	0	10.5854	-8.56251e-07
2	1	0	1	0	1	831.553	0.451026	0.451314	-0.0021431	6	0.0788022	11	0	13.1819	-9.67211e-07
2	0	0	1	0	0	833.916	0.460813	0.461129	0.000775453	7	0.0788038	11	0	2.0971	3.57584e-07
2	0	0	1	0	0	836.512	0.473795	0.474105	0.0012609	7	0.0788069	11	0	4.6935	5.97798e-07
2	1	0	1	0	0	839.109	0.486777	0.487065	0.00176199	7	0.0788106	11	0	7.29	8.58203e-07
2	1	0	1	0	0	841.705	0.499759	0.500025	0.00196757	7	0.0788152	11	0	9.8864	9.83833e-07
2	1	0	1	0	0	844.302	0.512742	0.513095	0.00229171	7	0.078821	11	0	12.4829	1.17587e-06
2	1	0	1	0	0	846.898	0.525724	0.526019	0.00359441	7	0.078829	11	0	15.0793	1.89073e-06
2	1	0	1	0	0	849.494	0.538706	0.539074	0.00543213	7	0.0788403	11	0	17.6757	2.92832e-06
2	1	0	1	0	0	852.091	0.551688	0.551992	0.00852655	7	0.0788577	11	0	20.2721	4.70659e-06
2	1	0	1	0	0	854.687	0.56467	0.564974	0.0136365	7	0.0788855	11	0	22.8685	7.70428e-06
2	1	0	0	0	0	857.284	0.577652	0.577978	0.0221714	7	0.0789308	11	0	25.465	1.28146e-05
2	1	0	0	0	0	859.88	0.590634	0.590938	0.0361737	7	0.0790057	11	0	28.0614	2.13764e-05
2	1	0	1	0	0	862.477	0.603617	0.603967	0.0586196	7	0.0791273	11	0	30.6579	3.54043e-05
2	1	0	1	0	0	865.073	0.616599	0.61685	0.0922732	7	0.0793204	11	0	33.2543	5.69188e-05
2	1	0	1	0	0	867.669	0.629581	0.629905	0.140362	7	0.079619	11	0	35.8507	8.8415e-05
2	1	0	1	0	0	870.266	0.642563	0.642907	0.208376	7	0.0800682	11	0	38.4471	0.000133966
2	1	0	1	0	0	872.862	0.655545	0.655891	0.300566	7	0.0807237	11	0	41.0436	0.000197138
2	1	0	1	0	0	875.459	0.668527	0.668913	0.420084	7	0.0816532	11	0	43.64	0.000281
2	1	0	1	0	0	878.055	0.681509	0.681791	0.570208	7	0.0829326	11	0	46.2364	0.000388763
2	1	0	1	0	0	880.652	0.694492	0.694792	0.753769	7	0.0846461	11	0	48.8329	0.000523712
2	1	0	1	0	0	883.012	0.693693	0.694029	0.732225	7	0.0865116	11	0	51.1929	0.000508185
2	1	0	1	0	0	885.608	0.680711	0.681092	0.542225	7	0.0881552	11	0	53.7893	0.000369305
2	1	0	0	0	0	888.205	0.667728	0.668023	0.393794	7	0.089362	11	0	56.3858	0.000263063
2	1	0	0	0	0	890.801	0.654746	0.655065	0.27828	7	0.0902268	11	0	58.9822	0.000182291
2	1	0	0	0	0	893.397	0.641764	0.642056	0.192341	7	0.0908314	11	0	61.5786	0.000123493
2	1	0	1	0	0	895.994	0.628781	0.629112	0.129397	7	0.0912443	11	0	64.1751	8.14051e-05
2	1	0	1	0	0	898.59	0.6158	0.616134	0.0851798	7	0.0915192	11	0	66.7715	5.24821e-05
2	1	0	1	0	0	901.187	0.602818	0.603137	0.0544457	7	0.0916976	11	0	69.3679	3.28382e-05
2	1	0	1	0	0	903.783	0.589836	0.590181	0.0336167	7	0.0918098	11	0	71.9643	1.98399e-05
2	1	0	1	0	0	906.38	0.576853	0.577163	0.020083	7	0.0918779	11	0	74.5608	1.15912e-05
2	1	0	1	0	0	908.976	0.563871	0.564174	0.0110307	7	0.0919168	11	0	77.1572	6.22321e-06
2	1	0	1	0	0	911.572	0.550889	0.551192	0.00528862	7	0.0919375	11	0	79.7536	2.91504e-06
2	1	0	1	0	0	914.169	0.537907	0.538219	0.0021602	7	0.0919473	11	0	82.3501	1.16266e-06
2	1	0	1	0	0	916.765	0.524925	0.525278	0.000671688	7	0.0919508	11	0	84.9465	3.52823e-07
2	1	0	1	0	0	919.362	0.511943	0.512265	-0.000305133	7	0.0919507	11	0	1.0985	-1.56309e-07
2	0	0	0	0	0	921.958	0.498961	0.499256	-0.00127828	7	0.0919485	11	0	3.695	-6.38187e-07
2	0	0	0	0	0	924.555	0.485978	0.486246	-0.00136986	7	0.0919451	11	0	6.2914	-6.66091e-07
2	1	0	0	0	0	927.151	0.472996	0.47332	-0.00155496	7	0.0919409	11	0	8.8878	-7.35992e-07
2	0	0	1	0	0	929.747	0.460014	0.460296	-0.00211058	7	0.0919362	11	0	11.4843	-9.71493e-07
2	1	0	0	0	1	932.11	0.451825	0.452137	0.000913299	8	0.0919326	11	0	0.2996	4.12936e-07
2	1	0	0	0	1	934.706	0.464807	0.465107	0.00133798	8	0.0919357	11	0	2.896	6.22302e-07
2	0	0	1	0	1	937.303	0.47779	0.478105	0.00135524	8	0.0919394	11	0	5.4925	6.47946e-07
2	1	0	1	0	1	939.899	0.490772	0.491092	0.00196679	8	0.0919439	11	0	8.0889	9.65872e-07
2	1	0	1	0	1	942.496	0.503754	0.504072	0.00218366	8	0.0919492	11	0	10.6853	1.10072e-06
2	1	0	1	0	1	945.092	0.516736	0.517088	0.00293424	8	0.0919559	11	0	13.2817	1.51726e-06
2	1	0	1	0	1	947.689	0.529718	0.530052	0.00424424	8	0.0919649	11	0	15.8782	2.24967e-06
2	1	0	1	0	1	950.285	0.5427	0.543027	0.00632655	8	0.0919781	11	0	18.4746	3.43548e-06
2	1	0	1	0	1	952.881	0.555683	0.555973	0.00989687	8	0.0919983	11	0	21.071	5.5024e-06
2	1	0	1	0	1	955.478	0.568665	0.568957	0.0158381	8	0.092031	11	0	23.6675	9.0112e-06
2	1	0	1	0	1	958.074	0.581647	0.581941	0.0261506	8	0.092085	11	0	26.2639	1.52181e-05
2	1	0	1	0	1	960.671	0.594629	0.594936	0.043035	8	0.0921734	11	0	28.8603	2.5603e-05
2	1	0	1	0	1	963.267	0.607611	0.60797	0.0684407	8	0.0923157	11	0	31.4567	4.16099e-05
2	1	0	0	0	1	965.864	0.620593	0.620907	0.106153	8	0.09254	11	0	34.0532	6.59113e-05
2	1	0	0	0	1	968.46	0.633575	0.63391	0.160824	8	0.0928831	11	0	36.6496	0.000101948
2	1	0	0	0	1	971.056	0.646557	0.646894	0.23631	8	0.0933937	11	0	39.246	0.000152867
2	1	0	1	0	1	973.653	0.65954	0.659893	0.335806	8	0.0941312	11	0	41.8425	0.000221596
2	1	0	1	0	1	976.249	0.672522	0.672887	0.465035	8	0.0951649	11	0	44.4389	0.000312916
2	1	0	1	0	1	978.846	0.685504	0.685894	0.625029	8	0.096574	11	0	47.0353	0.000428704
2	1	0	1	0	1	981.442	0.698486	0.698852	0.818689	8	0.0984421	11	0	49.6317	0.000572143
2	1	0	1	0	1	983.802	0.689698	0.690023	0.671106	8	0.100244	11	0	51.9918	0.000463079
2	1	0	1	0	1	986.399	0.676715	0.677015	0.494678	8	0.101749	11	0	54.5883	0.000334905
2	1	0	1	0	1	988.995	0.663734	0.664044	0.357241	8	0.102846	11	0	57.1847	0.000237223
2	1	0	1	0	1	991.591	0.650752	0.651132	0.25067	8	0.103628	11	0	59.7811	0.000163219
2	1	0	1	0	1	994.188	0.63777	0.638091	0.172695	8	0.104172	11	0	62.3775	0.000110195
2	1	0	0	0	1	996.784	0.624787	0.62507	0.115383	8	0.104541	11	0	64.974	7.21225e-05
2	1	0	0	0	1	999.381	0.611805	0.612131	0.0759315	8	0.104786	11	0	67.5704	4.648e-05
2	1	0	0	0	1	1001.98	0.598823	0.599157	0.0477599	8	0.104944	11	0	70.1668	2.86157e-05
2	1	0	1	0	1	1004.57	0.585841	0.586183	0.0291564	8	0.105042	11	0	72.7633	1.7091e-05
2	1	0	1	0	1	1007.17	0.572859	0.573197	0.016811	8	0.105101	11	0	75.3597	9.63603e-06
2	1	0	1	0	1	1009.77	0.559877	0.560182	0.00913551	8	0.105134	11	0	77.9561	5.11755e-06
2	1	0	1	0	1	1012.36	0.546895	0.547214	0.00461367	8	0.105151	11	0	80.5525	2.52466e-06
2	1	0	1	0	1	1014.96	0.533912	0.534249	0.00204781	8	0.105158	11	0	83.149	1.09404e-06
2	1	0	1	0	1	1017.56	0.52093	0.521235	0.000339892	8	0.105161	11	0	85.7454	1.77164e-07
2	0	0	1	0	1	1020.15	0.507948	0.508231	-0.00046247	8	0.10516	11	0	1.4979	-2.35042e-07
2	0	0	1	0	1	1022.75	0.494966	0.495247	-0.00120787	8	0.105158	11	0	4.0944	-5.98193e-07
2	0	0	1	0	1	1025.35	0.481984	0.482304	-0.00134873	8	0.105155	11	0	6.6908	-6.50498e-07
2	1	0	1	0	1	1027.94	0.469002	0.469328	-0.00138682	8	0.105151	11	0	9.2872	-6.50876e-07
2	0	0	1	0	1	1030.54	0.45602	0.456345	-0.00210856	8	0.105146	11	0	11.8836	-9.62229e-07
2	0	0	1	0	0	1032.9	0.45582	0.456133	0.000931197	9	0.105145	11	0	1.1535	4.24749e-07
2	1	0	1	0	0	1035.5	0.468802	0.469129	0.00163298	9	0.105149	11	0	3.7499	7.66078e-07
2	1	0	1	0	0	1038.09	0.481784	0.482083	0.00164265	9	0.105153	11	0	6.3463	7.91893e-07
2	1	0	0	0	0	1040.69	0.494766	0.495085	0.00173767	9	0.105158	11	0	8.9428	8.60295e-07
2	1	0	0	0	0	1043.29	0.507748	0.508024	0.00266579	9	0.105164	11	0	11.5392	1.35429e-06
2	1	0	1	0	0	1045.88	0.520731	0.521028	0.00312458	9	0.105171	11	0	14.1357	1.62799e-06
2	1	0	1	0	0	1048.48	0.533713	0.534052	0.0045297	9	0.105182	11	0	16.7321	2.41909e-06
2	1	0	1	0	0	1051.08	0.546695	0.547018	0.00709354	9	0.105197	11	0	19.3285	3.8803e-06
2	1	0	1	0	0	1053.67	0.559677	0.559995	0.0115556	9	0.10522	11	0	21.9249	6.47105e-06
2	1	0	1	0	0	1056.27	0.572659	0.573023	0.018975	9	0.105259	11	0	24.5213	1.08731e-05
2	1	0	1	0	0	1058.86	0.585641	0.585992	0.0310291	9	0.105323	11	0	27.1178	1.81828e-05
2	1	0	1	0	0	1061.46	0.598623	0.598931	0.0498819	9	0.105426	11	0	29.7142	2.98759e-05
2	1	0	1	0	0	1064.06	0.611606	0.611895	0.0798097	9	0.105593	11	0	32.3107	4.88352e-05
2	1	0	1	0	0	1066.65	0.624588	0.624952	0.122894	9	0.105852	11	0	34.9071	7.68028e-05
2	1	0	1	0	0	1069.25	0.63757	0.637946	0.183276	9	0.106246	11	0	37.5035	0.00011692
2	1	0	1	0	0	1071.85	0.650552	0.650893	0.266136	9	0.106825	11	0	40.0999	0.000173226
2	1	0	0	0	0	1074.44	0.663534	0.663817	0.374637	9	0.107651	11	0	42.6964	0.00024869
2	1	0	0	0	0	1077.04	0.676516	0.676861	0.51236	9	0.108797	11	0	45.2928	0.000346796
2	1	0	0	0	0	1079.64	0.689498	0.689763	0.682759	9	0.110342	11	0	47.8892	0.000470942
2	1	0	1	0	0	1082	0.698686	0.69903	0.819037	9	0.112159	11	0	50.2493	0.000572531
2	1	0	1	0	0	1084.59	0.685704	0.686058	0.614217	9	0.114008	11	0	52.8457	0.000421388
2	1	0	1	0	0	1087.19	0.672722	0.673057	0.451278	9	0.115383	11	0	55.4421	0.000303736
2	1	0	1	0	0	1089.79	0.659739	0.660064	0.323013	9	0.11638	11	0	58.0386	0.000213209
2	1	0	1	0	0	1092.38	0.646757	0.647116	0.226545	9	0.117087	11	0	60.635	0.000146601
2	1	0	1	0	0	1094.98	0.633775	0.634079	0.154488	9	0.117577	11	0	63.2314	9.79579e-05
2	1	0	1	0	0	1097.57	0.620793	0.621089	0.102797	9	0.117907	11	0	65.8279	6.38462e-05
2	1	0	1	0	0	1100.17	0.607811	0.608118	0.0667269	9	0.118125	11	0	68.4243	4.05778e-05
2	1	0	1	0	0	1102.77	0.594829	0.595132	0.0423413	9	0.118264	11	0	71.0207	2.51986e-05
2	1	0	1	0	0	1105.36	0.581847	0.582168	0.0256923	9	0.11835	11	0	73.6171	1.49572e-05
2	1	0	0	0	0	1107.96	0.568864	0.56919	0.0142824	9	0.118401	11	0	76.2136	8.1294e-06
2	1	0	0	0	0	1110.56	0.555882	0.556171	0.00748942	9	0.118429	11	0	78.81	4.1654e-06
2	1	0	1	0	0	1113.15	0.5429	0.543223	0.00376718	9	0.118443	11	0	81.4065	2.04642e-06
2	1	0	1	0	0	1115.75	0.529917	0.530243	0.00157591	9	0.118449	11	0	84.0029	8.35613e-07
2	1	0	1	0	0	1118.35	0.516936	0.51724	0.000271607	9	0.118451	11	0	0.0999	1.40486e-07
2	0	0	1	0	0	1120.94	0.503954	0.50429	-0.000901413	9	0.11845	11	0	1.8974	-4.54574e-07
2	0	0	1	0	0	1123.54	0.490972	0.491242	-0.00112857	9	0.118447	11	0	4.4938	-5.54401e-07
2	1	0	1	0	0	1126.14	0.477989	0.478298	-0.00107498	9	0.118444	11	0	7.0903	-5.14162e-07
2	0	0	1	0	0	1128.73	0.465007	0.465326	-0.00163955	9	0.11844	11	0	9.6867	-7.62925e-07
2	0	0	1	0	0	1131.33	0.452025	0.452351	-0.00188301	9	0.118436	11	0	12.2832	-8.51783e-07
2	1	0	1	0	1	1133.69	0.459814	0.460115	0.00156783	10	0.118437	11	0	1.8974	7.21383e-07
2	1	0	1	0	1	1136.29	0.472796	0.473109	0.00159179	10	0.118441	11	0	4.4938	7.53091e-07
2	0	0	1	0	1	1138.88	0.485779	0.486099	0.00155174	10	0.118446	11	0	7.0903	7.54298e-07
2	1	0	1	0	1	1141.48	0.498761	0.499098	0.00244549	10	0.118451	11	0	9.6867	1.22054e-06
2	1	0	1	0	1	1144.08	0.511743	0.51208	0.00300937	10	0.118458	11	0	12.2831	1.54104e-06
2	1	0	1	0	1	1146.67	0.524725	0.525058	0.00359665	10	0.118466	11	0	14.8795	1.88845e-06
2	1	0	0	0	1	1149.27	0.537707	0.538043	0.00515335	10	0.118478	11	0	17.476	2.77272e-06
2	1	0	0	0	1	1151.87	0.550689	0.550997	0.00856454	10	0.118495	11	0	20.0724	4.71903e-06
2	1	0	0	0	1	1154.46	0.563671	0.563952	0.0130758	10	0.118523	11	0	22.6688	7.37412e-06
2	1	0	1	0	1	1157.06	0.576654	0.576966	0.0224146	10	0.118568	11	0	25.2653	1.29324e-05
2	1	0	1	0	1	1159.66	0.589636	0.589961	0.0363183	10	0.118643	11	0	27.8617	2.14264e-05
2	1	0	1	0	1	1162.25	0.602618	0.602946	0.0589567	10	0.118766	11	0	30.4581	3.55477e-05
2	1	0	1	0	1	1164.85	0.6156	0.615942	0.0927703	10	0.11896	11	0	33.0545	5.71411e-05
2	1	0	1	0	1	1167.44	0.628582	0.628931	0.140501	10	0.119259	11	0	35.651	8.83656e-05
2	1	0	1	0	1	1170.04	0.641564	0.641867	0.208771	10	0.119709	11	0	38.2474	0.000134003
2	1	0	1	0	1	1172.64	0.654547	0.654856	0.29886	10	0.120363	11	0	40.8438	0.00019571
2	1	0	1	0	1	1175.23	0.667529	0.667874	0.417358	10	0.121287	11	0	43.4403	0.000278742
2	1	0	1	0	1	1177.83	0.680511	0.680846	0.564645	10	0.122555	11	0	46.0367	0.000384436
2	1	0	1	0	1	1180.43	0.693493	0.693869	0.744851	10	0.12425	11	0	48.6331	0.000516829
2	1	0	0	0	1	1182.79	0.694691	0.695027	0.755362	10	0.126132	11	0	50.9932	0.000524997
2	1	0	0	0	1	1185.38	0.681709	0.682043	0.563449	10	0.127834	11	0	53.5896	0.000384296
2	1	0	1	0	1	1187.98	0.668727	0.669026	0.410747	10	0.129091	11	0	56.1861	0.0002748
2	1	0	1	0	1	1190.58	0.655745	0.656026	0.292942	10	0.129997	11	0	58.7825	0.000192177
2	1	0	1	0	1	1193.17	0.642763	0.643071	0.204234	10	0.130636	11	0	61.3789	0.000131337
2	1	0	1	0	1	1195.77	0.629781	0.630106	0.138885	10	0.131077	11	0	63.9753	8.75121e-05
2	1	0	1	0	1	1198.37	0.616798	0.617087	0.0918916	10	0.131372	11	0	66.5718	5.67051e-05
2	1	0	1	0	1	1200.96	0.603816	0.604085	0.0591393	10	0.131566	11	0	69.1682	3.57252e-05
2	1	0	1	0	1	1203.56	0.590834	0.591186	0.0373807	10	0.131689	11	0	71.7646	2.2099e-05
2	1	0	1	0	1	1206.15	0.577851	0.578172	0.0219599	10	0.131764	11	0	74.3611	1.26966e-05
2	1	0	1	0	1	1208.75	0.56487	0.565197	0.0121401	10	0.131807	11	0	76.9575	6.86156e-06
2	1	0	1	0	1	1211.35	0.551888	0.552151	0.00631307	10	0.131831	11	0	79.5539	3.48577e-06
2	1	0	1	0	1	1213.94	0.538906	0.539261	0.00272013	10	0.131842	11	0	82.1503	1.46686e-06
2	1	0	0	0	1	1216.54	0.525923	0.526259	0.00121238	10	0.131846	11	0	84.7468	6.38026e-07
2	0	0	0	0	1	1219.14	0.512941	0.513274	-0.000355608	10	0.131847	11	0	0.000000000000000E+000	-1.82524e-07
2	0	0	0	0	1	1221.73	0.499959	0.500241	-0.000727195	10	0.131846	11	0	1.9972	-3.63773e-07
2	0	0	1	0	1	1224.33	0.486977	0.487277	-0.00110949	10	0.131844	11	0	4.5937	-5.40627e-07
2	0	0	1	0	1	1226.93	0.473995	0.474306	-0.00123548	10	0.13184	11	0	7.1901	-5.85996e-07
2	1	0	1	0	1	1229.52	0.461013	0.461341	-0.00142098	10	0.131837	11	0	9.7865	-6.55555e-07
2	0	0	1	0	0	1231.89	0.450827	0.45117	0.000759198	11	0.131833	11	0	0.1549	3.42527e-07
2	0	0	1	0	0	1234.48	0.463809	0.46409	0.00140316	11	0.131836	11	0	2.7513	6.51193e-07
2	1	0	1	0	0	1237.08	0.476791	0.477074	0.00198425	11	0.131841	11	0	5.3477	9.46633e-07
2	1	0	1	0	0	1239.67	0.489773	0.490106	0.00205985	11	0.131846	11	0	7.9441	1.00955e-06
2	1	0	1	0	0	1242.27	0.502755	0.503117	0.00226606	11	0.131852	11	0	10.5406	1.14009e-06
2	1	0	1	0	0	1244.87	0.515737	0.516027	0.00333462	11	0.131859	11	0	13.137	1.72075e-06
2	1	0	1	0	0	1247.46	0.52872	0.529055	0.00410502	11	0.131869	11	0	15.7335	2.17178e-06
2	1	0	1	0	0	1250.06	0.541702	0.542014	0.00650355	11	0.131882	11	0	18.3299	3.52501e-06
2	1	0	1	0	0	1252.66	0.554684	0.554978	0.00969075	11	0.131903	11	0	20.9263	5.37815e-06
2	1	0	1	0	0	1255.25	0.567666	0.567972	0.0159525	11	0.131936	11	0	23.5227	9.06056e-06
2	1	0	0	0	0	1257.85	0.580648	0.580933	0.0263423	11	0.13199	11	0	26.1192	1.53031e-05
2	1	0	0	0	0	1260.45	0.59363	0.593949	0.0431404	11	0.132078	11	0	28.7156	2.56232e-05
2	1	0	0	0	0	1263.04	0.606612	0.606895	0.0692641	11	0.132222	11	0	31.312	4.2036e-05
2	1	0	1	0	0	1265.64	0.619595	0.619899	0.107338	11	0.132448	11	0	33.9085	6.65389e-05
2	1	0	1	0	0	1268.24	0.632577	0.632863	0.161663	11	0.132794	11	0	36.5049	0.00010231
2	1	0	1	0	0	1270.83	0.645559	0.645919	0.23681	11	0.133307	11	0	39.1013	0.00015296
2	1	0	1	0	0	1273.43	0.658541	0.658833	0.335688	11	0.134045	11	0	41.6977	0.000221162
2	1	0	1	0	0	1276.02	0.671523	0.671831	0.463036	11	0.135075	11	0	44.2942	0.000311082
2	1	0	1	0	0	1278.62	0.684505	0.684856	0.620776	11	0.136475	11	0	46.8906	0.000425142
2	1	0	1	0	0	1281.22	0.697487	0.697861	0.810117	11	0.138326	11	0	49.487	0.000565349
2	1	0	1	0	0	1283.58	0.690697	0.69105	0.694464	11	0.140173	11	0	51.8471	0.00047991
2	1	0	1	0	0	1286.17	0.677715	0.678052	0.516728	11	0.141736	11	0	54.4435	0.000350368
2	1	0	1	0	0	1288.77	0.664733	0.665049	0.375097	11	0.142885	11	0	57.0399	0.000249458
2	1	0	0	0	0	1291.37	0.65175	0.652078	0.265596	11	0.143709	11	0	59.6364	0.00017319
2	1	0	0	0	0	1293.96	0.638768	0.639036	0.184019	11	0.144288	11	0	62.2328	0.000117595
2	1	0	0	0	0	1296.56	0.625786	0.626166	0.124869	11	0.144684	11	0	64.8292	7.81885e-05
2	1	0	1	0	0	1299.16	0.612804	0.613119	0.0820103	11	0.144949	11	0	67.4257	5.0282e-05
2	1	0	1	0	0	1301.75	0.599822	0.600163	0.0525152	11	0.145121	11	0	70.0221	3.15177e-05
2	1	0	1	0	0	1304.35	0.58684	0.587173	0.0329306	11	0.14523	11	0	72.6185	1.9336e-05
2	1	0	1	0	0	1306.95	0.573858	0.574165	0.0192354	11	0.145295	11	0	75.2149	1.10443e-05
2	1	0	1	0	0	1309.54	0.560875	0.561178	0.0103258	11	0.145332	11	0	77.8114	5.79461e-06
2	1	0	1	0	0	1312.14	0.547893	0.548199	0.00502802	11	0.145352	11	0	80.4078	2.75635e-06
2	1	0	1	0	0	1314.73	0.534911	0.535261	0.00259268	11	0.145361	11	0	83.0043	1.38776e-06
2	1	0	1	0	0	1317.33	0.521929	0.522246	0.000725142	11	0.145364	11	0	85.6007	3.78703e-07
2	1	0	1	0	0	1319.93	0.508947	0.509277	-0.000111724	11	0.145365	11	0	0.0998	-5.68984e-08
2	1	0	1	0	0	1322.52	0.495965	0.496299	-0.000865313	11	0.145364	11	0	2.3967	-4.29454e-07
2	0	0	0	0	0	1325.12	0.482982	0.483286	-0.00105266	11	0.145361	11	0	4.9932	-5.08734e-07
2	0	0	0	0	0	1327.72	0.47	0.470348	-0.00109502	11	0.145358	11	0	7.5896	-5.15042e-07
2	1	0	0	0	0	1330.31	0.457018	0.457374	-0.00130989	11	0.145354	11	0	10.186	-5.99107e-07
2	1	0	0	0	1	1332.68	0.454821	0.455163	0.00148383	12	0.145353	11	0	0.9538	6.75385e-07
2	0	0	0	0	1	1335.27	0.467803	0.468149	0.00151581	12	0.145358	11	0	3.5502	7.09625e-07
2	1	0	0	0	1	1337.87	0.480786	0.481107	0.00212773	12	0.145363	11	0	6.1466	1.02367e-06
2	1	0	1	0	1	1340.46	0.493768	0.494044	0.00202972	12	0.145368	11	0	8.7431	1.00277e-06
2	1	0	1	0	1	1343.06	0.50675	0.50708	0.00281263	12	0.145375	11	0	11.3395	1.42623e-06
2	1	0	1	0	1	1345.66	0.519732	0.520029	0.00343755	12	0.145383	11	0	13.9359	1.78763e-06
2	1	0	1	0	1	1348.25	0.532714	0.533	0.00494916	12	0.145393	11	0	16.5323	2.6379e-06
2	1	0	1	0	1	1350.85	0.545696	0.546032	0.00727574	12	0.145409	11	0	19.1288	3.97279e-06
2	1	0	1	0	1	1353.45	0.558678	0.559013	0.0117051	12	0.145433	11	0	21.7252	6.5433e-06
2	1	0	1	0	1	1356.04	0.57166	0.572013	0.0191681	12	0.145472	11	0	24.3216	1.09644e-05
2	1	0	1	0	1	1358.64	0.584643	0.585005	0.031397	12	0.145536	11	0	26.9181	1.83674e-05
2	1	0	1	0	1	1361.24	0.597625	0.597968	0.0510555	12	0.145641	11	0	29.5145	3.05296e-05
2	1	0	1	0	1	1363.83	0.610607	0.61098	0.0807316	12	0.14581	11	0	32.1109	4.93254e-05
2	1	0	1	0	1	1366.43	0.623589	0.623888	0.123874	12	0.146073	11	0	34.7073	7.72837e-05
2	1	0	0	0	1	1369.03	0.636571	0.636874	0.185004	12	0.146471	11	0	37.3038	0.000117824
2	1	0	0	0	1	1371.62	0.649553	0.6499	0.267432	12	0.147053	11	0	39.9002	0.000173804
2	1	0	1	0	1	1374.22	0.662536	0.66287	0.3757	12	0.147883	11	0	42.4967	0.000249041
2	1	0	1	0	1	1376.81	0.675518	0.675848	0.51207	12	0.149029	11	0	45.0931	0.000346081
2	1	0	1	0	1	1379.41	0.6885	0.688843	0.679654	12	0.15057	11	0	47.6895	0.000468175
2	1	0	1	0	1	1381.77	0.699684	0.700005	0.848029	12	0.152381	11	0	50.0496	0.000593624
2	1	0	1	0	1	1384.37	0.686702	0.687032	0.638568	12	0.1543	11	0	52.646	0.000438717
2	1	0	1	0	1	1386.96	0.67372	0.674061	0.472854	12	0.155733	11	0	55.2424	0.000318732
2	1	0	1	0	1	1389.56	0.660738	0.661063	0.341422	12	0.156782	11	0	57.8389	0.000225701
2	1	0	1	0	1	1392.16	0.647756	0.648071	0.241215	12	0.157532	11	0	60.4353	0.000156324
2	1	0	1	0	1	1394.75	0.634774	0.635148	0.165927	12	0.158055	11	0	63.0317	0.000105388
2	1	0	1	0	1	1397.35	0.621792	0.622085	0.111688	12	0.158412	11	0	65.6281	6.94794e-05
2	1	0	0	0	1	1399.95	0.608809	0.6091	0.073281	12	0.158649	11	0	68.2246	4.46355e-05
2	1	0	0	0	1	1402.54	0.595827	0.59614	0.0466127	12	0.158801	11	0	70.821	2.77877e-05
2	1	0	0	0	1	1405.14	0.582845	0.583195	0.0283477	12	0.158897	11	0	73.4174	1.65323e-05
2	1	0	1	0	1	1407.74	0.569863	0.570253	0.0158427	12	0.158953	11	0	76.0139	9.03433e-06
2	1	0	1	0	1	1410.33	0.556881	0.557164	0.00904311	12	0.158985	11	0	78.6103	5.03849e-06
2	1	0	1	0	1	1412.93	0.543899	0.544226	0.00444299	12	0.159001	11	0	81.2067	2.41799e-06
2	1	0	1	0	1	1415.52	0.530917	0.531226	0.00191114	12	0.159008	11	0	83.8031	1.01525e-06
2	1	0	1	0	1	1418.12	0.517934	0.518219	0.000283524	12	0.159011	11	0	86.3996	1.46928e-07
2	1	0	1	0	1	1420.72	0.504952	0.505246	-0.000348829	12	0.159011	11	0	1.0985	-1.76245e-07
2	1	0	1	0	1	1423.31	0.49197	0.49228	-0.000613161	12	0.159009	11	0	3.6949	-3.01847e-07
2	1	0	1	0	1	1425.91	0.478988	0.479352	-0.000939259	12	0.159007	11	0	6.2914	-4.50235e-07
2	0	0	1	0	1	1428.51	0.466006	0.466361	-0.00150899	12	0.159003	11	0	8.8878	-7.03733e-07
2	1	0	1	0	1	1431.1	0.453024	0.453343	-0.00130853	12	0.159	11	0	11.4842	-5.93211e-07
2	1	0	1	0	0	1433.47	0.458816	0.459148	0.00181531	13	0.159001	11	0	1.6977	8.33497e-07
2	1	0	1	0	0	1436.06	0.471798	0.472076	0.00160869	13	0.159006	11	0	4.2941	7.59425e-07
2	1	0	1	0	0	1438.66	0.48478	0.485124	0.00234231	13	0.159011	11	0	6.8905	1.13631e-06
2	1	0	1	0	0	1441.26	0.497762	0.498084	0.00230352	13	0.159017	11	0	9.4869	1.14735e-06
2	0	0	0	0	0	1443.85	0.510744	0.511049	0.00276409	13	0.159024	11	0	12.0834	1.41258e-06
2	1	0	0	0	0	1446.45	0.523726	0.524028	0.0041503	13	0.159033	11	0	14.6798	2.17487e-06
2	1	0	1	0	0	1449.04	0.536709	0.537017	0.00563488	13	0.159046	11	0	17.2763	3.02603e-06
2	1	0	1	0	0	1451.64	0.549691	0.550043	0.00862613	13	0.159063	11	0	19.8727	4.74474e-06
2	1	0	1	0	0	1454.24	0.562673	0.562946	0.0134345	13	0.159091	11	0	22.4691	7.56287e-06
2	1	0	1	0	0	1456.83	0.575655	0.575936	0.0226458	13	0.159137	11	0	25.0655	1.30425e-05
2	1	0	1	0	0	1459.43	0.588637	0.588929	0.0370705	13	0.159214	11	0	27.662	2.18319e-05
2	1	0	1	0	0	1462.03	0.601619	0.601943	0.0598106	13	0.159338	11	0	30.2584	3.60026e-05
2	1	0	1	0	0	1464.62	0.614601	0.614924	0.0940169	13	0.159535	11	0	32.8548	5.78132e-05
2	1	0	1	0	0	1467.22	0.627584	0.627911	0.143139	13	0.15984	11	0	35.4513	8.98784e-05
2	1	0	1	0	0	1469.82	0.640566	0.640892	0.210515	13	0.160295	11	0	38.0477	0.000134917
2	1	0	1	0	0	1472.41	0.653548	0.653831	0.301108	13	0.160954	11	0	40.6441	0.000196874
2	1	0	1	0	0	1475.01	0.66653	0.666869	0.418031	13	0.161882	11	0	43.2405	0.000278771
2	1	0	0	0	0	1477.61	0.679512	0.679878	0.563313	13	0.163151	11	0	45.837	0.000382984
2	1	0	0	0	0	1480.2	0.692494	0.692841	0.740552	13	0.164837	11	0	48.4334	0.000513085
2	1	0	1	0	0	1482.56	0.695689	0.695998	0.781726	13	0.166737	11	0	50.7935	0.000544079
2	1	0	1	0	0	1485.16	0.682708	0.683017	0.58811	13	0.168506	11	0	53.3899	0.000401689
2	1	0	1	0	0	1487.75	0.669726	0.670042	0.432311	13	0.169822	11	0	55.9863	0.000289667
2	1	0	1	0	0	1490.35	0.656744	0.657098	0.311074	13	0.17078	11	0	58.5827	0.000204406
2	1	0	1	0	0	1492.95	0.643761	0.644092	0.218817	13	0.171462	11	0	61.1792	0.000140938
2	1	0	1	0	0	1495.54	0.630779	0.631048	0.150065	13	0.171935	11	0	63.7756	9.46981e-05
2	1	0	1	0	0	1498.14	0.617797	0.618167	0.100351	13	0.172256	11	0	66.3721	6.20338e-05
2	1	0	1	0	0	1500.74	0.604815	0.605097	0.0652891	13	0.172469	11	0	68.9685	3.95062e-05
2	1	0	1	0	0	1503.33	0.591833	0.592108	0.0410608	13	0.172604	11	0	71.5649	2.43124e-05
2	1	0	1	0	0	1505.93	0.578851	0.579175	0.0247832	13	0.172688	11	0	74.1613	1.43538e-05
2	1	0	1	0	0	1508.53	0.565869	0.566112	0.0140352	13	0.172737	11	0	76.7577	7.9455e-06
2	1	0	0	0	0	1511.12	0.552886	0.553232	0.00733225	13	0.172764	11	0	79.3542	4.05644e-06
2	1	0	0	0	0	1513.72	0.539904	0.540237	0.00338981	13	0.172777	11	0	81.9506	1.8313e-06
2	1	0	1	0	0	1516.32	0.526922	0.527212	0.00156295	13	0.172783	11	0	84.5471	8.24005e-07
2	1	0	1	0	0	1518.91	0.51394	0.514221	0.000398977	13	0.172785	11	0	87.1435	2.05162e-07
2	1	0	1	0	0	1521.51	0.500958	0.50127	-0.000173072	13	0.172784	11	0	1.0985	-8.67558e-08
2	1	0	1	0	0	1524.1	0.487976	0.488277	-0.00067948	13	0.172783	11	0	3.6949	-3.31774e-07
2	0	0	1	0	0	1526.7	0.474994	0.475278	-0.00116392	13	0.17278	11	0	6.2914	-5.53185e-07
2	1	0	1	0	0	1529.3	0.462011	0.462293	-0.00093572	13	0.172777	11	0	8.8878	-4.32577e-07
2	1	0	0	0	1	1531.7	0.450053	0.450274	0.00194833	14	0.172774	11	0	0.000000000000000E+000	8.77282e-07
2	0	0	1	0	1	1534.26	0.46281	0.463148	0.00181872	14	0.172778	11	0	2.5516	8.42338e-07
2	1	0	1	0	1	1536.85	0.475792	0.47615	0.00185785	14	0.172784	11	0	5.148	8.84616e-07
2	1	0	1	0	1	1539.45	0.488774	0.489084	0.00255626	14	0.172789	11	0	7.7444	1.25023e-06
2	1	0	1	0	1	1542.05	0.501757	0.502095	0.00264304	14	0.172796	11	0	10.3409	1.32706e-06
2	1	0	1	0	1	1544.64	0.514739	0.515009	0.00311247	14	0.172804	11	0	12.9373	1.60295e-06
2	1	0	1	0	1	1547.24	0.527721	0.528071	0.00444922	14	0.172814	11	0	15.5337	2.3495e-06
2	1	0	1	0	1	1549.84	0.540703	0.541045	0.00647549	14	0.172828	11	0	18.1301	3.50353e-06
2	1	0	0	0	1	1552.43	0.553685	0.553941	0.01008	14	0.172849	11	0	20.7266	5.58372e-06
2	1	0	0	0	1	1555.03	0.566667	0.567109	0.0162092	14	0.172882	11	0	23.323	9.19239e-06
2	1	0	0	0	1	1557.62	0.57965	0.579969	0.0265366	14	0.172937	11	0	25.9194	1.53904e-05
2	1	0	1	0	1	1560.22	0.592632	0.592944	0.0437646	14	0.173028	11	0	28.5159	2.59499e-05
2	1	0	1	0	1	1562.82	0.605614	0.605934	0.0705245	14	0.173174	11	0	31.1123	4.27332e-05
2	1	0	1	0	1	1565.41	0.618596	0.618923	0.109263	14	0.173404	11	0	33.7087	6.76253e-05
2	1	0	1	0	1	1568.01	0.631578	0.631816	0.164051	14	0.173756	11	0	36.3051	0.00010365
2	1	0	1	0	1	1570.61	0.64456	0.644857	0.239265	14	0.174275	11	0	38.9016	0.000154292
2	1	0	1	0	1	1573.2	0.657542	0.657833	0.337911	14	0.175019	11	0	41.498	0.000222289
2	1	0	1	0	1	1575.8	0.670525	0.670881	0.463485	14	0.176055	11	0	44.0945	0.000310943
2	1	0	1	0	1	1578.4	0.683507	0.683763	0.620027	14	0.177455	11	0	46.6909	0.000423952
2	1	0	1	0	1	1580.99	0.696489	0.696889	0.80691	14	0.179302	11	0	49.2873	0.000562326
2	1	0	0	0	1	1583.35	0.691695	0.692008	0.723378	14	0.181197	11	0	51.6474	0.000500583
2	1	0	0	0	1	1585.95	0.678713	0.679015	0.540433	14	0.182827	11	0	54.2438	0.000366963
2	1	0	0	0	1	1588.55	0.665731	0.666076	0.395783	14	0.184035	11	0	56.8402	0.000263621
2	1	0	1	0	1	1591.14	0.652748	0.653093	0.283205	14	0.18491	11	0	59.4367	0.000184959
2	1	0	1	0	1	1593.74	0.639767	0.640164	0.198159	14	0.185529	11	0	62.0331	0.000126854
2	1	0	1	0	1	1596.33	0.626785	0.627089	0.135163	14	0.185958	11	0	64.6295	8.47591e-05
2	1	0	1	0	1	1598.93	0.613803	0.614123	0.0899254	14	0.186246	11	0	67.2259	5.52252e-05
2	1	0	1	0	1	1601.53	0.60082	0.60115	0.0584754	14	0.186436	11	0	69.8224	3.51524e-05
2	1	0	1	0	1	1604.12	0.587838	0.58822	0.0361391	14	0.186556	11	0	72.4188	2.12578e-05
2	1	0	1	0	1	1606.72	0.574856	0.575194	0.0213266	14	0.186629	11	0	75.0152	1.22669e-05
2	1	0	1	0	1	1609.32	0.561874	0.562238	0.0121231	14	0.186671	11	0	77.6117	6.81606e-06
2	1	0	1	0	1	1611.91	0.548892	0.549199	0.00585327	14	0.186693	11	0	80.2081	3.21461e-06
2	1	0	1	0	1	1614.51	0.53591	0.53624	0.00271066	14	0.186705	11	0	82.8045	1.45357e-06
2	1	0	1	0	1	1617.11	0.522928	0.523239	0.00118629	14	0.18671	11	0	85.4009	6.20713e-07
2	1	0	0	0	1	1619.7	0.509945	0.510231	0.000256482	14	0.186711	11	0	87.9974	1.30865e-07
2	0	0	0	0	1	1622.3	0.496963	0.497285	-0.000803163	14	0.186711	11	0	1.2982	-3.99401e-07
2	1	0	0	0	1	1624.9	0.483981	0.484275	-0.000476321	14	0.186709	11	0	3.8946	-2.3067e-07
2	1	0	1	0	1	1627.49	0.470999	0.47133	-0.000929926	14	0.186707	11	0	6.4911	-4.38302e-07
2	0	0	1	0	1	1630.09	0.458017	0.45835	-0.00121644	14	0.186704	11	0	9.0875	-5.57554e-07
2	1	0	1	0	0	1632.45	0.453823	0.454156	0.001902	15	0.186703	11	0	0.6991	8.63806e-07
2	1	0	1	0	0	1635.05	0.466805	0.467099	0.00177089	15	0.186708	11	0	3.2955	8.27179e-07
2	1	0	1	0	0	1637.64	0.479787	0.480163	0.0024055	15	0.186714	11	0	5.8919	1.15503e-06
2	1	0	1	0	0	1640.24	0.492769	0.493071	0.00259397	15	0.18672	11	0	8.4883	1.27901e-06
2	1	0	1	0	0	1642.84	0.505751	0.506103	0.00287262	15	0.186727	11	0	11.0848	1.45384e-06
2	1	0	1	0	0	1645.43	0.518733	0.519073	0.00355891	15	0.186736	11	0	13.6812	1.84734e-06
2	1	0	1	0	0	1648.03	0.531715	0.532025	0.00499714	15	0.186748	11	0	16.2776	2.65861e-06
2	1	0	1	0	0	1650.63	0.544698	0.545019	0.00747096	15	0.186764	11	0	18.8741	4.07182e-06
2	1	0	1	0	0	1653.22	0.55768	0.557992	0.0116225	15	0.186788	11	0	21.4705	6.48525e-06
2	1	0	1	0	0	1655.82	0.570662	0.570989	0.019194	15	0.186827	11	0	24.0669	1.09596e-05
2	1	0	1	0	0	1658.41	0.583644	0.583969	0.0318089	15	0.186893	11	0	26.6633	1.85754e-05
2	1	0	0	0	0	1661.01	0.596626	0.596998	0.0517114	15	0.187	11	0	29.2598	3.08716e-05
2	1	0	0	0	0	1663.61	0.609608	0.609982	0.0826804	15	0.187172	11	0	31.8562	5.04335e-05
2	1	0	0	0	0	1666.2	0.62259	0.622934	0.126459	15	0.18744	11	0	34.4526	7.87756e-05
2	1	0	1	0	0	1668.8	0.635573	0.635893	0.187734	15	0.187844	11	0	37.0491	0.000119379
2	1	0	1	0	0	1671.4	0.648555	0.648889	0.270789	15	0.188435	11	0	39.6455	0.000175712
2	1	0	1	0	0	1673.99	0.661537	0.661883	0.377207	15	0.189271	11	0	42.2419	0.000249667
2	1	0	1	0	0	1676.59	0.674519	0.674883	0.511605	15	0.19042	11	0	44.8383	0.000345274
2	1	0	1	0	0	1679.19	0.687501	0.687832	0.676343	15	0.191956	11	0	47.4348	0.00046521
2	1	0	0	0	0	1681.68	0.700009	0.700423	0.863871	15	0.193872	11	0	49.9296	0.000605076
2	1	0	1	0	0	1684.14	0.687701	0.688047	0.666468	15	0.195748	11	0	52.3913	0.000458561
2	1	0	1	0	0	1686.74	0.674719	0.675038	0.497279	15	0.197248	11	0	54.9877	0.000335682
2	1	0	1	0	0	1689.34	0.661737	0.662077	0.362911	15	0.198357	11	0	57.5841	0.000240275
2	1	0	1	0	0	1691.93	0.648755	0.64912	0.258282	15	0.199157	11	0	60.1805	0.000167656
2	1	0	0	0	0	1694.53	0.635772	0.636115	0.180174	15	0.199721	11	0	62.777	0.000114612
2	1	0	0	0	0	1697.12	0.62279	0.623161	0.121765	15	0.200108	11	0	65.3734	7.58789e-05
2	1	0	1	0	0	1699.72	0.609808	0.610148	0.0810857	15	0.200368	11	0	67.9699	4.94742e-05
2	1	0	1	0	0	1702.32	0.596826	0.597163	0.0512993	15	0.200538	11	0	70.5663	3.06341e-05
2	1	0	1	0	0	1704.91	0.583844	0.584203	0.0321153	15	0.200644	11	0	73.1627	1.87618e-05
2	1	0	1	0	0	1707.51	0.570862	0.571135	0.0181805	15	0.200708	11	0	75.7591	1.03835e-05
2	1	0	1	0	0	1710.11	0.55788	0.55821	0.010158	15	0.200744	11	0	78.3555	5.67028e-06
2	1	0	1	0	0	1712.7	0.544897	0.545241	0.00524288	15	0.200763	11	0	80.952	2.85863e-06
2	0	0	1	0	0	1715.3	0.531915	0.532211	0.00207971	15	0.200772	11	0	83.5484	1.10684e-06
2	1	0	1	0	0	1717.9	0.518933	0.519217	0.00115247	15	0.200776	11	0	86.1449	5.9838e-07
2	1	0	1	0	0	1720.49	0.505951	0.5063	-0.000139387	15	0.200777	11	0	0.000000000000000E+000	-7.05715e-08
2	1	0	1	0	0	1723.09	0.492969	0.49332	-0.000212609	15	0.200777	11	0	1.3981	-1.04884e-07
2	0	0	1	0	0	1725.69	0.479987	0.480307	-0.000894779	15	0.200775	11	0	3.9945	-4.29769e-07
2	1	0	0	0	0	1728.28	0.467004	0.467321	-0.00062168	15	0.200773	11	0	6.591	-2.90524e-07
2	0	0	0	0	0	1730.88	0.454022	0.45432	-0.00119759	15	0.20077	11	0	9.1874	-5.44091e-07
2	0	0	1	0	0	1731.68	0.450003	0.450141	-0.00308535	15	0.200769	11	0	9.987	-1.38884e-06