File: ACS_Catal_2026/Figures_Na_K/main_figures/data/EC/20240401_2-128_CV_cycles_alpha_gamma/gamma/20240328_2-128_004_gamma_Na-1_02_PEIS_C02.mpt
EC-Lab ASCII FILE
Nb header lines : 63

Potentio Electrochemical Impedance Spectroscopy

Run on channel : 2 (SN 66414)
User :
CE vs. WE compliance from -10 V to 10 V
Electrode connection : standard
Potential control : Ewe
Ewe ctrl range : min = -1.00 V, max = 1.00 V
Safety Limits :
	Do not start on E overload
Acquisition started on : 04/01/2024 19:26:22.905
Loaded Setting File :  C:\Users\NakamuraT\Documents\EC-Lab\Data\Yatsuzuka\20240401_2-128_CV_cycles_alpha_gamma\20240328_2-128_001_alpha_K-1.mps
Saved on :
	File : 20240328_2-128_004_gamma_Na-1_02_PEIS_C02.mpr
	Directory : C:\Users\NakamuraT\Documents\EC-Lab\Data\Yatsuzuka\20240401_2-128_CV_cycles_alpha_gamma\
	Host : 192.109.209.100
Device : SP-150e (SN .003411)
Address : 192.109.209.236
EC-Lab for windows v11.50 (software)
Internet server v11.50 (firmware)
Command interpretor v11.50 (firmware)
Electrode material :
Initial state :
Electrolyte :
Comments :
Electrode surface area : 0.001 cm2
Characteristic mass : 0.001 g
Equivalent Weight : 0.000 g/eq.
Density : 0.000 g/cm3
Volume (V) : 0.001 cm3
Cycle Definition : Charge/Discharge alternance
Mode                Single sine
E (V)               0.4500
vs.                 Ref
tE (h:m:s)          0:00:0.0000
record              0
dI                  0.000
unit dI             mA
dt (s)              0.000
fi                  500.000
unit fi             kHz
ff                  1.000
unit ff             Hz
Nd                  6
Points              per decade
spacing             Logarithmic
Va (mV)             10.0
pw                  0.10
Na                  2
corr                0
E range min (V)     -1.000
E range max (V)     1.000
I Range             Auto
Bandwidth           5
nc cycles           0
goto Ns'            0
nr cycles           0
inc. cycle          0

freq/Hz	Re(Z)/Ohm	-Im(Z)/Ohm	|Z|/Ohm	Phase(Z)/deg	time/s	<Ewe>/V	<I>/mA	Cs/uF	Cp/uF	cycle number	I Range	|Ewe|/V	|I|/A	Ns	(Q-Qo)/mA.h	Re(Y)/Ohm-1	Im(Y)/Ohm-1	|Y|/Ohm-1	Phase(Y)/deg	Re(C)/nF	Im(C)/nF	|C|/nF	Phase(C)/deg	Re(M)	Im(M)	|M|	Phase(M)/deg	Re(Permittivity)	Im(Permittivity)	|Permittivity|	Phase(Permittivity)/deg	Re(Resistivity)/Ohm.cm	Im(Resistivity)/Ohm.cm	|Resistivity|/Ohm.cm	Phase(Resistivity)/deg	Re(Conductivity)/mS/cm	Im(Conductivity)/mS/cm	|Conductivity|/mS/cm	Phase(Conductivity)/deg	Tan(Delta)	Loss Angle(Delta)/deg	dq/mA.h
500019	45.5581	8.42368	46.3303	-10.4757	201.387	0.450433	-0.00129313	0.0377861	0.00124912	1	11	0.0103727	0.000223886	0	5.03e-07	0.0212244	0.00392438	0.0215841	10.4757	1.24912	6.75567	6.87019	-79.5243	0.0000000E+000	0.0000000E+000	0.0000000E+000	79.5243	0.0000000E+000	0.0000000E+000	0.0000000E+000	-79.5243	0.0000000E+000	0.0000000E+000	0.0000000E+000	-10.4757	0.0000000E+000	0.0000000E+000	0.0000000E+000	10.4757	5.40834	79.5243	5.03e-07
339899	34.4632	-0.991276	34.4774	1.64756	201.809	0.450321	-0.00107379	-0.472362	-0.000390476	1	11	0.0103805	0.000301081	0	9.31988e-07	0.0289925	-0.00083392	0.0290045	-1.64756	-0.390475	13.5755	13.5811	-91.6476	0.0000000E+000	0.0000000E+000	0.0000000E+000	91.6476	0.0000000E+000	0.0000000E+000	0.0000000E+000	-91.6476	0.0000000E+000	0.0000000E+000	0.0000000E+000	1.64756	0.0000000E+000	0.0000000E+000	0.0000000E+000	-1.64756	34.7665	88.3524	4.28988e-07
231063	28.7555	-1.00057	28.7729	1.99284	202.67	0.450273	-0.00381975	-0.688406	-0.000832473	1	10	0.00990226	0.000344153	0	7.48274e-07	0.0347339	-0.00120859	0.034755	-1.99284	-0.832474	23.9246	23.9391	-91.9928	0.0000000E+000	0.0000000E+000	0.0000000E+000	91.9928	0.0000000E+000	0.0000000E+000	0.0000000E+000	-91.9928	0.0000000E+000	0.0000000E+000	0.0000000E+000	1.99284	0.0000000E+000	0.0000000E+000	0.0000000E+000	-1.99284	28.7392	88.0072	-1.83714e-07
157076	26.6427	-0.448366	26.6465	0.96413	203.092	0.45028	-0.00484457	-2.25984	-0.000639828	1	10	0.0107694	0.000404157	0	5.76623e-07	0.0375231	-0.000631469	0.0375284	-0.96413	-0.639825	38.0197	38.0251	-90.9641	0.0000000E+000	0.0000000E+000	0.0000000E+000	90.9641	0.0000000E+000	0.0000000E+000	0.0000000E+000	-90.9641	0.0000000E+000	0.0000000E+000	0.0000000E+000	0.96413	0.0000000E+000	0.0000000E+000	0.0000000E+000	-0.96413	59.4218	89.0359	-1.71651e-07
106786	25.9642	-0.143325	25.9646	0.316275	203.514	0.450271	-0.00394109	-10.3988	-0.000316857	1	10	0.0106552	0.000410374	0	-5.1184e-07	0.0385134	-0.000212598	0.038514	-0.316275	-0.316858	57.4006	57.4014	-90.3163	0.0000000E+000	0.0000000E+000	0.0000000E+000	90.3163	0.0000000E+000	0.0000000E+000	0.0000000E+000	-90.3163	0.0000000E+000	0.0000000E+000	0.0000000E+000	0.316275	0.0000000E+000	0.0000000E+000	0.0000000E+000	-0.316275	181.156	89.6837	-1.08846e-06
72595	25.6697	-0.0581994	25.6697	0.129903	203.936	0.450279	-0.00352481	-37.6699	-0.000193637	1	10	0.0105218	0.00040989	0	-2.40785e-07	0.0389563	-8.83234e-05	0.0389564	-0.129903	-0.193641	85.4065	85.4067	-90.1299	0.0000000E+000	0.0000000E+000	0.0000000E+000	90.1299	0.0000000E+000	0.0000000E+000	0.0000000E+000	-90.1299	0.0000000E+000	0.0000000E+000	0.0000000E+000	0.129903	0.0000000E+000	0.0000000E+000	0.0000000E+000	-0.129903	441.064	89.8701	2.71055e-07
49352.4	25.5556	0.0206233	25.5556	-0.0462376	204.358	0.450285	-0.00418189	156.37	0.000101835	1	10	0.0104163	0.000407594	0	-1.94315e-07	0.0391304	3.15782e-05	0.0391304	0.0462376	0.101828	126.19	126.19	-89.9538	0.0000000E+000	0.0000000E+000	0.0000000E+000	89.9538	0.0000000E+000	0.0000000E+000	0.0000000E+000	-89.9538	0.0000000E+000	0.0000000E+000	0.0000000E+000	-0.0462376	0.0000000E+000	0.0000000E+000	0.0000000E+000	0.0462376	1239.16	89.9538	4.64705e-08
33551.1	25.45	0.0261634	25.45	-0.0589018	204.78	0.45029	-0.00416696	181.309	0.000191616	1	10	0.0103326	0.000405995	0	-4.57956e-07	0.0392927	4.03942e-05	0.0392928	0.0589018	0.191607	186.391	186.392	-89.9411	0.0000000E+000	0.0000000E+000	0.0000000E+000	89.9411	0.0000000E+000	0.0000000E+000	0.0000000E+000	-89.9411	0.0000000E+000	0.0000000E+000	0.0000000E+000	-0.0589018	0.0000000E+000	0.0000000E+000	0.0000000E+000	0.0589018	972.733	89.9411	-2.63641e-07
22806.6	25.4278	0.052454	25.4279	-0.118193	205.203	0.450283	-0.00393549	133.04	0.000566134	1	10	0.0102551	0.000403304	0	-1.2054e-06	0.0393269	8.11258e-05	0.0393269	0.118193	0.566142	274.441	274.442	-89.8818	0.0000000E+000	0.0000000E+000	0.0000000E+000	89.8818	0.0000000E+000	0.0000000E+000	0.0000000E+000	-89.8818	0.0000000E+000	0.0000000E+000	0.0000000E+000	-0.118193	0.0000000E+000	0.0000000E+000	0.0000000E+000	0.118193	484.764	89.8818	-7.47444e-07
15504.4	25.4275	0.0872745	25.4277	-0.196655	205.626	0.450276	-0.00505551	117.619	0.00138561	1	10	0.0101242	0.000398158	0	-1.57974e-06	0.039327	0.000134982	0.0393272	0.196655	1.38561	403.698	403.7	-89.8033	0.0000000E+000	0.0000000E+000	0.0000000E+000	89.8033	0.0000000E+000	0.0000000E+000	0.0000000E+000	-89.8033	0.0000000E+000	0.0000000E+000	0.0000000E+000	-0.196655	0.0000000E+000	0.0000000E+000	0.0000000E+000	0.196655	291.351	89.8033	-3.74343e-07
10540.4	25.408	0.0901455	25.4081	-0.20328	205.912	0.450287	-0.00521231	167.502	0.00210845	1	10	0.0107469	0.000422971	0	-2.17184e-06	0.0393572	0.000139636	0.0393575	0.20328	2.10842	594.276	594.28	-89.7967	0.0000000E+000	0.0000000E+000	0.0000000E+000	89.7967	0.0000000E+000	0.0000000E+000	0.0000000E+000	-89.7967	0.0000000E+000	0.0000000E+000	0.0000000E+000	-0.20328	0.0000000E+000	0.0000000E+000	0.0000000E+000	0.20328	281.855	89.7967	-5.92094e-07
7163.78	25.4244	0.178009	25.425	-0.401151	206.436	0.450268	-0.00586752	124.806	0.00611784	1	10	0.0101324	0.000398519	0	-2.46785e-06	0.0393304	0.000275372	0.0393314	0.401151	6.11789	873.788	873.81	-89.5988	0.0000000E+000	0.0000000E+000	0.0000000E+000	89.5988	0.0000000E+000	0.0000000E+000	0.0000000E+000	-89.5988	0.0000000E+000	0.0000000E+000	0.0000000E+000	-0.401151	0.0000000E+000	0.0000000E+000	0.0000000E+000	0.401151	142.826	89.5988	-2.96014e-07
4871.56	25.4326	0.195596	25.4334	-0.440639	206.904	0.450301	-0.00501071	167.029	0.0098788	1	10	0.0102828	0.000404304	0	-2.81724e-06	0.0393172	0.000302379	0.0393184	0.440639	9.87872	1284.5	1284.54	-89.5594	0.0000000E+000	0.0000000E+000	0.0000000E+000	89.5594	0.0000000E+000	0.0000000E+000	0.0000000E+000	-89.5594	0.0000000E+000	0.0000000E+000	0.0000000E+000	-0.440639	0.0000000E+000	0.0000000E+000	0.0000000E+000	0.440639	130.026	89.5594	-3.49385e-07
3311.06	25.4392	0.300415	25.441	-0.676583	207.37	0.450306	-0.00502004	160.004	0.0223104	1	10	0.0103569	0.000407096	0	-3.83528e-06	0.0393039	0.000464146	0.0393067	0.676583	22.3104	1889.25	1889.38	-89.3234	0.0000000E+000	0.0000000E+000	0.0000000E+000	89.3234	0.0000000E+000	0.0000000E+000	0.0000000E+000	-89.3234	0.0000000E+000	0.0000000E+000	0.0000000E+000	-0.676583	0.0000000E+000	0.0000000E+000	0.0000000E+000	0.676583	84.6801	89.3234	-1.01805e-06
2250.72	25.4592	0.442251	25.4631	-0.995182	207.835	0.450299	-0.00547365	159.893	0.0482332	1	10	0.0103891	0.000408007	0	-4.19475e-06	0.0392667	0.000682099	0.0392726	0.995182	48.2334	2776.66	2777.08	-89.0048	0.0000000E+000	0.0000000E+000	0.0000000E+000	89.0048	0.0000000E+000	0.0000000E+000	0.0000000E+000	-89.0048	0.0000000E+000	0.0000000E+000	0.0000000E+000	-0.995182	0.0000000E+000	0.0000000E+000	0.0000000E+000	0.995182	57.5673	89.0048	-3.59467e-07
1530.49	25.4596	0.622409	25.4672	-1.40043	208.3	0.450303	-0.00557818	167.076	0.0997938	1	10	0.010402	0.000408446	0	-4.59872e-06	0.0392545	0.000959652	0.0392662	1.40043	99.7939	4082.06	4083.28	-88.5996	0.0000000E+000	0.0000000E+000	0.0000000E+000	88.5996	0.0000000E+000	0.0000000E+000	0.0000000E+000	-88.5996	0.0000000E+000	0.0000000E+000	0.0000000E+000	-1.40043	0.0000000E+000	0.0000000E+000	0.0000000E+000	1.40043	40.9049	88.5996	-4.03966e-07
1040.33	25.4782	0.857039	25.4926	-1.9266	208.765	0.450298	-0.00528698	178.504	0.201753	1	10	0.0104065	0.000408216	0	-5.69916e-06	0.0392049	0.00131878	0.0392271	1.9266	201.753	5997.75	6001.14	-88.0734	0.0000000E+000	0.0000000E+000	0.0000000E+000	88.0734	0.0000000E+000	0.0000000E+000	0.0000000E+000	-88.0734	0.0000000E+000	0.0000000E+000	0.0000000E+000	-1.9266	0.0000000E+000	0.0000000E+000	0.0000000E+000	1.9266	29.7282	88.0734	-1.10045e-06
707.036	25.5786	1.20697	25.607	-2.7016	209.23	0.450302	-0.00546991	186.501	0.41434	1	10	0.0104149	0.00040672	0	-6.24938e-06	0.0390084	0.00184068	0.0390518	2.7016	414.34	8780.84	8790.61	-87.2984	0.0000000E+000	0.0000000E+000	0.0000000E+000	87.2984	0.0000000E+000	0.0000000E+000	0.0000000E+000	-87.2984	0.0000000E+000	0.0000000E+000	0.0000000E+000	-2.7016	0.0000000E+000	0.0000000E+000	0.0000000E+000	2.7016	21.1924	87.2984	-5.50213e-07
480.769	25.6453	1.7168	25.7027	-3.82989	209.695	0.450303	-0.00601872	192.826	0.86029	1	10	0.0104175	0.000405309	0	-6.81048e-06	0.0388195	0.00259873	0.0389064	3.82989	860.29	12850.9	12879.7	-86.1701	0.0000000E+000	0.0000000E+000	0.0000000E+000	86.1701	0.0000000E+000	0.0000000E+000	0.0000000E+000	-86.1701	0.0000000E+000	0.0000000E+000	0.0000000E+000	-3.82989	0.0000000E+000	0.0000000E+000	0.0000000E+000	3.82989	14.9379	86.1701	-5.61105e-07
326.778	25.7377	2.44666	25.8537	-5.43029	210.159	0.450301	-0.00650967	199.065	1.78277	1	10	0.0104182	0.000402967	0	-7.54564e-06	0.0385056	0.00366039	0.0386792	5.43029	1782.77	18753.9	18838.4	-84.5697	0.0000000E+000	0.0000000E+000	0.0000000E+000	84.5697	0.0000000E+000	0.0000000E+000	0.0000000E+000	-84.5697	0.0000000E+000	0.0000000E+000	0.0000000E+000	-5.43029	0.0000000E+000	0.0000000E+000	0.0000000E+000	5.43029	10.5195	84.5697	-7.35154e-07
222.061	25.8881	3.47692	26.1205	-7.64938	210.872	0.45029	-0.000689387	206.136	3.65241	1	11	0.0104413	0.000399734	0	-8.58611e-06	0.0379434	0.00509602	0.0382841	7.64938	3652.41	27194.7	27438.9	-82.3506	0.0000000E+000	0.0000000E+000	0.0000000E+000	82.3506	0.0000000E+000	0.0000000E+000	0.0000000E+000	-82.3506	0.0000000E+000	0.0000000E+000	0.0000000E+000	-7.64938	0.0000000E+000	0.0000000E+000	0.0000000E+000	7.64938	7.44569	82.3506	-1.04047e-06
151.015	26.0253	4.94173	26.4903	-10.7514	211.336	0.450284	-0.000727249	213.266	7.42172	1	11	0.0104344	0.000393895	0	-8.76315e-06	0.0370869	0.00704213	0.0377496	10.7514	7421.72	39086	39784.4	-79.2486	0.0000000E+000	0.0000000E+000	0.0000000E+000	79.2486	0.0000000E+000	0.0000000E+000	0.0000000E+000	-79.2486	0.0000000E+000	0.0000000E+000	0.0000000E+000	-10.7514	0.0000000E+000	0.0000000E+000	0.0000000E+000	10.7514	5.26644	79.2486	-1.77046e-07
102.667	26.2415	7.06327	27.1754	-15.0649	211.811	0.450291	-0.000991536	219.473	14.8266	1	11	0.0104409	0.000384202	0	-9.21065e-06	0.0355333	0.00956429	0.0367979	15.0649	14826.6	55083.7	57044.2	-74.9351	0.0000000E+000	0.0000000E+000	0.0000000E+000	74.9351	0.0000000E+000	0.0000000E+000	0.0000000E+000	-74.9351	0.0000000E+000	0.0000000E+000	0.0000000E+000	-15.0649	0.0000000E+000	0.0000000E+000	0.0000000E+000	15.0649	3.7152	74.9351	-4.47499e-07
69.7545	26.4915	10.1497	28.3693	-20.9634	212.278	0.45029	-0.00103145	224.799	28.7743	1	11	0.0104378	0.000367926	0	-9.57295e-06	0.0329162	0.0126112	0.0352493	20.9634	28774.3	75103	80426.5	-69.0366	0.0000000E+000	0.0000000E+000	0.0000000E+000	69.0366	0.0000000E+000	0.0000000E+000	0.0000000E+000	-69.0366	0.0000000E+000	0.0000000E+000	0.0000000E+000	-20.9634	0.0000000E+000	0.0000000E+000	0.0000000E+000	20.9634	2.61007	69.0366	-3.62302e-07
47.4443	26.8265	14.5363	30.5117	-28.4517	212.722	0.450282	-0.00127485	230.771	52.3791	1	11	0.0104298	0.000341828	0	-1.00039e-05	0.0288158	0.0156143	0.0327743	28.4517	52379.1	96664.3	109943	-61.5483	0.0000000E+000	0.0000000E+000	0.0000000E+000	61.5483	0.0000000E+000	0.0000000E+000	0.0000000E+000	-61.5483	0.0000000E+000	0.0000000E+000	0.0000000E+000	-28.4517	0.0000000E+000	0.0000000E+000	0.0000000E+000	28.4517	1.84548	61.5483	-4.30908e-07
32.2387	27.3318	20.9678	34.4481	-37.4939	213.159	0.450276	-0.00150762	235.445	87.2297	1	11	0.0104335	0.000302877	0	-9.92999e-06	0.0230322	0.0176694	0.0290291	37.4939	87229.7	113705	143310	-52.5061	0.0000000E+000	0.0000000E+000	0.0000000E+000	52.5061	0.0000000E+000	0.0000000E+000	0.0000000E+000	-52.5061	0.0000000E+000	0.0000000E+000	0.0000000E+000	-37.4939	0.0000000E+000	0.0000000E+000	0.0000000E+000	37.4939	1.30351	52.5061	7.38673e-08
21.9144	27.9569	30.2959	41.2241	-47.2993	213.59	0.450275	-0.00150016	239.721	129.47	1	11	0.0104285	0.000252969	0	-1.06873e-05	0.0164508	0.0178271	0.0242576	47.2993	129470	119475	176172	-42.7007	0.0000000E+000	0.0000000E+000	0.0000000E+000	42.7007	0.0000000E+000	0.0000000E+000	0.0000000E+000	-42.7007	0.0000000E+000	0.0000000E+000	0.0000000E+000	-47.2993	0.0000000E+000	0.0000000E+000	0.0000000E+000	47.2993	0.922797	42.7007	-7.57275e-07
14.9093	29.1579	43.6769	52.5153	-56.2737	214.058	0.450287	-0.00114821	244.405	169.06	1	11	0.0104246	0.000198505	0	-1.10337e-05	0.0105727	0.0158373	0.0190421	56.2737	169060	112861	203271	-33.7263	0.0000000E+000	0.0000000E+000	0.0000000E+000	33.7263	0.0000000E+000	0.0000000E+000	0.0000000E+000	-33.7263	0.0000000E+000	0.0000000E+000	0.0000000E+000	-56.2737	0.0000000E+000	0.0000000E+000	0.0000000E+000	56.2737	0.66758	33.7263	-3.46413e-07
10.1329	30.2964	63.2816	70.16	-64.417	214.517	0.450285	-0.00103295	248.203	201.921	1	11	0.0104219	0.000148545	0	-1.128e-05	0.00615477	0.0128558	0.0142531	64.417	201921	96671	223869	-25.583	0.0000000E+000	0.0000000E+000	0.0000000E+000	25.583	0.0000000E+000	0.0000000E+000	0.0000000E+000	-25.583	0.0000000E+000	0.0000000E+000	0.0000000E+000	-64.417	0.0000000E+000	0.0000000E+000	0.0000000E+000	64.417	0.478756	25.583	-2.46287e-07
6.88933	32.1589	91.4698	96.9583	-70.6293	214.869	0.450269	-0.00188475	252.561	224.776	1	11	0.0104244	0.000107514	0	-1.06575e-05	0.00342083	0.00972988	0.0103137	70.6293	224776	79026.9	238264	-19.3707	0.0000000E+000	0.0000000E+000	0.0000000E+000	19.3707	0.0000000E+000	0.0000000E+000	0.0000000E+000	-19.3707	0.0000000E+000	0.0000000E+000	0.0000000E+000	-70.6293	0.0000000E+000	0.0000000E+000	0.0000000E+000	70.6293	0.35158	19.3707	6.22462e-07
4.68375	34.6959	131.615	136.111	-75.2318	215.632	0.4503	-1.1096e-05	258.18	241.404	1	12	0.0104242	7.65863e-05	0	-1.12117e-05	0.0018728	0.00710424	0.00734695	75.2318	241404	63638.2	249651	-14.7682	0.0000000E+000	0.0000000E+000	0.0000000E+000	14.7682	0.0000000E+000	0.0000000E+000	0.0000000E+000	-14.7682	0.0000000E+000	0.0000000E+000	0.0000000E+000	-75.2318	0.0000000E+000	0.0000000E+000	0.0000000E+000	75.2318	0.263617	14.7682	-5.54159e-07
3.18099	38.5807	191.404	195.253	-78.6038	216.336	0.450294	-5.40741e-05	261.401	251.196	1	12	0.010424	5.33868e-05	0	-1.08684e-05	0.00101198	0.00502057	0.00512155	78.6038	251196	50632.8	256248	-11.3962	0.0000000E+000	0.0000000E+000	0.0000000E+000	11.3962	0.0000000E+000	0.0000000E+000	0.0000000E+000	-11.3962	0.0000000E+000	0.0000000E+000	0.0000000E+000	-78.6038	0.0000000E+000	0.0000000E+000	0.0000000E+000	78.6038	0.201567	11.3962	3.43272e-07
2.16533	44.1227	276.539	280.037	-80.9347	217.347	0.450304	0.000174647	265.791	259.192	1	12	0.010421	3.72129e-05	0	-1.0035e-05	0.000562641	0.00352635	0.00357096	80.9347	259193	41355	262471	-9.06531	0.0000000E+000	0.0000000E+000	0.0000000E+000	9.06531	0.0000000E+000	0.0000000E+000	0.0000000E+000	-9.06531	0.0000000E+000	0.0000000E+000	0.0000000E+000	-80.9347	0.0000000E+000	0.0000000E+000	0.0000000E+000	80.9347	0.159553	9.06531	8.33391e-07
1.46962	52.1791	401.284	404.662	-82.5914	219.547	0.450306	0.000191545	269.875	265.388	1	13	0.0104314	2.57781e-05	0	-9.95081e-06	0.000318649	0.00245057	0.0024712	82.5914	265388	34508.6	267622	-7.40863	0.0000000E+000	0.0000000E+000	0.0000000E+000	7.40863	0.0000000E+000	0.0000000E+000	0.0000000E+000	-7.40863	0.0000000E+000	0.0000000E+000	0.0000000E+000	-82.5914	0.0000000E+000	0.0000000E+000	0.0000000E+000	82.5914	0.13003	7.40863	8.41935e-08
1.00006	63.8506	581.466	584.961	-83.7335	221.687	0.450308	0.000282279	273.696	270.435	1	13	0.0104242	1.78204e-05	0	-1.04317e-05	0.0001866	0.0016993	0.00170952	83.7335	270435	29696.4	272060	-6.26653	0.0000000E+000	0.0000000E+000	0.0000000E+000	6.26653	0.0000000E+000	0.0000000E+000	0.0000000E+000	-6.26653	0.0000000E+000	0.0000000E+000	0.0000000E+000	-83.7335	0.0000000E+000	0.0000000E+000	0.0000000E+000	83.7335	0.10981	6.26653	-4.80851e-07