File: ACS_Catal_2026/Figures_Na_K/main_figures/data/EC/20240401_2-128_CV_cycles_alpha_gamma/gamma/20240328_2-128_004_gamma_Na-1_03_CVA_C02.mpt
EC-Lab ASCII FILE
Nb header lines : 66

Cyclic Voltammetry Advanced

Run on channel : 2 (SN 66414)
User :
CE vs. WE compliance from -10 V to 10 V
Electrode connection : standard
Potential control : Ewe
Ewe ctrl range : min = -1.00 V, max = 1.00 V
Safety Limits :
	Do not start on E overload
Acquisition started on : 04/01/2024 19:26:22.905
Loaded Setting File :  C:\Users\NakamuraT\Documents\EC-Lab\Data\Yatsuzuka\20240401_2-128_CV_cycles_alpha_gamma\20240328_2-128_001_alpha_K-1.mps
Saved on :
	File : 20240328_2-128_004_gamma_Na-1_03_CVA_C02.mpr
	Directory : C:\Users\NakamuraT\Documents\EC-Lab\Data\Yatsuzuka\20240401_2-128_CV_cycles_alpha_gamma\
	Host : 192.109.209.100
Device : SP-150e (SN .003411)
Address : 192.109.209.236
EC-Lab for windows v11.50 (software)
Internet server v11.50 (firmware)
Command interpretor v11.50 (firmware)
Electrode material :
Initial state :
Electrolyte :
Comments :
Electrode surface area : 0.001 cm2
Characteristic mass : 0.001 g
Equivalent Weight : 0.000 g/eq.
Density : 0.000 g/cm3
Volume (V) : 0.001 cm3
Cycle Definition : Charge/Discharge alternance
Ei (V)              0.450
vs.                 Ref
ti (h:m:s)          0:00:10.0000
dti (s)             0.0000
dE/dt               5.000
dE/dt unit          mV/s
E1 (V)              0.700
vs.                 Ref
t1 (h:m:s)          0:00:0.0000
dt1 (s)             0.1000
Step percent        50
N                   10
E range min (V)     -1.000
E range max (V)     1.000
I Range             10 mA
I Range min         Unset
I Range max         Unset
I Range init        Unset
Bandwidth           5
E2 (V)              0.450
vs.                 Ref
t2 (h:m:s)          0:00:0.0000
dt2 (s)             0.1000
nc cycles           14
nr                  1
Reverse Scan        0
Ef (V)              0.000
vs.                 Eoc
tf (h:m:s)          0:00:0.0000
dtf (s)             0.1000

mode	ox/red	error	control changes	Ns changes	counter inc.	time/s	control/V	Ewe/V	<I>/mA	cycle number	(Q-Qo)/C	I Range	Ns	step time/s	P/W
2	0	0	1	0	0	231.808	0.449937	0.450156	-0.00200553	1	0.0000000E+000	11	0	0.000000000000000E+000	-9.02804e-07
2	1	0	1	0	0	234.359	0.462695	0.462957	0.00122918	1	2.21277e-06	11	0	2.4966	5.69057e-07
2	0	0	1	0	0	236.955	0.475677	0.475975	0.00118667	1	4.93075e-06	11	0	5.0931	5.64823e-07
2	0	0	1	0	0	239.552	0.488659	0.488977	0.00115454	1	8.24694e-06	11	0	7.6895	5.64543e-07
2	0	0	1	0	0	242.148	0.501641	0.501884	0.00152165	1	1.24635e-05	11	0	10.2859	7.63693e-07
2	1	0	1	0	0	244.745	0.514623	0.514893	0.00247828	1	1.81655e-05	11	0	12.8823	1.27605e-06
2	1	0	0	0	0	247.341	0.527605	0.52792	0.0039599	1	2.62623e-05	11	0	15.4788	2.09051e-06
2	1	0	0	0	0	249.938	0.540588	0.540926	0.00567194	1	3.79832e-05	11	0	18.0752	3.0681e-06
2	1	0	1	0	0	252.534	0.55357	0.553862	0.00807136	1	5.54425e-05	11	0	20.6717	4.47042e-06
2	1	0	1	0	0	255.13	0.566552	0.566816	0.0122356	1	8.19638e-05	11	0	23.2681	6.93535e-06
2	1	0	1	0	0	257.727	0.579534	0.579767	0.0194034	1	0.00012235	11	0	25.8645	1.12495e-05
2	1	0	1	0	0	260.323	0.592516	0.592844	0.0294114	1	0.000184512	11	0	28.4609	1.74364e-05
2	1	0	1	0	0	262.92	0.605498	0.605817	0.045189	1	0.000280474	11	0	31.0574	2.73763e-05
2	1	0	1	0	0	265.516	0.61848	0.61886	0.0701111	1	0.000428073	11	0	33.6538	4.33889e-05
2	1	0	1	0	0	268.113	0.631463	0.63178	0.106315	1	0.000653896	11	0	36.2503	6.7168e-05
2	1	0	1	0	0	270.709	0.644445	0.644766	0.159251	1	0.000995167	11	0	38.8467	0.00010268
2	1	0	1	0	0	273.305	0.657427	0.657657	0.234745	1	0.00150171	11	0	41.4431	0.000154381
2	1	0	1	0	0	275.902	0.670409	0.670702	0.335822	1	0.0022366	11	0	44.0395	0.000225236
2	1	0	0	0	0	278.498	0.683391	0.68364	0.468059	1	0.00327457	11	0	46.636	0.000319984
2	1	0	0	0	0	281.095	0.696374	0.696691	0.631323	1	0.00469552	11	0	49.2324	0.000439837
2	1	0	1	0	0	283.568	0.691231	0.691562	0.547057	1	0.00624032	11	0	51.7053	0.000378324
2	1	0	1	0	0	286.164	0.678248	0.678599	0.386917	1	0.00744286	11	0	54.3018	0.000262562
2	1	0	1	0	0	288.761	0.665266	0.665559	0.268579	1	0.0082853	11	0	56.8982	0.000178755
2	1	0	1	0	0	291.357	0.652284	0.652653	0.180671	1	0.00886172	11	0	59.4947	0.000117915
2	1	0	1	0	0	293.953	0.639302	0.639609	0.119806	1	0.00924668	11	0	62.0911	7.66289e-05
2	1	0	1	0	0	296.55	0.62632	0.626634	0.0774015	1	0.00949872	11	0	64.6875	4.85024e-05
2	1	0	1	0	0	299.146	0.613338	0.613674	0.0492282	1	0.00966026	11	0	67.2839	3.02101e-05
2	1	0	0	0	0	301.743	0.600356	0.600621	0.0304593	1	0.00976192	11	0	69.8804	1.82945e-05
2	1	0	0	0	0	304.339	0.587373	0.587727	0.018613	1	0.00982423	11	0	72.4768	1.09394e-05
2	1	0	1	0	0	306.936	0.574391	0.574711	0.0103891	1	0.00986115	11	0	75.0733	5.97072e-06
2	1	0	1	0	0	309.532	0.561409	0.561684	0.00602816	1	0.0098818	11	0	77.6697	3.38593e-06
2	1	0	1	0	0	312.128	0.548427	0.548738	0.00228046	1	0.00989204	11	0	80.2661	1.25137e-06
2	1	0	1	0	0	314.725	0.535445	0.53575	0.000820839	1	0.0098959	11	0	82.8625	4.39765e-07
2	0	0	1	0	0	317.321	0.522462	0.522704	-0.000735522	1	0.00989558	11	0	0.6991	-3.8446e-07
2	0	0	1	0	0	319.918	0.50948	0.509759	-0.00156389	1	0.00989269	11	0	3.2955	-7.97208e-07
2	1	0	1	0	0	322.514	0.496498	0.496767	-0.00166493	1	0.0098881	11	0	5.892	-8.27081e-07
2	0	0	1	0	0	325.111	0.483516	0.483834	-0.0026616	1	0.00988234	11	0	8.4884	-1.28777e-06
2	0	0	1	0	0	327.707	0.470534	0.470775	-0.00235604	1	0.0098758	11	0	11.0848	-1.10916e-06
2	0	0	0	0	0	330.304	0.457552	0.457747	-0.00268718	1	0.00986881	11	0	13.6813	-1.23005e-06
2	0	0	1	0	1	332.673	0.454306	0.454601	4.44918e-05	2	0.00986472	11	0	0.000000000000000E+000	2.0226e-08
2	1	0	1	0	1	335.269	0.467288	0.467509	0.000897925	2	0.00986609	11	0	2.4965	4.19788e-07
2	0	0	0	0	1	337.866	0.48027	0.480531	0.00066248	2	0.00986806	11	0	5.093	3.18342e-07
2	0	0	0	0	1	340.462	0.493253	0.493474	0.00119168	2	0.00987068	11	0	7.6894	5.88061e-07
2	1	0	1	0	1	343.059	0.506235	0.50642	0.00149015	2	0.0098743	11	0	10.2859	7.54641e-07
2	1	0	1	0	1	345.655	0.519217	0.519503	0.00218941	2	0.00987923	11	0	12.8823	1.1374e-06
2	1	0	1	0	1	348.251	0.532199	0.532458	0.00346848	2	0.00988649	11	0	15.4787	1.84682e-06
2	1	0	1	0	1	350.848	0.545181	0.545463	0.00481332	2	0.00989725	11	0	18.0751	2.62549e-06
2	1	0	1	0	1	353.444	0.558163	0.55846	0.00766074	2	0.0099138	11	0	20.6716	4.27822e-06
2	1	0	1	0	1	356.041	0.571146	0.571435	0.0125082	2	0.00993962	11	0	23.268	7.1476e-06
2	1	0	1	0	1	358.637	0.584128	0.584423	0.0190208	2	0.0099798	11	0	25.8645	1.11162e-05
2	1	0	1	0	1	361.234	0.59711	0.597403	0.0300373	2	0.0100429	11	0	28.4609	1.79443e-05
2	1	0	1	0	1	363.83	0.610092	0.610384	0.0472884	2	0.0101418	11	0	31.0573	2.88641e-05
2	1	0	1	0	1	366.426	0.623074	0.623394	0.0730789	2	0.0102958	11	0	33.6537	4.55569e-05
2	1	0	0	0	1	369.023	0.636056	0.636381	0.112951	2	0.0105343	11	0	36.2502	7.18799e-05
2	1	0	0	0	1	371.619	0.649039	0.649329	0.170221	2	0.0108978	11	0	38.8466	0.000110529
2	1	0	1	0	1	374.216	0.662021	0.662356	0.252169	2	0.0114411	11	0	41.4431	0.000167025
2	1	0	1	0	1	376.812	0.675003	0.675231	0.361543	2	0.0122321	11	0	44.0395	0.000244125
2	1	0	1	0	1	379.409	0.687985	0.688279	0.504588	2	0.01335	11	0	46.6359	0.000347297
2	1	0	1	0	1	381.862	0.699719	0.69996	0.660089	2	0.0147841	11	0	49.0889	0.000462036
2	1	0	1	0	1	384.458	0.686737	0.687009	0.474862	2	0.0162469	11	0	51.6853	0.000326235
2	1	0	1	0	1	387.054	0.673755	0.67407	0.332742	2	0.0172856	11	0	54.2817	0.000224291
2	1	0	0	0	1	389.651	0.660772	0.661094	0.226382	2	0.0180033	11	0	56.8782	0.00014966
2	1	0	0	0	1	392.247	0.64779	0.648047	0.150665	2	0.0184872	11	0	59.4746	9.76378e-05
2	1	0	1	0	1	394.844	0.634808	0.635128	0.0988441	2	0.0188063	11	0	62.0711	6.27787e-05
2	1	0	1	0	1	397.44	0.621826	0.622089	0.0632309	2	0.0190132	11	0	64.6675	3.93352e-05
2	1	0	1	0	1	400.037	0.608844	0.609156	0.0394141	2	0.0191445	11	0	67.2639	2.40094e-05
2	1	0	1	0	1	402.633	0.595862	0.59615	0.0246316	2	0.0192261	11	0	69.8603	1.46841e-05
2	1	0	1	0	1	405.23	0.582879	0.583208	0.0142529	2	0.0192752	11	0	72.4568	8.31242e-06
2	1	0	1	0	1	407.826	0.569897	0.57022	0.00789956	2	0.0193037	11	0	75.0532	4.50449e-06
2	1	0	1	0	1	410.422	0.556915	0.557152	0.00435224	2	0.0193189	11	0	77.6497	2.42486e-06
2	1	0	1	0	1	413.019	0.543933	0.544222	0.0016533	2	0.0193258	11	0	80.2461	8.99761e-07
2	0	0	1	0	1	415.615	0.530951	0.531218	-0.000340937	2	0.0193275	11	0	0.000000000000000E+000	-1.81112e-07
2	0	0	1	0	1	418.212	0.517969	0.51829	-0.001227	2	0.0193259	11	0	2.2968	-6.35942e-07
2	1	0	0	0	1	420.808	0.504986	0.505303	-0.00149918	2	0.019322	11	0	4.8933	-7.5754e-07
2	1	0	0	0	1	423.405	0.492004	0.49231	-0.00185107	2	0.0193168	11	0	7.4897	-9.11298e-07
2	0	0	1	0	1	426.001	0.479022	0.479287	-0.00243919	2	0.0193106	11	0	10.0862	-1.16907e-06
2	0	0	1	0	1	428.597	0.46604	0.466368	-0.00295094	2	0.0193038	11	0	12.6826	-1.37622e-06
2	0	0	1	0	1	431.194	0.453058	0.453349	-0.00308733	2	0.0192967	11	0	15.279	-1.39964e-06
2	1	0	1	0	0	433.563	0.4588	0.459059	0.000539061	3	0.0192956	11	0	1.498	2.47461e-07
2	1	0	1	0	0	436.16	0.471782	0.472087	0.000937062	3	0.0192972	11	0	4.0944	4.42374e-07
2	1	0	1	0	0	438.756	0.484764	0.485065	0.0012152	3	0.0192993	11	0	6.6908	5.8945e-07
2	1	0	1	0	0	441.353	0.497746	0.498053	0.00121688	3	0.019302	11	0	9.2873	6.06069e-07
2	0	0	1	0	0	443.949	0.510729	0.510954	0.0013725	3	0.0193058	11	0	11.8837	7.01282e-07
2	0	0	1	0	0	446.545	0.523711	0.524022	0.00213887	3	0.0193112	11	0	14.4802	1.12082e-06
2	1	0	1	0	0	449.142	0.536693	0.536992	0.00362632	3	0.019319	11	0	17.0766	1.9473e-06
2	1	0	1	0	0	451.738	0.549675	0.549951	0.00583965	3	0.0193308	11	0	19.673	3.21152e-06
2	1	0	1	0	0	454.335	0.562657	0.562932	0.00896043	3	0.0193492	11	0	22.2694	5.04412e-06
2	1	0	0	0	0	456.931	0.575639	0.575891	0.013427	3	0.0193777	11	0	24.8659	7.73249e-06
2	1	0	0	0	0	459.528	0.588622	0.588946	0.0210433	3	0.0194225	11	0	27.4623	1.23934e-05
2	1	0	1	0	0	462.124	0.601604	0.60188	0.0337018	3	0.019493	11	0	30.0588	2.02844e-05
2	1	0	1	0	0	464.72	0.614586	0.614861	0.0531432	3	0.0196037	11	0	32.6552	3.26757e-05
2	1	0	1	0	0	467.317	0.627568	0.627886	0.0825564	3	0.0197769	11	0	35.2516	5.1836e-05
2	1	0	1	0	0	469.913	0.64055	0.640846	0.126395	3	0.0200448	11	0	37.8481	8.09998e-05
2	1	0	1	0	0	472.51	0.653533	0.653797	0.191027	3	0.020453	11	0	40.4445	0.000124893
2	1	0	1	0	0	475.106	0.666515	0.666827	0.281507	3	0.0210604	11	0	43.0409	0.000187716
2	1	0	1	0	0	477.703	0.679497	0.679834	0.403025	3	0.0219423	11	0	45.6374	0.00027399
2	1	0	1	0	0	480.299	0.692479	0.692726	0.555762	3	0.0231809	11	0	48.2338	0.000384991
2	1	0	1	0	0	482.752	0.695225	0.695514	0.58522	3	0.0246834	11	0	50.6868	0.000407029
2	1	0	1	0	0	485.348	0.682243	0.68255	0.41626	3	0.0259729	11	0	53.2832	0.000284118
2	1	0	1	0	0	487.945	0.669261	0.669545	0.288404	3	0.0268789	11	0	55.8796	0.000193099
2	1	0	1	0	0	490.541	0.656279	0.656602	0.195281	3	0.0274998	11	0	58.476	0.000128222
2	1	0	1	0	0	493.138	0.643296	0.643562	0.128484	3	0.0279142	11	0	61.0725	8.26876e-05
2	1	0	1	0	0	495.734	0.630314	0.630576	0.0830561	3	0.0281845	11	0	63.6689	5.23732e-05
2	1	0	1	0	0	498.331	0.617332	0.617586	0.0527432	3	0.0283579	11	0	66.2654	3.25735e-05
2	1	0	1	0	0	500.927	0.60435	0.604663	0.0325889	3	0.0284666	11	0	68.8618	1.97053e-05
2	1	0	1	0	0	503.523	0.591368	0.591689	0.0198413	3	0.0285333	11	0	71.4582	1.17399e-05
2	1	0	1	0	0	506.12	0.578386	0.578671	0.0114642	3	0.0285729	11	0	74.0546	6.634e-06
2	1	0	0	0	0	508.716	0.565403	0.565733	0.00599799	3	0.0285951	11	0	76.6511	3.39326e-06
2	1	0	0	0	0	511.313	0.552421	0.552718	0.00312801	3	0.0286062	11	0	79.2475	1.72891e-06
2	1	0	1	0	0	513.909	0.539439	0.539727	0.000489072	3	0.0286106	11	0	81.844	2.63966e-07
2	1	0	1	0	0	516.506	0.526457	0.52673	-0.000274174	3	0.0286107	11	0	0.7989	-1.44416e-07
2	0	0	1	0	0	519.102	0.513475	0.513747	-0.00153966	3	0.028608	11	0	3.3953	-7.90994e-07
2	0	0	1	0	0	521.698	0.500493	0.500817	-0.00179026	3	0.0286036	11	0	5.9917	-8.96595e-07
2	0	0	1	0	0	524.295	0.487511	0.487766	-0.00232908	3	0.0285981	11	0	8.5882	-1.13605e-06
2	0	0	1	0	0	526.891	0.474528	0.474801	-0.00241105	3	0.0285917	11	0	11.1846	-1.14477e-06
2	0	0	1	0	0	529.488	0.461546	0.461838	-0.00288045	3	0.0285849	11	0	13.7811	-1.3303e-06
2	0	0	1	0	1	531.857	0.450312	0.450585	0.000224798	4	0.0285784	11	0	0.000000000000000E+000	1.01291e-07
2	0	0	1	0	1	534.454	0.463294	0.463571	0.000191955	4	0.0285795	11	0	1.9973	8.89846e-08
2	1	0	1	0	1	537.05	0.476276	0.476599	0.000977315	4	0.0285813	11	0	4.5937	4.65788e-07
2	0	0	1	0	1	539.646	0.489258	0.489495	0.000898908	4	0.0285837	11	0	7.1901	4.40011e-07
2	0	0	1	0	1	542.243	0.50224	0.502511	0.00121584	4	0.0285869	11	0	9.7865	6.10976e-07
2	1	0	0	0	1	544.839	0.515222	0.51551	0.00226318	4	0.0285913	11	0	12.383	1.16669e-06
2	1	0	0	0	1	547.436	0.528204	0.528454	0.00259498	4	0.0285973	11	0	14.9794	1.37133e-06
2	1	0	1	0	1	550.032	0.541187	0.541471	0.00396756	4	0.0286063	11	0	17.5759	2.14832e-06
2	1	0	1	0	1	552.629	0.554169	0.554437	0.00665178	4	0.0286198	11	0	20.1723	3.68799e-06
2	1	0	1	0	1	555.225	0.567151	0.567379	0.00986485	4	0.0286407	11	0	22.7687	5.59711e-06
2	1	0	1	0	1	557.821	0.580133	0.580523	0.0151637	4	0.0286732	11	0	25.3651	8.80285e-06
2	1	0	1	0	1	560.418	0.593115	0.593459	0.0245831	4	0.0287242	11	0	27.9616	1.45891e-05
2	1	0	1	0	1	563.014	0.606098	0.606332	0.0387105	4	0.0288045	11	0	30.558	2.34714e-05
2	1	0	1	0	1	565.611	0.61908	0.619391	0.06013	4	0.028931	11	0	33.1545	3.7244e-05
2	1	0	1	0	1	568.207	0.632062	0.632398	0.0941532	4	0.0291292	11	0	35.7509	5.95422e-05
2	1	0	1	0	1	570.804	0.645044	0.645298	0.14474	4	0.0294352	11	0	38.3473	9.34004e-05
2	1	0	1	0	1	573.4	0.658026	0.658315	0.216539	4	0.0298991	11	0	40.9437	0.000142551
2	1	0	0	0	1	575.997	0.671008	0.671319	0.316459	4	0.0305856	11	0	43.5402	0.000212445
2	1	0	0	0	1	578.593	0.683991	0.684299	0.447738	4	0.0315713	11	0	46.1366	0.000306387
2	1	0	1	0	1	581.189	0.696973	0.697275	0.611041	4	0.0329397	11	0	48.7331	0.000426064
2	1	0	1	0	1	583.642	0.690731	0.691045	0.517201	4	0.034399	11	0	51.186	0.000357409
2	1	0	1	0	1	586.239	0.677749	0.677993	0.364325	4	0.0355332	11	0	53.7825	0.000247009
2	1	0	1	0	1	588.835	0.664767	0.665075	0.249708	4	0.0363224	11	0	56.3789	0.000166075
2	1	0	1	0	1	591.432	0.651785	0.652092	0.167542	4	0.0368576	11	0	58.9753	0.000109253
2	1	0	1	0	1	594.028	0.638803	0.639098	0.10923	4	0.0372116	11	0	61.5717	6.98086e-05
2	1	0	0	0	1	596.625	0.625821	0.626109	0.0698163	4	0.0374408	11	0	64.1682	4.37126e-05
2	1	0	0	0	1	599.221	0.612838	0.613158	0.0442574	4	0.0375861	11	0	66.7646	2.71368e-05
2	1	0	1	0	1	601.817	0.599856	0.600183	0.0270114	4	0.0376765	11	0	69.3611	1.62118e-05
2	1	0	1	0	1	604.414	0.586874	0.58718	0.0158603	4	0.0377311	11	0	71.9575	9.31284e-06
2	1	0	1	0	1	607.01	0.573892	0.574237	0.00935634	4	0.0377629	11	0	74.5539	5.37275e-06
2	1	0	1	0	1	609.607	0.56091	0.561196	0.00436459	4	0.0377802	11	0	77.1503	2.44939e-06
2	1	0	1	0	1	612.203	0.547927	0.548245	0.0021324	4	0.0377884	11	0	79.7468	1.16908e-06
2	1	0	1	0	1	614.8	0.534945	0.535261	0.000520123	4	0.037791	11	0	0.000000000000000E+000	2.78402e-07
2	0	0	1	0	1	617.396	0.521963	0.52225	-0.00116698	4	0.0377899	11	0	1.498	-6.09453e-07
2	1	0	1	0	1	619.992	0.508981	0.509266	-0.00149307	4	0.0377867	11	0	4.0944	-7.60371e-07
2	0	0	1	0	1	622.589	0.495999	0.496269	-0.00175898	4	0.0377819	11	0	6.6908	-8.7293e-07
2	0	0	0	0	1	625.185	0.483017	0.483255	-0.00267775	4	0.0377762	11	0	9.2873	-1.29404e-06
2	0	0	0	0	1	627.782	0.470034	0.470312	-0.0024147	4	0.0377698	11	0	11.8837	-1.13566e-06
2	1	0	0	0	1	630.378	0.457052	0.457319	-0.00245608	4	0.0377628	11	0	14.4801	-1.12321e-06
2	0	0	0	0	0	632.748	0.454805	0.455125	7.0652e-05	5	0.0377593	11	0	0.6991	3.21555e-08
2	1	0	0	0	0	635.344	0.467788	0.468074	0.000861573	5	0.0377608	11	0	3.2955	4.0328e-07
2	1	0	1	0	0	637.94	0.48077	0.48102	0.00092498	5	0.0377628	11	0	5.892	4.44934e-07
2	0	0	1	0	0	640.537	0.493752	0.494055	0.000761611	5	0.0377654	11	0	8.4884	3.76278e-07
2	1	0	1	0	0	643.133	0.506734	0.507024	0.00157794	5	0.0377688	11	0	11.0848	8.00054e-07
2	1	0	1	0	0	645.73	0.519716	0.520039	0.00242601	5	0.0377734	11	0	13.6812	1.26162e-06
2	1	0	1	0	0	648.326	0.532698	0.532981	0.00286511	5	0.03778	11	0	16.2777	1.52705e-06
2	1	0	1	0	0	650.923	0.545681	0.545978	0.00441283	5	0.03779	11	0	18.8741	2.40931e-06
2	1	0	1	0	0	653.519	0.558663	0.558923	0.00754413	5	0.0378053	11	0	21.4706	4.21659e-06
2	1	0	1	0	0	656.115	0.571645	0.571909	0.0115003	5	0.037829	11	0	24.067	6.57712e-06
2	1	0	1	0	0	658.712	0.584627	0.584895	0.0173801	5	0.0378661	11	0	26.6634	1.01656e-05
2	1	0	1	0	0	661.308	0.597609	0.597963	0.0279179	5	0.0379246	11	0	29.2598	1.66939e-05
2	1	0	0	0	0	663.905	0.610591	0.610949	0.0445481	5	0.0380169	11	0	31.8563	2.72166e-05
2	1	0	0	0	0	666.501	0.623574	0.623904	0.0695816	5	0.0381625	11	0	34.4527	4.34122e-05
2	1	0	1	0	0	669.098	0.636556	0.636884	0.108136	5	0.0383901	11	0	37.0492	6.88699e-05
2	1	0	1	0	0	671.694	0.649538	0.649888	0.164783	5	0.0387404	11	0	39.6456	0.00010709
2	1	0	1	0	0	674.29	0.66252	0.66285	0.245666	5	0.0392683	11	0	42.242	0.000162839
2	1	0	1	0	0	676.887	0.675502	0.675802	0.356249	5	0.0400437	11	0	44.8384	0.000240754
2	1	0	1	0	0	679.483	0.688484	0.68881	0.497674	5	0.041146	11	0	47.4349	0.000342802
2	1	0	1	0	0	681.936	0.69922	0.699526	0.637283	5	0.0425616	11	0	49.8878	0.000445796
2	1	0	0	0	0	684.533	0.686237	0.686569	0.457204	5	0.0439717	11	0	52.4843	0.000313902
2	1	0	0	0	0	687.129	0.673255	0.673523	0.319629	5	0.04497	11	0	55.0807	0.000215278
2	1	0	1	0	0	689.726	0.660273	0.660554	0.217617	5	0.0456594	11	0	57.6772	0.000143748
2	1	0	1	0	0	692.322	0.647291	0.64758	0.144713	5	0.0461232	11	0	60.2736	9.37132e-05
2	1	0	1	0	0	694.918	0.634309	0.634511	0.0939072	5	0.0464282	11	0	62.87	5.95852e-05
2	1	0	1	0	0	697.515	0.621327	0.621627	0.0595672	5	0.046624	11	0	65.4664	3.70286e-05
2	1	0	1	0	0	700.111	0.608344	0.608612	0.0371251	5	0.0467471	11	0	68.0629	2.25948e-05
2	1	0	1	0	0	702.708	0.595362	0.595643	0.0223121	5	0.0468229	11	0	70.6593	1.329e-05
2	1	0	1	0	0	705.304	0.58238	0.582653	0.0127578	5	0.046868	11	0	73.2558	7.43338e-06
2	1	0	1	0	0	707.901	0.569398	0.569714	0.00687445	5	0.0468936	11	0	75.8522	3.91647e-06
2	1	0	1	0	0	710.497	0.556416	0.55668	0.00315402	5	0.0469068	11	0	78.4486	1.75578e-06
2	1	0	1	0	0	713.093	0.543434	0.543753	0.0010328	5	0.0469124	11	0	81.045	5.61588e-07
2	1	0	0	0	0	715.69	0.530451	0.530773	-0.000278683	5	0.0469134	11	0	0.1997	-1.47917e-07
2	1	0	0	0	0	718.286	0.517469	0.517741	-0.000975362	5	0.0469114	11	0	2.7961	-5.04985e-07
2	1	0	1	0	0	720.883	0.504487	0.504784	-0.00153041	5	0.0469075	11	0	5.3926	-7.72526e-07
2	1	0	1	0	0	723.479	0.491505	0.491752	-0.00179464	5	0.0469024	11	0	7.989	-8.82519e-07
2	0	0	1	0	0	726.076	0.478523	0.478788	-0.00252235	5	0.0468964	11	0	10.5854	-1.20767e-06
2	0	0	1	0	0	728.672	0.465541	0.465822	-0.0027177	5	0.0468899	11	0	13.1818	-1.26596e-06
2	1	0	1	0	0	731.269	0.452558	0.452891	-0.00236555	5	0.0468829	11	0	15.7783	-1.07134e-06
2	0	0	1	0	1	733.638	0.459299	0.459571	0.000268004	6	0.0468823	11	0	1.398	1.23167e-07
2	1	0	1	0	1	736.234	0.472281	0.472588	0.00097372	6	0.046884	11	0	3.9945	4.60168e-07
2	0	0	1	0	1	738.831	0.485264	0.485595	0.000663585	6	0.0468862	11	0	6.5909	3.22233e-07
2	1	0	1	0	1	741.427	0.498246	0.498504	0.00133551	6	0.0468889	11	0	9.1874	6.65756e-07
2	1	0	1	0	1	744.024	0.511228	0.511519	0.00160919	6	0.0468927	11	0	11.7838	8.23129e-07
2	0	0	1	0	1	746.62	0.52421	0.524514	0.00225301	6	0.046898	11	0	14.3802	1.18174e-06
2	1	0	1	0	1	749.216	0.537192	0.53752	0.0037859	6	0.0469058	11	0	16.9766	2.035e-06
2	1	0	0	0	1	751.813	0.550174	0.550506	0.00516271	6	0.0469172	11	0	19.5731	2.8421e-06
2	1	0	0	0	1	754.409	0.563157	0.563503	0.00801169	6	0.0469347	11	0	22.1695	4.51461e-06
2	1	0	1	0	1	757.006	0.576139	0.57642	0.0127665	6	0.0469619	11	0	24.766	7.35889e-06
2	1	0	1	0	1	759.602	0.589121	0.58945	0.0204839	6	0.0470044	11	0	27.3624	1.20743e-05
2	1	0	1	0	1	762.199	0.602103	0.602428	0.0327499	6	0.0470719	11	0	29.9588	1.97295e-05
2	1	0	1	0	1	764.795	0.615085	0.61531	0.0514024	6	0.0471791	11	0	32.5552	3.16284e-05
2	1	0	1	0	1	767.392	0.628067	0.628391	0.0804521	6	0.047348	11	0	35.1517	5.05554e-05
2	1	0	1	0	1	769.988	0.64105	0.641309	0.124808	6	0.0476114	11	0	37.7481	8.00406e-05
2	1	0	1	0	1	772.584	0.654032	0.654319	0.18977	6	0.048015	11	0	40.3446	0.00012417
2	1	0	1	0	1	775.181	0.667014	0.667305	0.279343	6	0.0486181	11	0	42.941	0.000186407
2	1	0	1	0	1	777.777	0.679996	0.680299	0.399678	6	0.049494	11	0	45.5374	0.000271901
2	1	0	1	0	1	780.374	0.692978	0.693305	0.553338	6	0.0507246	11	0	48.1338	0.000383632
2	1	0	1	0	1	782.827	0.694726	0.695029	0.568059	6	0.052205	11	0	50.5868	0.000394818
2	1	0	1	0	1	785.423	0.681744	0.68202	0.404529	6	0.0534573	11	0	53.1832	0.000275897
2	1	0	1	0	1	788.02	0.668762	0.669043	0.279642	6	0.0543373	11	0	55.7797	0.000187092
2	1	0	1	0	1	790.616	0.655779	0.656091	0.188777	6	0.0549383	11	0	58.3761	0.000123855
2	1	0	1	0	1	793.212	0.642797	0.643125	0.1238	6	0.0553383	11	0	60.9726	7.96189e-05
2	1	0	1	0	1	795.809	0.629815	0.630077	0.0800907	6	0.055599	11	0	63.569	5.04633e-05
2	1	0	1	0	1	798.405	0.616833	0.617158	0.0503231	6	0.0557651	11	0	66.1654	3.10573e-05
2	1	0	1	0	1	801.002	0.603851	0.604162	0.0306835	6	0.0558686	11	0	68.7618	1.85378e-05
2	1	0	0	0	1	803.598	0.590868	0.591174	0.0187372	6	0.0559316	11	0	71.3583	1.10769e-05
2	1	0	0	0	1	806.195	0.577886	0.57817	0.0108593	6	0.0559683	11	0	73.9547	6.2785e-06
2	1	0	1	0	1	808.791	0.564904	0.565221	0.00541145	6	0.0559886	11	0	76.5512	3.05866e-06
2	1	0	1	0	1	811.387	0.551922	0.552215	0.00210266	6	0.0559985	11	0	79.1476	1.16112e-06
2	1	0	1	0	1	813.984	0.53894	0.539177	0.000264976	6	0.056002	11	0	81.744	1.42869e-07
2	1	0	1	0	1	816.58	0.525958	0.526243	-0.000681007	6	0.0560016	11	0	1.0984	-3.58375e-07
2	1	0	1	0	1	819.177	0.512976	0.51322	-0.0011833	6	0.0559988	11	0	3.6949	-6.07292e-07
2	1	0	1	0	1	821.773	0.499993	0.500229	-0.00163085	6	0.0559943	11	0	6.2913	-8.15799e-07
2	0	0	1	0	1	824.37	0.487011	0.487289	-0.0020172	6	0.0559886	11	0	8.8878	-9.82957e-07
2	0	0	1	0	1	826.966	0.474029	0.474293	-0.00244392	6	0.0559822	11	0	11.4842	-1.15913e-06
2	0	0	1	0	1	829.562	0.461047	0.461398	-0.00290999	6	0.0559753	11	0	14.0806	-1.34266e-06
2	0	0	1	0	0	831.932	0.450811	0.451092	-0.000187441	7	0.0559693	11	0	0.000000000000000E+000	-8.45533e-08
2	1	0	1	0	0	834.528	0.463793	0.46408	0.000518017	7	0.0559705	11	0	2.4966	2.40401e-07
2	1	0	1	0	0	837.125	0.476775	0.477078	0.000926836	7	0.0559724	11	0	5.093	4.42173e-07
2	1	0	0	0	0	839.721	0.489757	0.490074	0.00131554	7	0.0559746	11	0	7.6895	6.44711e-07
2	1	0	0	0	0	842.318	0.50274	0.502996	0.00158389	7	0.0559775	11	0	10.2859	7.96692e-07
2	1	0	1	0	0	844.914	0.515722	0.51599	0.00200453	7	0.0559815	11	0	12.8824	1.03432e-06
2	0	0	1	0	0	847.51	0.528704	0.528984	0.00246697	7	0.0559873	11	0	15.4788	1.30499e-06
2	1	0	1	0	0	850.107	0.541686	0.542025	0.0040274	7	0.0559958	11	0	18.0752	2.18295e-06
2	1	0	1	0	0	852.703	0.554668	0.554979	0.00603008	7	0.0560085	11	0	20.6716	3.34657e-06
2	1	0	1	0	0	855.3	0.56765	0.567982	0.00934809	7	0.0560285	11	0	23.2681	5.30955e-06
2	1	0	1	0	0	857.896	0.580633	0.580911	0.0151889	7	0.0560598	11	0	25.8645	8.82338e-06
2	1	0	1	0	0	860.493	0.593615	0.593923	0.0237264	7	0.0561092	11	0	28.461	1.40917e-05
2	1	0	1	0	0	863.089	0.606597	0.60694	0.0374156	7	0.0561879	11	0	31.0574	2.2709e-05
2	1	0	1	0	0	865.685	0.619579	0.619883	0.0597006	7	0.0563125	11	0	33.6538	3.70074e-05
2	1	0	1	0	0	868.282	0.632561	0.632878	0.0939165	7	0.0565086	11	0	36.2502	5.94377e-05
2	1	0	0	0	0	870.878	0.645543	0.645812	0.1443	7	0.0568135	11	0	38.8467	9.3191e-05
2	1	0	0	0	0	873.475	0.658526	0.658829	0.216601	7	0.0572773	11	0	41.4431	0.000142703
2	1	0	1	0	0	876.071	0.671508	0.671787	0.316857	7	0.0579648	11	0	44.0396	0.00021286
2	1	0	1	0	0	878.668	0.68449	0.684781	0.448618	7	0.0589525	11	0	46.636	0.000307205
2	1	0	1	0	0	881.264	0.697472	0.697754	0.613437	7	0.0603245	11	0	49.2324	0.000428028
2	1	0	1	0	0	883.717	0.690232	0.690538	0.507437	7	0.0617618	11	0	51.6854	0.000350405
2	1	0	1	0	0	886.313	0.67725	0.677538	0.357658	7	0.0628753	11	0	54.2818	0.000242326
2	1	0	1	0	0	888.91	0.664268	0.664579	0.246329	7	0.0636527	11	0	56.8782	0.000163705
2	1	0	0	0	0	891.506	0.651286	0.651625	0.163862	7	0.0641793	11	0	59.4747	0.000106777
2	1	0	0	0	0	894.103	0.638303	0.638572	0.106659	7	0.0645264	11	0	62.0711	6.81097e-05
2	1	0	1	0	0	896.699	0.625321	0.625571	0.0681753	7	0.0647502	11	0	64.6676	4.26484e-05
2	1	0	1	0	0	899.296	0.612339	0.612631	0.0429951	7	0.0648915	11	0	67.264	2.63401e-05
2	1	0	1	0	0	901.892	0.599357	0.599648	0.0257974	7	0.0649788	11	0	69.8604	1.54693e-05
2	1	0	1	0	0	904.488	0.586375	0.586675	0.0153138	7	0.065031	11	0	72.4568	8.98421e-06
2	1	0	1	0	0	907.085	0.573393	0.573701	0.00820857	7	0.065061	11	0	75.0533	4.70927e-06
2	1	0	1	0	0	909.681	0.56041	0.560666	0.00450096	7	0.0650769	11	0	77.6497	2.52353e-06
2	1	0	1	0	0	912.278	0.547428	0.547772	0.00172241	7	0.065084	11	0	80.2462	9.43488e-07
2	0	0	1	0	0	914.874	0.534446	0.534757	-0.00028861	7	0.0650859	11	0	0.000000000000000E+000	-1.54336e-07
2	1	0	1	0	0	917.471	0.521464	0.521724	-0.00102325	7	0.0650845	11	0	1.9972	-5.33853e-07
2	1	0	1	0	0	920.067	0.508482	0.508766	-0.00133147	7	0.0650809	11	0	4.5936	-6.77407e-07
2	0	0	0	0	0	922.664	0.495499	0.495794	-0.00188396	7	0.065076	11	0	7.1901	-9.34055e-07
2	0	0	0	0	0	925.26	0.482517	0.482791	-0.00260658	7	0.0650702	11	0	9.7865	-1.25843e-06
2	0	0	1	0	0	927.856	0.469535	0.469742	-0.00282603	7	0.0650637	11	0	12.383	-1.32751e-06
2	0	0	1	0	0	930.453	0.456553	0.456843	-0.00235627	7	0.0650568	11	0	14.9794	-1.07644e-06
2	0	0	0	0	1	932.822	0.455305	0.455533	7.94485e-05	8	0.0650535	11	0	0.7989	3.61914e-08
2	1	0	1	0	1	935.419	0.468287	0.468558	0.000942082	8	0.0650549	11	0	3.3954	4.4142e-07
2	0	0	1	0	1	938.015	0.481269	0.481541	0.000636207	8	0.0650568	11	0	5.9918	3.0636e-07
2	0	0	1	0	1	940.611	0.494251	0.494463	0.000787147	8	0.0650593	11	0	8.5882	3.89215e-07
2	1	0	1	0	1	943.208	0.507233	0.507503	0.00171431	8	0.0650627	11	0	11.1847	8.7002e-07
2	1	0	1	0	1	945.804	0.520216	0.520511	0.00233451	8	0.0650674	11	0	13.7811	1.21514e-06
2	1	0	1	0	1	948.401	0.533198	0.533474	0.0028208	8	0.065074	11	0	16.3776	1.50482e-06
2	1	0	1	0	1	950.997	0.54618	0.546438	0.00415434	8	0.0650837	11	0	18.974	2.27009e-06
2	1	0	1	0	1	953.594	0.559162	0.559426	0.00709242	8	0.0650985	11	0	21.5704	3.96768e-06
2	1	0	1	0	1	956.19	0.572144	0.57243	0.0109394	8	0.0651214	11	0	24.1668	6.26207e-06
2	1	0	0	0	1	958.787	0.585126	0.585473	0.0170553	8	0.0651576	11	0	26.7633	9.98543e-06
2	1	0	0	0	1	961.383	0.598109	0.598428	0.0279019	8	0.0652151	11	0	29.3597	1.66973e-05
2	1	0	1	0	1	963.979	0.611091	0.61138	0.0439049	8	0.0653067	11	0	31.9562	2.68426e-05
2	1	0	1	0	1	966.576	0.624073	0.62435	0.0695924	8	0.0654522	11	0	34.5526	4.345e-05
2	1	0	1	0	1	969.172	0.637055	0.637307	0.109055	8	0.0656807	11	0	37.149	6.95017e-05
2	1	0	1	0	1	971.769	0.650037	0.650317	0.166238	8	0.0660339	11	0	39.7454	0.000108107
2	1	0	1	0	1	974.365	0.663019	0.663243	0.248339	8	0.0665672	11	0	42.3419	0.000164709
2	1	0	1	0	1	976.962	0.676002	0.676336	0.359584	8	0.0673499	11	0	44.9383	0.0002432
2	1	0	1	0	1	979.558	0.688984	0.689246	0.50185	8	0.0684621	11	0	47.5348	0.000345898
2	1	0	0	0	1	982.011	0.69872	0.699037	0.629274	8	0.0698873	11	0	49.9877	0.000439886
2	1	0	0	0	1	984.607	0.685738	0.686067	0.451266	8	0.0712792	11	0	52.5841	0.000309598
2	1	0	1	0	1	987.204	0.672756	0.672974	0.314336	8	0.0722636	11	0	55.1806	0.00021154
2	1	0	1	0	1	989.8	0.659774	0.660096	0.212906	8	0.0729412	11	0	57.777	0.000140538
2	1	0	1	0	1	992.397	0.646792	0.647148	0.141478	8	0.0733953	11	0	60.3734	9.15569e-05
2	1	0	1	0	1	994.993	0.633809	0.634048	0.0914807	8	0.0736926	11	0	62.9699	5.80031e-05
2	1	0	1	0	1	997.59	0.620827	0.621165	0.0574851	8	0.0738833	11	0	65.5663	3.57077e-05
2	1	0	1	0	1	1000.19	0.607845	0.608103	0.0359002	8	0.0740026	11	0	68.1628	2.1831e-05
2	1	0	1	0	1	1002.78	0.594863	0.595195	0.0213175	8	0.0740754	11	0	70.7592	1.26881e-05
2	1	0	1	0	1	1005.38	0.581881	0.582089	0.0125478	8	0.0741183	11	0	73.3556	7.30391e-06
2	1	0	1	0	1	1007.98	0.568899	0.569259	0.00648597	8	0.0741422	11	0	75.952	3.6922e-06
2	1	0	0	0	1	1010.57	0.555916	0.556226	0.00312477	8	0.0741543	11	0	78.5485	1.73808e-06
2	1	0	0	0	1	1013.17	0.542934	0.543263	0.00123773	8	0.0741592	11	0	81.1449	6.72412e-07
2	0	0	1	0	1	1015.76	0.529952	0.530193	-0.000645738	8	0.0741598	11	0	0.5992	-3.42366e-07
2	1	0	1	0	1	1018.36	0.51697	0.517283	-0.00133465	8	0.0741575	11	0	3.1956	-6.9039e-07
2	1	0	1	0	1	1020.96	0.503988	0.504279	-0.00148088	8	0.0741533	11	0	5.792	-7.46779e-07
2	0	0	1	0	1	1023.55	0.491006	0.491298	-0.00212562	8	0.074148	11	0	8.3884	-1.04431e-06
2	0	0	1	0	1	1026.15	0.478023	0.478317	-0.00284634	8	0.0741418	11	0	10.9849	-1.36145e-06
2	0	0	1	0	1	1028.75	0.465041	0.465308	-0.00286284	8	0.0741351	11	0	13.5813	-1.3321e-06
2	0	0	1	0	1	1031.34	0.452059	0.45233	-0.00265694	8	0.0741279	11	0	16.1778	-1.20181e-06
2	1	0	1	0	0	1033.71	0.459798	0.460021	0.000797689	9	0.0741274	11	0	0.8988	3.66954e-07
2	0	0	1	0	0	1036.31	0.472781	0.473049	0.00062735	9	0.074129	11	0	3.4952	2.96767e-07
2	0	0	1	0	0	1038.91	0.485763	0.486014	0.000521752	9	0.0741312	11	0	6.0917	2.53579e-07
2	0	0	1	0	0	1041.5	0.498745	0.499029	0.000966953	9	0.0741339	11	0	8.6881	4.82538e-07
2	1	0	1	0	0	1044.1	0.511727	0.512023	0.00170617	9	0.0741377	11	0	11.2845	8.73601e-07
2	1	0	0	0	0	1046.69	0.524709	0.525027	0.00249182	9	0.0741427	11	0	13.881	1.30827e-06
2	1	0	0	0	0	1049.29	0.537692	0.537965	0.00343313	9	0.0741502	11	0	16.4774	1.84691e-06
2	1	0	1	0	0	1051.89	0.550674	0.551005	0.00499358	9	0.0741611	11	0	19.0739	2.75149e-06
2	1	0	1	0	0	1054.48	0.563656	0.563973	0.00823228	9	0.074178	11	0	21.6703	4.64278e-06
2	1	0	1	0	0	1057.08	0.576638	0.576921	0.0124241	9	0.0742045	11	0	24.2667	7.16772e-06
2	1	0	1	0	0	1059.68	0.58962	0.589907	0.020363	9	0.0742465	11	0	26.8631	1.20123e-05
2	1	0	1	0	0	1062.27	0.602602	0.602891	0.0321678	9	0.0743136	11	0	29.4596	1.93937e-05
2	1	0	1	0	0	1064.87	0.615584	0.615874	0.0513508	9	0.0744207	11	0	32.056	3.16256e-05
2	1	0	1	0	0	1067.47	0.628567	0.628874	0.081448	9	0.0745904	11	0	34.6525	5.12205e-05
2	1	0	1	0	0	1070.06	0.641549	0.641841	0.125948	9	0.0748562	11	0	37.2489	8.08387e-05
2	1	0	1	0	0	1072.66	0.654531	0.654835	0.192169	9	0.0752646	11	0	39.8453	0.000125839
2	1	0	1	0	0	1075.26	0.667513	0.667782	0.283169	9	0.0758757	11	0	42.4417	0.000189095
2	1	0	0	0	0	1077.85	0.680495	0.680794	0.404331	9	0.0767628	11	0	45.0382	0.000275266
2	1	0	0	0	0	1080.45	0.693478	0.693742	0.559233	9	0.0780075	11	0	47.6346	0.000387963
2	1	0	1	0	0	1082.9	0.694227	0.694523	0.562759	9	0.0794889	11	0	50.0876	0.000390849
2	1	0	1	0	0	1085.5	0.681244	0.681586	0.399668	9	0.0807284	11	0	52.684	0.000272408
2	1	0	1	0	0	1088.09	0.668262	0.668599	0.276232	9	0.0815975	11	0	55.2805	0.000184688
2	1	0	1	0	0	1090.69	0.65528	0.655564	0.186574	9	0.0821916	11	0	57.8769	0.000122311
2	1	0	1	0	0	1093.29	0.642298	0.642588	0.122638	9	0.0825871	11	0	60.4733	7.8806e-05
2	1	0	1	0	0	1095.88	0.629316	0.629634	0.0783394	9	0.0828437	11	0	63.0697	4.93252e-05
2	1	0	0	0	0	1098.48	0.616333	0.616654	0.0495314	9	0.0830069	11	0	65.6662	3.05438e-05
2	1	0	0	0	0	1101.08	0.603351	0.603657	0.0300907	9	0.0831083	11	0	68.2626	1.81645e-05
2	1	0	1	0	0	1103.67	0.590369	0.590709	0.0177432	9	0.0831694	11	0	70.8591	1.04811e-05
2	1	0	1	0	0	1106.27	0.577387	0.577672	0.0103435	9	0.0832047	11	0	73.4555	5.97513e-06
2	1	0	1	0	0	1108.87	0.564405	0.564723	0.00487821	9	0.0832238	11	0	76.0519	2.75484e-06
2	1	0	1	0	0	1111.46	0.551423	0.55171	0.00209644	9	0.083233	11	0	78.6483	1.15663e-06
2	1	0	1	0	0	1114.06	0.538441	0.538758	0.000748542	9	0.0832361	11	0	81.2448	4.03283e-07
2	1	0	1	0	0	1116.65	0.525458	0.525758	-0.000767058	9	0.0832353	11	0	1.2982	-4.03287e-07
2	0	0	1	0	0	1119.25	0.512476	0.512749	-0.00174909	9	0.0832323	11	0	3.8947	-8.96841e-07
2	0	0	1	0	0	1121.85	0.499494	0.499782	-0.00178916	9	0.0832277	11	0	6.4911	-8.9419e-07
2	0	0	1	0	0	1124.44	0.486512	0.486798	-0.00211621	9	0.083222	11	0	9.0875	-1.03017e-06
2	0	0	1	0	0	1127.04	0.47353	0.473838	-0.00281608	9	0.0832157	11	0	11.6839	-1.33437e-06
2	0	0	0	0	0	1129.64	0.460547	0.460842	-0.00251852	9	0.0832089	11	0	14.2804	-1.16064e-06
2	1	0	1	0	1	1132.01	0.45131	0.451634	0.000492691	10	0.0832033	11	0	0.000000000000000E+000	2.22516e-07
2	0	0	0	0	1	1134.6	0.464292	0.464585	0.000339229	10	0.0832045	11	0	2.2969	1.57601e-07
2	0	0	0	0	1	1137.2	0.477275	0.477557	0.000514965	10	0.0832064	11	0	4.8933	2.45925e-07
2	1	0	1	0	1	1139.8	0.490257	0.490537	0.00120209	10	0.0832087	11	0	7.4898	5.8967e-07
2	1	0	1	0	1	1142.39	0.503239	0.503507	0.00154746	10	0.0832118	11	0	10.0862	7.79159e-07
2	0	0	1	0	1	1144.99	0.516221	0.516507	0.00168475	10	0.0832159	11	0	12.6826	8.70186e-07
2	0	0	1	0	1	1147.59	0.529203	0.529504	0.00233612	10	0.0832218	11	0	15.279	1.23698e-06
2	1	0	1	0	1	1150.18	0.542185	0.542503	0.00377038	10	0.0832303	11	0	17.8755	2.04545e-06
2	1	0	1	0	1	1152.78	0.555168	0.555455	0.00621322	10	0.083243	11	0	20.4719	3.45116e-06
2	1	0	1	0	1	1155.37	0.56815	0.568453	0.00962552	10	0.0832626	11	0	23.0684	5.47165e-06
2	1	0	1	0	1	1157.97	0.581132	0.58147	0.0145497	10	0.0832935	11	0	25.6648	8.46023e-06
2	1	0	1	0	1	1160.57	0.594114	0.594384	0.0238266	10	0.0833427	11	0	28.2612	1.41622e-05
2	1	0	1	0	1	1163.16	0.607096	0.6074	0.0381119	10	0.0834213	11	0	30.8576	2.31492e-05
2	1	0	0	0	1	1165.76	0.620078	0.620424	0.0601641	10	0.0835468	11	0	33.4541	3.73273e-05
2	1	0	0	0	1	1168.36	0.633061	0.633407	0.0947265	10	0.0837457	11	0	36.0505	6.00005e-05
2	1	0	1	0	1	1170.95	0.646043	0.646392	0.14658	10	0.0840556	11	0	38.647	9.47483e-05
2	1	0	1	0	1	1173.55	0.659025	0.659327	0.220773	10	0.0845276	11	0	41.2434	0.000145561
2	1	0	1	0	1	1176.15	0.672007	0.672333	0.32259	10	0.0852268	11	0	43.8398	0.000216888
2	1	0	1	0	1	1178.74	0.684989	0.685277	0.456069	10	0.0862304	11	0	46.4362	0.000312534
2	1	0	1	0	1	1181.34	0.697971	0.698244	0.621969	10	0.0876232	11	0	49.0327	0.000434286
2	1	0	1	0	1	1183.79	0.689733	0.690005	0.501359	10	0.0890524	11	0	51.4856	0.000345941
2	1	0	0	0	1	1186.39	0.676751	0.67702	0.353232	10	0.0901517	11	0	54.0821	0.000239145
2	1	0	0	0	1	1188.98	0.663768	0.664078	0.241868	10	0.0909161	11	0	56.6785	0.000160619
2	1	0	1	0	1	1191.58	0.650786	0.651067	0.161257	10	0.091433	11	0	59.275	0.000104989
2	1	0	1	0	1	1194.18	0.637804	0.638115	0.104941	10	0.0917738	11	0	61.8714	6.69643e-05
2	1	0	1	0	1	1196.77	0.624822	0.625149	0.0668746	10	0.091994	11	0	64.4678	4.18066e-05
2	1	0	1	0	1	1199.37	0.61184	0.612123	0.0414218	10	0.0921327	11	0	67.0642	2.53552e-05
2	1	0	1	0	1	1201.97	0.598858	0.599167	0.0249922	10	0.0922179	11	0	69.6607	1.49745e-05
2	1	0	1	0	1	1204.56	0.585875	0.586146	0.0145889	10	0.0922683	11	0	72.2571	8.55123e-06
2	1	0	1	0	1	1207.16	0.572893	0.573201	0.00829275	10	0.0922969	11	0	74.8536	4.75341e-06
2	1	0	1	0	1	1209.76	0.559911	0.560229	0.00405281	10	0.0923118	11	0	77.45	2.2705e-06
2	1	0	1	0	1	1212.35	0.546929	0.547233	0.00122818	10	0.0923183	11	0	80.0464	6.72103e-07
2	0	0	1	0	1	1214.95	0.533947	0.534261	-0.00029588	10	0.0923197	11	0	0.000000000000000E+000	-1.58077e-07
2	1	0	0	0	1	1217.55	0.520964	0.52125	-0.000785774	10	0.0923181	11	0	2.2969	-4.09584e-07
2	1	0	0	0	1	1220.14	0.507982	0.508296	-0.00145335	10	0.0923146	11	0	4.8933	-7.38731e-07
2	0	0	1	0	1	1222.74	0.495	0.495315	-0.00231301	10	0.0923097	11	0	7.4898	-1.14567e-06
2	0	0	1	0	1	1225.33	0.482018	0.482288	-0.00234447	10	0.0923039	11	0	10.0862	-1.13071e-06
2	1	0	1	0	1	1227.93	0.469036	0.469334	-0.0022642	10	0.0922975	11	0	12.6826	-1.06267e-06
2	0	0	1	0	1	1230.53	0.456054	0.456368	-0.00285304	10	0.0922905	11	0	15.279	-1.30203e-06
2	1	0	1	0	0	1232.9	0.455804	0.456116	0.000378549	11	0.0922876	11	0	0.8988	1.72662e-07
2	1	0	1	0	0	1235.49	0.468786	0.469056	0.00086549	11	0.0922891	11	0	3.4952	4.05963e-07
2	1	0	1	0	0	1238.09	0.481768	0.482047	0.0010866	11	0.0922913	11	0	6.0917	5.23793e-07
2	1	0	1	0	0	1240.69	0.494751	0.495039	0.000892225	11	0.0922939	11	0	8.6881	4.41686e-07
2	1	0	1	0	0	1243.28	0.507733	0.508033	0.00133381	11	0.0922973	11	0	11.2846	6.77619e-07
2	1	0	1	0	0	1245.88	0.520715	0.521003	0.00225109	11	0.0923019	11	0	13.881	1.17282e-06
2	1	0	1	0	0	1248.48	0.533697	0.533994	0.00268101	11	0.0923083	11	0	16.4774	1.43164e-06
2	1	0	1	0	0	1251.07	0.546679	0.54698	0.00451147	11	0.0923177	11	0	19.0738	2.46768e-06
2	1	0	0	0	0	1253.67	0.559661	0.559976	0.00682236	11	0.0923322	11	0	21.6703	3.82036e-06
2	1	0	0	0	0	1256.26	0.572644	0.572963	0.0107233	11	0.0923549	11	0	24.2667	6.14403e-06
2	1	0	1	0	0	1258.86	0.585626	0.585849	0.0174358	11	0.092391	11	0	26.8632	1.02147e-05
2	1	0	1	0	0	1261.46	0.598608	0.598891	0.0276185	11	0.0924486	11	0	29.4596	1.65405e-05
2	1	0	1	0	0	1264.05	0.61159	0.611933	0.0447753	11	0.0925411	11	0	32.056	2.73994e-05
2	1	0	1	0	0	1266.65	0.624572	0.62489	0.070669	11	0.0926884	11	0	34.6524	4.41604e-05
2	1	0	1	0	0	1269.25	0.637554	0.637835	0.1108	11	0.0929209	11	0	37.2489	7.06719e-05
2	1	0	1	0	0	1271.84	0.650537	0.650878	0.169807	11	0.0932809	11	0	39.8453	0.000110524
2	1	0	1	0	0	1274.44	0.663519	0.663846	0.253131	11	0.0938247	11	0	42.4418	0.00016804
2	1	0	1	0	0	1277.04	0.676501	0.67682	0.365925	11	0.0946221	11	0	45.0382	0.000247665
2	1	0	1	0	0	1279.63	0.689483	0.689786	0.510268	11	0.0957534	11	0	47.6346	0.000351976
2	1	0	1	0	0	1282.09	0.698221	0.698502	0.621774	11	0.0971929	11	0	50.0876	0.00043431
2	1	0	1	0	0	1284.68	0.685239	0.685527	0.446353	11	0.0985683	11	0	52.684	0.000305987
2	1	0	1	0	0	1287.28	0.672257	0.672587	0.312869	11	0.0995462	11	0	55.2804	0.000210431
2	1	0	1	0	0	1289.87	0.659274	0.65956	0.2116	11	0.10022	11	0	57.8769	0.000139563
2	1	0	1	0	0	1292.47	0.646292	0.646596	0.140701	11	0.100671	11	0	60.4733	9.09764e-05
2	1	0	1	0	0	1295.07	0.63331	0.633642	0.0906647	11	0.100967	11	0	63.0697	5.74489e-05
2	1	0	1	0	0	1297.66	0.620328	0.620607	0.0572892	11	0.101156	11	0	65.6662	3.55541e-05
2	1	0	1	0	0	1300.26	0.607346	0.607699	0.0355664	11	0.101274	11	0	68.2626	2.16137e-05
2	1	0	1	0	0	1302.86	0.594364	0.594693	0.0207957	11	0.101345	11	0	70.859	1.23671e-05
2	1	0	0	0	0	1305.45	0.581381	0.581722	0.0121535	11	0.101387	11	0	73.4555	7.06997e-06
2	1	0	0	0	0	1308.05	0.568399	0.568713	0.00659564	11	0.101411	11	0	76.0519	3.75103e-06
2	1	0	1	0	0	1310.65	0.555417	0.555744	0.00255655	11	0.101422	11	0	78.6484	1.42079e-06
2	1	0	1	0	0	1313.24	0.542435	0.542754	0.000945743	11	0.101427	11	0	81.2448	5.13306e-07
2	0	0	1	0	0	1315.84	0.529453	0.529777	-0.0007678	11	0.101427	11	0	0.5992	-4.06763e-07
2	0	0	1	0	0	1318.44	0.516471	0.516748	-0.00106746	11	0.101424	11	0	3.1956	-5.5161e-07
2	0	0	1	0	0	1321.03	0.503488	0.503792	-0.00193811	11	0.10142	11	0	5.7921	-9.76406e-07
2	0	0	1	0	0	1323.63	0.490506	0.490761	-0.00198269	11	0.101415	11	0	8.3885	-9.73029e-07
2	0	0	1	0	0	1326.23	0.477524	0.477794	-0.00256925	11	0.101409	11	0	10.985	-1.22757e-06
2	0	0	1	0	0	1328.82	0.464542	0.464743	-0.00237309	11	0.101402	11	0	13.5814	-1.10288e-06
2	0	0	1	0	0	1331.42	0.45156	0.451838	-0.00305595	11	0.101395	11	0	16.1778	-1.38079e-06
2	0	0	1	0	1	1333.79	0.460298	0.46061	0.000639627	12	0.101395	11	0	1.498	2.94619e-07
2	0	0	1	0	1	1336.38	0.47328	0.473568	0.000831225	12	0.101397	11	0	4.0944	3.93642e-07
2	1	0	1	0	1	1338.98	0.486262	0.486523	0.00101945	12	0.101399	11	0	6.6908	4.95988e-07
2	1	0	1	0	1	1341.58	0.499244	0.499513	0.00140947	12	0.101402	11	0	9.2872	7.04048e-07
2	1	0	0	0	1	1344.17	0.512227	0.512464	0.00163282	12	0.101405	11	0	11.8837	8.36762e-07
2	1	0	0	0	1	1346.77	0.525209	0.525495	0.00197534	12	0.10141	11	0	14.4801	1.03803e-06
2	1	0	1	0	1	1349.37	0.538191	0.538512	0.0032028	12	0.101417	11	0	17.0766	1.72474e-06
2	1	0	1	0	1	1351.96	0.551173	0.551484	0.00540698	12	0.101428	11	0	19.673	2.98186e-06
2	1	0	1	0	1	1354.56	0.564155	0.564528	0.00794925	12	0.101445	11	0	22.2694	4.48757e-06
2	1	0	1	0	1	1357.16	0.577137	0.577438	0.0125135	12	0.101472	11	0	24.8659	7.2258e-06
2	1	0	1	0	1	1359.75	0.590119	0.590446	0.0205973	12	0.101514	11	0	27.4623	1.21616e-05
2	1	0	1	0	1	1362.35	0.603102	0.603419	0.0323073	12	0.101581	11	0	30.0588	1.94948e-05
2	1	0	1	0	1	1364.94	0.616084	0.616384	0.0525452	12	0.10169	11	0	32.6552	3.2388e-05
2	1	0	1	0	1	1367.54	0.629066	0.629359	0.0828697	12	0.101863	11	0	35.2516	5.21548e-05
2	1	0	1	0	1	1370.14	0.642048	0.642325	0.129305	12	0.102135	11	0	37.848	8.30556e-05
2	1	0	0	0	1	1372.73	0.65503	0.655343	0.196045	12	0.102553	11	0	40.4445	0.000128477
2	1	0	0	0	1	1375.33	0.668012	0.668317	0.289084	12	0.103177	11	0	43.0409	0.0001932
2	1	0	1	0	1	1377.93	0.680995	0.681327	0.412458	12	0.104082	11	0	45.6374	0.000281018
2	1	0	1	0	1	1380.52	0.693977	0.69429	0.567991	12	0.105348	11	0	48.2338	0.000394351
2	1	0	1	0	1	1382.98	0.693727	0.694064	0.557944	12	0.106836	11	0	50.6867	0.000387249
2	1	0	1	0	1	1385.57	0.680745	0.681055	0.396062	12	0.108064	11	0	53.2832	0.00026974
2	1	0	1	0	1	1388.17	0.667763	0.668031	0.27462	12	0.108926	11	0	55.8796	0.000183455
2	1	0	1	0	1	1390.77	0.654781	0.655114	0.18468	12	0.109516	11	0	58.476	0.000120986
2	1	0	0	0	1	1393.36	0.641799	0.642097	0.121582	12	0.109908	11	0	61.0725	7.80672e-05
2	1	0	0	0	1	1395.96	0.628816	0.629123	0.0776574	12	0.110163	11	0	63.6689	4.8856e-05
2	1	0	1	0	1	1398.55	0.615834	0.616115	0.0486734	12	0.110324	11	0	66.2654	2.99884e-05
2	1	0	1	0	1	1401.15	0.602852	0.603145	0.0296517	12	0.110424	11	0	68.8618	1.78843e-05
2	1	0	1	0	1	1403.75	0.58987	0.590168	0.0171386	12	0.110483	11	0	71.4582	1.01146e-05
2	1	0	1	0	1	1406.34	0.576888	0.577135	0.00998789	12	0.110517	11	0	74.0546	5.76435e-06
2	1	0	1	0	1	1408.94	0.563906	0.564189	0.00463875	12	0.110535	11	0	76.6511	2.61713e-06
2	1	0	1	0	1	1411.54	0.550923	0.551228	0.00189941	12	0.110544	11	0	79.2475	1.04701e-06
2	1	0	1	0	1	1414.13	0.537941	0.538235	0.000560852	12	0.110546	11	0	0.000000000000000E+000	3.0187e-07
2	0	0	1	0	1	1416.73	0.524959	0.525257	-0.00112538	12	0.110545	11	0	1.7976	-5.91114e-07
2	0	0	1	0	1	1419.33	0.511977	0.512282	-0.00140871	12	0.110542	11	0	4.394	-7.21655e-07
2	0	0	1	0	1	1421.92	0.498995	0.499263	-0.00165544	12	0.110538	11	0	6.9904	-8.26501e-07
2	0	0	0	0	1	1424.52	0.486013	0.48632	-0.00239731	12	0.110532	11	0	9.5869	-1.16586e-06
2	0	0	0	0	1	1427.12	0.47303	0.47328	-0.00278172	12	0.110526	11	0	12.1833	-1.31653e-06
2	0	0	1	0	1	1429.71	0.460048	0.460321	-0.00255857	12	0.110519	11	0	14.7798	-1.17777e-06
2	1	0	0	0	0	1432.08	0.451809	0.452154	0.000523733	13	0.110514	11	0	0.000000000000000E+000	2.36808e-07
2	0	0	0	0	0	1434.68	0.464792	0.465056	0.000414887	13	0.110515	11	0	2.2968	1.92945e-07
2	0	0	1	0	0	1437.27	0.477774	0.478044	0.000405948	13	0.110517	11	0	4.8933	1.94061e-07
2	0	0	1	0	0	1439.87	0.490756	0.491044	0.000937643	13	0.110519	11	0	7.4897	4.60424e-07
2	1	0	1	0	0	1442.47	0.503738	0.504055	0.00159303	13	0.110522	11	0	10.0861	8.02976e-07
2	1	0	1	0	0	1445.06	0.51672	0.517011	0.001774	13	0.110526	11	0	12.6826	9.17176e-07
2	1	0	1	0	0	1447.66	0.529702	0.530033	0.00228116	13	0.110532	11	0	15.279	1.20909e-06
2	1	0	1	0	0	1450.26	0.542685	0.542951	0.00391739	13	0.11054	11	0	17.8755	2.12695e-06
2	1	0	1	0	0	1452.85	0.555667	0.556013	0.00613065	13	0.110552	11	0	20.4719	3.40872e-06
2	1	0	1	0	0	1455.45	0.568649	0.568966	0.00895101	13	0.110572	11	0	23.0683	5.09282e-06
2	1	0	1	0	0	1458.05	0.581631	0.581922	0.0150495	13	0.110603	11	0	25.6647	8.75766e-06
2	1	0	0	0	0	1460.64	0.594613	0.594867	0.0237432	13	0.110652	11	0	28.2612	1.41241e-05
2	1	0	0	0	0	1463.24	0.607596	0.607874	0.0386355	13	0.110732	11	0	30.8576	2.34855e-05
2	1	0	1	0	0	1465.83	0.620578	0.620897	0.0616202	13	0.11086	11	0	33.4541	3.82598e-05
2	1	0	1	0	0	1468.43	0.63356	0.633858	0.0973225	13	0.111064	11	0	36.0505	6.16886e-05
2	1	0	1	0	0	1471.03	0.646542	0.646859	0.150166	13	0.111381	11	0	38.6469	9.71366e-05
2	1	0	1	0	0	1473.62	0.659524	0.659823	0.22645	13	0.111865	11	0	41.2433	0.000149417
2	1	0	1	0	0	1476.22	0.672506	0.672785	0.329705	13	0.112581	11	0	43.8398	0.00022182
2	1	0	1	0	0	1478.82	0.685489	0.685857	0.464247	13	0.113606	11	0	46.4362	0.000318407
2	1	0	1	0	0	1481.41	0.698471	0.698789	0.631194	13	0.115022	11	0	49.0327	0.000441071
2	1	0	0	0	0	1483.87	0.689233	0.689592	0.498102	13	0.116445	11	0	51.4856	0.000343487
2	1	0	0	0	0	1486.46	0.676251	0.676566	0.350744	13	0.117538	11	0	54.082	0.000237301
2	1	0	1	0	0	1489.06	0.663269	0.663564	0.241376	13	0.118298	11	0	56.6785	0.000160168
2	1	0	1	0	0	1491.66	0.650287	0.650574	0.161773	13	0.118815	11	0	59.2749	0.000105245
2	1	0	1	0	0	1494.25	0.637305	0.637631	0.105456	13	0.119158	11	0	61.8713	6.7242e-05
2	1	0	1	0	0	1496.85	0.624323	0.624625	0.0674538	13	0.119378	11	0	64.4678	4.21333e-05
2	1	0	1	0	0	1499.44	0.61134	0.611641	0.0414362	13	0.119517	11	0	67.0642	2.53441e-05
2	1	0	1	0	0	1502.04	0.598358	0.598662	0.0251653	13	0.119602	11	0	69.6606	1.50655e-05
2	1	0	1	0	0	1504.64	0.585376	0.585689	0.0146808	13	0.119652	11	0	72.2571	8.59837e-06
2	1	0	1	0	0	1507.23	0.572394	0.572722	0.00747632	13	0.11968	11	0	74.8535	4.28185e-06
2	1	0	1	0	0	1509.83	0.559412	0.559795	0.00379548	13	0.119695	11	0	77.4499	2.12469e-06
2	1	0	0	0	0	1512.43	0.546429	0.546724	0.00146821	13	0.119701	11	0	80.0464	8.02706e-07
2	0	0	0	0	0	1515.02	0.533447	0.533745	-0.000483892	13	0.119702	11	0	0.000000000000000E+000	-2.58275e-07
2	1	0	1	0	0	1517.62	0.520465	0.520774	-0.000977694	13	0.1197	11	0	2.5965	-5.09158e-07
2	0	0	1	0	0	1520.22	0.507483	0.507775	-0.00150404	13	0.119696	11	0	5.1929	-7.63715e-07
2	0	0	1	0	0	1522.81	0.494501	0.494781	-0.00241236	13	0.119691	11	0	7.7893	-1.19359e-06
2	0	0	1	0	0	1525.41	0.481519	0.481829	-0.00234806	13	0.119685	11	0	10.3857	-1.13136e-06
2	1	0	1	0	0	1528.01	0.468537	0.468799	-0.00220396	13	0.119679	11	0	12.9822	-1.03322e-06
2	0	0	1	0	0	1530.6	0.455554	0.455827	-0.00270597	13	0.119672	11	0	15.5786	-1.23346e-06
2	0	0	1	0	1	1532.97	0.456303	0.456606	9.24637e-05	14	0.119669	11	0	0.9986	4.22195e-08
2	0	0	1	0	1	1535.57	0.469285	0.46957	0.000438555	14	0.119671	11	0	3.5951	2.05932e-07
2	1	0	1	0	1	1538.16	0.482268	0.482547	0.00098748	14	0.119673	11	0	6.1915	4.76505e-07
2	0	0	1	0	1	1540.76	0.49525	0.495569	0.000940279	14	0.119675	11	0	8.788	4.65973e-07
2	0	0	1	0	1	1543.36	0.508232	0.508501	0.00142855	14	0.119678	11	0	11.3844	7.26417e-07
2	1	0	1	0	1	1545.95	0.521214	0.521478	0.00184441	14	0.119683	11	0	13.9808	9.61818e-07
2	1	0	0	0	1	1548.55	0.534196	0.534494	0.00315277	14	0.119689	11	0	16.5773	1.68514e-06
2	1	0	0	0	1	1551.15	0.547179	0.547466	0.00416872	14	0.119699	11	0	19.1737	2.28223e-06
2	1	0	1	0	1	1553.74	0.560161	0.560487	0.00678222	14	0.119713	11	0	21.7702	3.80135e-06
2	1	0	1	0	1	1556.34	0.573143	0.573496	0.0111532	14	0.119736	11	0	24.3666	6.3963e-06
2	1	0	1	0	1	1558.94	0.586125	0.586431	0.0175152	14	0.119772	11	0	26.963	1.02714e-05
2	1	0	1	0	1	1561.53	0.599107	0.599458	0.0278805	14	0.11983	11	0	29.5594	1.67132e-05
2	1	0	1	0	1	1564.13	0.612089	0.612417	0.0452951	14	0.119924	11	0	32.1559	2.77395e-05
2	1	0	1	0	1	1566.73	0.625071	0.625377	0.0728685	14	0.120075	11	0	34.7523	4.55703e-05
2	1	0	1	0	1	1569.32	0.638054	0.638372	0.114122	14	0.120314	11	0	37.3488	7.28521e-05
2	1	0	1	0	1	1571.92	0.651036	0.651378	0.174306	14	0.120684	11	0	39.9452	0.000113539
2	1	0	1	0	1	1574.51	0.664018	0.664399	0.258922	14	0.121241	11	0	42.5416	0.000172028
2	1	0	1	0	1	1577.11	0.677	0.677303	0.373457	14	0.122056	11	0	45.138	0.000252944
2	1	0	0	0	1	1579.71	0.689982	0.69034	0.519009	14	0.123208	11	0	47.7345	0.000358292
2	1	0	1	0	1	1582.16	0.697722	0.698125	0.616805	14	0.124665	11	0	50.1874	0.000430607
2	1	0	1	0	1	1584.76	0.68474	0.685055	0.443279	14	0.126031	11	0	52.7839	0.000303671
2	1	0	1	0	1	1587.35	0.671757	0.672021	0.310548	14	0.127001	11	0	55.3803	0.000208695
2	1	0	1	0	1	1589.95	0.658775	0.659039	0.210607	14	0.12767	11	0	57.9767	0.000138798
2	1	0	1	0	1	1592.55	0.645793	0.646123	0.13929	14	0.128119	11	0	60.5732	8.99983e-05
2	1	0	1	0	1	1595.14	0.632811	0.633078	0.0903092	14	0.128413	11	0	63.1696	5.71727e-05
2	1	0	1	0	1	1597.74	0.619829	0.620124	0.0569104	14	0.128602	11	0	65.766	3.52915e-05
2	1	0	0	0	1	1600.34	0.606847	0.607143	0.0350336	14	0.128719	11	0	68.3625	2.12704e-05
2	1	0	0	0	1	1602.93	0.593864	0.594158	0.0207655	14	0.12879	11	0	70.9589	1.2338e-05
2	1	0	1	0	1	1605.53	0.580882	0.581151	0.0116183	14	0.128831	11	0	73.5554	6.75202e-06
2	1	0	1	0	1	1608.12	0.5679	0.568234	0.00595863	14	0.128853	11	0	76.1518	3.3859e-06
2	1	0	1	0	1	1610.72	0.554918	0.555191	0.00244368	14	0.128864	11	0	78.7482	1.35671e-06
2	0	0	1	0	1	1613.32	0.541936	0.54228	0.000463143	14	0.128868	11	0	81.3446	2.51153e-07
2	1	0	1	0	1	1615.91	0.528954	0.529214	-0.000542323	14	0.128868	11	0	0.9987	-2.87005e-07
2	1	0	1	0	1	1618.51	0.515971	0.516221	-0.00102782	14	0.128865	11	0	3.5951	-5.30585e-07
2	0	0	1	0	1	1621.11	0.502989	0.503255	-0.00168684	14	0.128861	11	0	6.1916	-8.48908e-07
2	0	0	1	0	1	1623.7	0.490007	0.490299	-0.00240197	14	0.128856	11	0	8.788	-1.17768e-06
2	0	0	1	0	1	1626.3	0.477025	0.477299	-0.00225382	14	0.12885	11	0	11.3844	-1.07575e-06
2	0	0	1	0	1	1628.9	0.464043	0.464317	-0.0023186	14	0.128844	11	0	13.9808	-1.07656e-06
2	0	0	0	0	1	1631.49	0.45106	0.451351	-0.00298376	14	0.128837	11	0	16.5773	-1.34672e-06
2	1	0	1	0	0	1633.86	0.460797	0.461087	0.000702729	15	0.128837	11	0	1.7975	3.24019e-07
2	1	0	0	0	0	1636.46	0.473779	0.474024	0.000570301	15	0.128839	11	0	4.394	2.70336e-07
2	0	0	0	0	0	1639.05	0.486761	0.487011	0.00104615	15	0.128841	11	0	6.9904	5.09487e-07
2	0	0	0	0	0	1641.65	0.499744	0.500034	0.00106192	15	0.128844	11	0	9.5868	5.30995e-07
2	1	0	1	0	0	1644.25	0.512726	0.512981	0.00193803	15	0.128848	11	0	12.1833	9.94172e-07
2	0	0	1	0	0	1646.84	0.525708	0.525966	0.00203522	15	0.128853	11	0	14.7797	1.07046e-06
2	1	0	1	0	0	1649.44	0.53869	0.538999	0.00328374	15	0.12886	11	0	17.3761	1.76994e-06
2	1	0	1	0	0	1652.04	0.551672	0.551924	0.00545221	15	0.128871	11	0	19.9726	3.00921e-06
2	1	0	1	0	0	1654.63	0.564655	0.564939	0.00788068	15	0.128888	11	0	22.569	4.45211e-06
2	1	0	1	0	0	1657.23	0.577637	0.577983	0.0130454	15	0.128915	11	0	25.1654	7.54002e-06
2	1	0	1	0	0	1659.83	0.590619	0.590906	0.0203717	15	0.128957	11	0	27.7619	1.20378e-05
2	1	0	1	0	0	1662.42	0.603601	0.603886	0.0335211	15	0.129027	11	0	30.3583	2.02429e-05
2	1	0	1	0	0	1665.02	0.616583	0.616831	0.0536717	15	0.129138	11	0	32.9547	3.31064e-05
2	1	0	0	0	0	1667.62	0.629565	0.629882	0.0854491	15	0.129316	11	0	35.5512	5.38228e-05
2	1	0	0	0	0	1670.21	0.642547	0.642846	0.132787	15	0.129596	11	0	38.1476	8.53618e-05
2	1	0	1	0	0	1672.81	0.65553	0.65578	0.201502	15	0.130025	11	0	40.7441	0.000132141
2	1	0	1	0	0	1675.4	0.668512	0.668801	0.295709	15	0.130665	11	0	43.3405	0.00019777
2	1	0	1	0	0	1678	0.681494	0.681762	0.42133	15	0.13159	11	0	45.9369	0.000287247
2	1	0	1	0	0	1680.6	0.694476	0.694809	0.578406	15	0.132881	11	0	48.5333	0.000401881
2	1	0	1	0	0	1683.05	0.693228	0.693471	0.553004	15	0.134373	11	0	50.9863	0.000383492
2	1	0	1	0	0	1685.65	0.680246	0.680479	0.394545	15	0.135594	11	0	53.5827	0.000268479
2	1	0	0	0	0	1688.24	0.667264	0.667563	0.274147	15	0.136454	11	0	56.1792	0.00018301
2	1	0	0	0	0	1690.84	0.654281	0.65454	0.185077	15	0.137042	11	0	58.7756	0.00012114
2	1	0	1	0	0	1693.44	0.641299	0.641611	0.121514	15	0.137436	11	0	61.3721	7.79649e-05
2	1	0	1	0	0	1696.03	0.628317	0.628595	0.0781425	15	0.137691	11	0	63.9685	4.912e-05
2	1	0	1	0	0	1698.63	0.615335	0.615665	0.0492194	15	0.137853	11	0	66.5649	3.03026e-05
2	1	0	1	0	0	1701.23	0.602353	0.602666	0.0295845	15	0.137953	11	0	69.1613	1.78296e-05
2	1	0	1	0	0	1703.82	0.58937	0.589662	0.0169273	15	0.138013	11	0	71.7578	9.98141e-06
2	1	0	1	0	0	1706.42	0.576388	0.576639	0.0095883	15	0.138047	11	0	74.3542	5.52899e-06
2	1	0	1	0	0	1709.02	0.563406	0.56374	0.0049971	15	0.138065	11	0	76.9507	2.81706e-06
2	1	0	1	0	0	1711.61	0.550424	0.550733	0.00204815	15	0.138073	11	0	79.5471	1.12799e-06
2	0	0	1	0	0	1714.21	0.537442	0.537681	-3.98088e-05	15	0.138075	11	0	0.000000000000000E+000	-2.14044e-08
2	0	0	1	0	0	1716.8	0.52446	0.524711	-0.00119456	15	0.138074	11	0	1.4979	-6.26801e-07
2	0	0	0	0	0	1719.4	0.511478	0.511769	-0.00151686	15	0.138071	11	0	4.0944	-7.76284e-07
2	1	0	0	0	0	1722	0.498495	0.498725	-0.00163903	15	0.138066	11	0	6.6908	-8.17426e-07
2	1	0	1	0	0	1724.59	0.485513	0.485783	-0.00201557	15	0.138061	11	0	9.2873	-9.79131e-07
2	0	0	1	0	0	1727.19	0.472531	0.472837	-0.00247459	15	0.138054	11	0	11.8837	-1.17008e-06
2	0	0	1	0	0	1729.79	0.459549	0.459825	-0.00280425	15	0.138048	11	0	14.4801	-1.28946e-06
2	0	0	0	0	0	1731.69	0.449987	0.450366	-0.00383902	15	0.138043	11	0	16.385	-1.72897e-06